@ HyperIMU - ianovir
@ Date:Sun Aug 20 09:47:23 GMT+03:00 2023, Sampling Rate:25ms

timestamp,bma4xy_accelerometer.x,bma4xy_accelerometer.y,bma4xy_accelerometer.z,oem_pseudo_gyro.x,oem_pseudo_gyro.y,oem_pseudo_gyro.z
1692514043455,-0.33600003,-0.21000001,10.26795,-0.0655875,-0.1137125,0.1879625
1692514043490,-0.324,-0.12195001,9.591001,-0.0760375,-0.075625,0.2987875
1692514043511,-0.35805002,-0.13905,9.67695,-0.0664125,-0.0350625,0.2211
1692514043540,-0.18795002,-0.36405003,10.30605,-0.051425,-0.0031625,0.1145375
1692514043575,-0.37695003,-0.34905002,10.287001,-0.0286,0.0264,-0.031625
1692514043602,0.24705002,-0.72705,10.275001,-0.0331375,0.0287375,-0.0378125
1692514043628,-0.058050003,-0.39195,9.942,-0.0735625,0.0055,0.0688875
1692514043654,-0.35295,-0.18405001,9.92805,-0.0924,-0.0163625,0.1502875
1692514043679,-0.66195005,0.18405001,9.540001,-0.098725,-0.0361625,0.1984125
1692514043710,-0.47505003,0.10005,9.700951,-0.0521125,-0.016224999,0.1527625
1692514043736,-0.48900002,0.0139500005,10.066951,-0.0521125,-0.016224999,0.1527625
1692514043766,-0.135,-0.22005,9.97395,0.0515625,0.0741125,0.0592625
1692514043794,0.08895,-0.28695002,9.79905,0.0873125,0.095699996,0.01485
1692514043821,0.20595,-0.47400004,9.79605,0.066275,0.0669625,0.0281875
1692514043850,0.39105,-0.54795,9.741,0.0331375,0.016224999,0.062425
1692514043877,0.12705001,-0.37995002,10.086,-0.039875,-0.102025,0.186725
1692514043907,-0.35805002,0.040050004,9.768001,-0.1012,-0.1810875,0.2589125
1692514043935,-0.34305,0.19095,9.49005,-0.102025,-0.1797125,0.2448875
1692514043961,-0.29295,0.10005,9.58605,-0.0688875,-0.1384625,0.1936
1692514043988,-0.12105001,-0.06705,9.76095,0.04895,-0.0094875,-0.021724999
1692514044018,-0.01995,-0.124050006,9.835051,0.0897875,0.0298375,-0.1188
1692514044041,0.02205,-0.079050004,9.757951,0.104499996,0.0402875,-0.160875
1692514044072,0.10605001,-0.23700002,10.11495,0.0793375,5.5E-4,-0.1276
1692514044100,0.096,-0.16995001,9.670051,0.0572,-0.027224999,-0.09845
1692514044128,0.10095,-0.19800001,9.717,0.0352,-0.049225,-0.07645
1692514044157,0.051000003,-0.25305,9.90705,-0.001925,-0.0757625,-0.0297
1692514044184,-0.015000001,0.15705001,9.8869505,-0.0127875,-0.082499996,0.0072875
1692514044211,-0.01305,-0.26295,9.77505,-0.0232375,-0.0776875,0.0688875
1692514044237,-0.15405001,-0.18405001,10.1650505,-0.0251625,-0.0627,0.0677875
1692514044264,0.11805001,-0.17205001,10.038,-0.023924999,-0.038225,0.044275
1692514044292,0.11805001,-0.17205001,10.038,-0.023924999,-0.038225,0.044275
1692514044321,0.20895001,-0.17400001,9.568951,-0.0143,0.0108624995,0.0034375
1692514044350,0.060000002,-0.18900001,9.97605,-0.0066,-4.125E-4,-0.0193875
1692514044385,0.060000002,-0.18900001,9.97605,-0.0066,-4.125E-4,-0.0193875
1692514044407,0.060000002,-0.18900001,9.97605,-0.0066,-4.125E-4,-0.0193875
1692514044439,0.060000002,-0.18900001,9.97605,-0.0066,-4.125E-4,-0.0193875
1692514044474,0.055050004,-0.273,10.23705,0.0240625,9.625E-4,0.077275
1692514044508,0.055050004,-0.273,10.23705,0.0240625,9.625E-4,0.077275
1692514044558,0.055050004,-0.273,10.23705,0.0240625,9.625E-4,0.077275
1692514044580,0.01695,0.117000006,9.492001,0.008525,0.0270875,0.0246125
1692514044616,-0.06105,0.126,9.448951,0.056925,0.0429,-0.06545
1692514044639,-0.03195,0.112050004,9.5119505,0.056925,0.0429,-0.06545
1692514044667,0.04605,-0.021000002,9.744,0.08635,0.037675,-0.1494625
1692514044701,-0.025050001,0.009000001,9.745951,0.08085,0.011825,-0.1291125
1692514044731,-0.075,0.009000001,9.865951,0.064899996,-0.0020625,-0.0320375
1692514044758,-0.16605,0.033,9.86295,0.048675,-0.010725,0.0996875
1692514044790,0.031050002,-0.0019500001,9.837001,0.0309375,-0.005775,0.2486
1692514044816,0.01905,-0.03795,9.93795,0.0237875,0.0031625,0.173525
1692514044852,0.01905,-0.09105001,10.075951,0.020075,-0.0011,0.0647625
1692514044879,0.0,0.018000001,9.77505,0.00935,-0.01485,-0.1617
1692514044904,-0.027,0.112050004,9.574051,0.001925,-0.019524999,-0.1973125
1692514044938,0.034050003,-0.00705,9.7560005,-0.0048125,-0.0199375,-0.14245
1692514044966,0.015000001,-0.052050002,9.92595,4.125E-4,-0.0158125,-0.091025
1692514044990,0.034050003,0.006,9.77505,0.0122375,-0.0171875,-0.014162499
1692514045020,0.036000002,-0.012,9.753,0.011,-0.0198,0.009075
1692514045046,0.097950004,-0.043050002,9.780001,0.006875,-0.0215875,0.033825
1692514045074,-0.09,0.022950001,9.72,-0.0011,-0.0232375,0.064899996
1692514045101,0.055050004,-0.097950004,9.712951,-0.0022,-0.0199375,0.0545875
1692514045128,0.07005,-0.076050006,9.861,-0.0042625,-0.0105875,0.0567875
1692514045156,-0.030000001,-0.14595,9.92805,-0.0116875,-0.0108624995,0.1232
1692514045184,0.10305001,-0.201,9.942,-0.021724999,-0.014162499,0.186725
1692514045210,0.048,-0.17895001,10.098001,-0.0325875,-0.0171875,0.1947
1692514045238,-0.05595,-0.021000002,9.61695,-0.047575,-0.014162499,0.0754875
1692514045266,-0.066,-0.060000002,9.901951,-0.0495,-0.010175,0.0144375
1692514045295,-0.17595,-0.061950002,10.099951,-0.0320375,0.0092124995,-0.090475
1692514045323,-0.123,-0.064050004,10.086,-0.0182875,0.0221375,-0.1203125
1692514045352,-0.12795001,-0.10305001,10.026,-0.0067375,0.0413875,-0.064625
1692514045380,-0.043950003,-0.0139500005,9.909,-0.0078375,0.04675,0.0015125
1692514045412,-0.16395001,0.15495001,9.492001,-0.0045375,0.0462,0.0908875
1692514045439,-0.066,0.141,9.64095,0.0070125,0.0429,0.0466125
1692514045466,-0.075,0.033,9.98595,0.0251625,0.0405625,-0.089925
1692514045495,-0.17595,0.162,9.62205,0.0581625,0.0350625,-0.4041125
1692514045523,-0.18105,0.16695,9.46395,0.0647625,0.03025,-0.44715
1692514045552,-0.34305,0.186,9.259951,0.0716375,0.032175,-0.3579125
1692514045579,-0.042000003,-0.097950004,9.682051,0.0768625,0.0430375,-0.282975
1692514045606,-0.21405001,-0.043050002,9.780001,0.0793375,0.055,-0.212575
1692514045636,-0.46800002,0.07095,9.81105,0.0562375,0.0518375,-0.113575
1692514045664,-0.10395,-0.061950002,10.05,0.0325875,0.0429,-0.082775
1692514045690,-0.231,0.064050004,9.85095,0.010175,0.0471625,-0.0727375
1692514045720,-0.17595,0.19995001,9.436951,-0.0066,0.0603625,-0.0721875
1692514045748,-0.07305,0.13800001,9.65505,-0.004675,0.056649998,-0.0595375
1692514045776,-0.063,0.12900001,9.448951,0.006325,0.031075,-0.0295625
1692514045802,0.055050004,0.09,9.198001,0.020075,0.016224999,-0.0254375
1692514045833,0.25905,-0.009000001,9.448951,0.0314875,-0.0246125,-0.0595375
1692514045862,0.16305001,0.0019500001,9.11205,0.027775,-0.048675,-0.0935
1692514045892,0.32805002,-0.19095,9.40095,0.006875,-0.104499996,-0.20295
1692514045920,0.44805002,-0.13905,9.583051,-0.0064625,-0.1263625,-0.241175
1692514045947,0.48600003,0.25995,8.944051,-0.0435875,-0.1590875,-0.1722875
1692514045974,0.606,0.50895,8.929951,-0.0548625,-0.1780625,-0.1265
1692514046001,0.71400005,0.80595005,8.941951,-0.0402875,-0.1973125,-0.16665
1692514046028,0.84300005,1.16505,8.39595,0.0787875,-0.2352625,-0.4932125
1692514046054,1.5370501,1.1029501,9.05895,0.16445,-0.26125,-0.659175
1692514046086,1.0849501,1.81605,9.65505,0.250525,-0.293425,-0.78045
1692514046113,0.015000001,2.30205,11.125051,0.3826625,-0.3595625,-0.9200125
1692514046140,-0.58500004,1.93095,13.519051,0.4387625,-0.3685,-0.9854625
1692514046170,1.7740501,0.054,15.438001,0.5220875,-0.2272875,-1.1779625
1692514046198,0.56505,0.15705001,14.445001,0.464475,-0.1186625,-1.1749375
1692514046225,0.80505,0.33,13.075951,0.3119875,-0.06435,-1.0091125
1692514046252,1.317,0.15705001,10.837951,-0.060775,-0.097075,-0.52415
1692514046280,1.4440501,0.11400001,8.382,-0.175175,-0.11,-0.39833748
1692514046308,0.52695,0.162,8.260051,-0.2437875,-0.1595,-0.2165625
1692514046332,0.43800002,0.31800002,6.59595,-0.2343,-0.2061125,-0.09845
1692514046363,0.87600005,0.064050004,5.68695,-0.2143625,-0.227425,-0.0077
1692514046392,1.31895,-0.79905003,5.229,-0.1584,-0.17655,0.0704
1692514046417,0.60795003,-1.0030501,4.43205,-0.13695,-0.158675,0.1241625
1692514046446,-1.54305,-1.29495,2.60805,-0.148775,-0.16499999,0.2415875
1692514046476,-1.03005,-2.697,5.55,-0.3210625,-0.1233375,0.6485875
1692514046503,0.04605,-3.9160502,8.88195,-0.4665375,0.0485375,0.86735
1692514046533,-2.4550502,-3.04395,10.15305,-0.94215,0.51865,1.6952375
1692514046560,-3.6180003,-1.58895,10.134001,-1.23365,0.5721375,2.33695
1692514046587,-1.84395,-3.52305,13.2960005,-1.4034625,0.5913875,2.7501376
1692514046616,-1.9210501,-5.3809505,19.49505,-1.142075,0.95823747,2.3453374
1692514046648,-1.50195,-4.0690503,21.025051,-0.8636375,0.8375125,1.8231125
1692514046672,-0.68805003,-2.082,19.62195,-0.8157875,0.5377625,1.6355625
1692514046699,0.91995007,0.03795,14.397,-0.667975,0.30195,1.206975
1692514046728,0.47700003,0.47295,13.98795,-0.0042625,0.1417625,-0.435875
1692514046755,0.924,0.27,13.305,0.3617625,0.1078,-1.327425
1692514046785,1.0320001,3.5320501,9.721951,0.6435,0.0537625,-2.002275
1692514046813,0.177,5.004,3.3049502,0.9351375,-0.0721875,-2.684275
1692514046840,0.62295,3.1879501,2.256,1.084875,-0.1101375,-2.9965374
1692514046867,2.25795,1.0500001,4.1670003,1.5530624,-0.1496,-3.6565375
1692514046895,2.98005,0.44700003,6.4620004,1.7076125,-0.22013749,-3.6400375
1692514046926,3.21705,0.117000006,3.69495,1.6660875,-0.37661248,-3.1741874
1692514046954,1.5949501,1.5840001,2.22495,1.094225,-0.89925,-1.3883375
1692514046982,2.6880002,0.17595,14.29905,0.8097375,-1.1473,-0.61654997
1692514047014,5.6970005,0.034950003,18.63405,0.5784625,-1.279575,0.0495
1692514047046,3.6340501,-1.218,20.368952,0.462,-1.1416625,0.2446125
1692514047079,-0.95100003,-3.0679502,25.792952,0.01375,-0.7924125,1.0019625
1692514047114,-0.63795,-2.7,16.07505,-0.3609375,-0.1412125,1.520475
1692514047146,0.18495001,-1.05495,6.747,-0.502425,0.3298625,1.6185125
1692514047180,0.16095,-2.082,3.5110502,-0.6006,0.8212875,1.8371375
1692514047209,-1.485,-3.3079503,3.0319502,-0.4943125,0.5902875,2.10375
1692514047241,-4.31895,-3.8850002,0.25500003,-0.4334,0.4219875,2.2686124
1692514047274,-2.9209502,-6.2899504,0.92100006,-0.7503375,0.3887125,2.9909
1692514047298,-2.69595,-6.18195,6.1129503,-0.8842625,0.4151125,3.751825
1692514047329,-3.2059503,-4.87095,6.438,-0.9711625,0.33495,4.891975
1692514047364,-3.2989502,-4.09305,7.7089505,-2.2235124,-0.0435875,6.4601626
1692514047396,-0.88395005,-4.78695,10.28205,-2.375175,-0.313225,5.8422375
1692514047425,-0.85995007,-4.1020503,16.681051,-2.034725,-0.282975,4.873825
1692514047454,-0.0010500001,-0.60495,17.497051,-0.90365,-0.0754875,2.223375
1692514047487,-1.3729501,0.66195005,15.948001,-0.11165,0.115775,0.576675
1692514047509,0.024,-0.16695,14.895,1.4818375,0.5984,-2.513225
1692514047545,2.4060001,-2.0059502,13.966051,2.0433874,0.797775,-3.741925
1692514047577,0.74700004,1.9720501,9.717,2.3073876,0.79805,-5.0512
1692514047614,1.8529501,4.59705,3.2280002,1.780075,0.257675,-4.60295
1692514047642,3.04695,4.00395,2.12505,1.6379,0.051975,-4.323
1692514047673,3.588,2.43405,11.25405,1.84965,-0.229075,-4.2796874
1692514047705,4.66995,1.2970501,14.878051,2.0114875,-0.507925,-4.1757374
1692514047734,3.354,0.054,10.017,1.8959875,-1.1682,-3.15315
1692514047765,2.3410501,1.05495,10.467001,1.5439875,-1.303775,-2.3973124
1692514047797,-0.35295,0.042000003,17.202002,0.7808625,-1.142075,-1.184425
1692514047824,-0.47505003,-2.9200501,24.10095,0.526625,-0.9032375,-0.8217
1692514047863,0.33795002,-3.1999502,18.141,0.0385,-0.061325,-0.2464
1692514047893,-0.19995001,-1.0669501,9.018001,-0.3135,0.396,0.20899999
1692514047919,-1.3080001,-1.8259501,8.71695,-0.8020375,0.3601125,1.25015
1692514047950,-0.78405005,-3.3679502,6.6610503,-0.692725,0.2355375,1.8291625
1692514047981,0.56805,-4.7700005,4.92105,-0.6133875,0.279675,2.1186
1692514048012,-0.79800004,-5.4910502,3.2740502,-0.76395,0.231825,2.9770124
1692514048044,-2.1790502,-6.0150003,2.1010501,-1.0074625,0.0543125,3.5201375
1692514048069,-2.5120502,-6.2400002,1.8210001,-1.3189,-0.1881,4.0654626
1692514048097,-3.213,-6.0390005,0.669,-1.535875,-0.220275,5.043225
1692514048127,-3.8050501,-4.5880504,0.91095006,-1.8299875,-0.2869625,5.4910626
1692514048153,-3.9600003,-3.4390502,3.8410501,-2.4567125,-0.46035,5.859425
1692514048184,0.80205005,-3.1590002,13.72395,-3.289275,-0.6408875,6.0759873
1692514048219,-1.58595,1.2730501,20.695051,-2.562175,-0.4316125,4.9044876
1692514048248,-0.85995007,2.67105,19.88805,-1.1281875,-0.2102375,3.3748
1692514048282,1.35,3.6810002,17.42295,2.585825,0.3884375,-0.8410875
1692514048313,2.66895,1.8420001,15.996,4.4259872,0.658075,-4.5969
1692514048340,1.59195,2.66595,11.866951,4.4198,0.4387625,-5.736775
1692514048370,-0.22605,5.09805,7.209,4.0216,0.0664125,-6.15725
1692514048400,-0.40800002,6.76095,3.006,2.9282,-0.4937625,-5.5831876
1692514048432,2.90895,2.43105,2.7640502,2.4872375,-0.5061375,-5.3592
1692514048462,5.4480004,1.215,8.583,2.52285,-0.544225,-5.4027877
1692514048493,4.56495,1.44,6.7110004,2.4949374,-0.737275,-5.054225
1692514048518,2.9659503,1.8090001,6.0859504,1.7934124,-1.444025,-2.9293
1692514048551,1.7310001,1.11705,16.597052,1.31065,-1.7435,-1.8610625
1692514048584,3.0310502,-1.299,19.990952,0.58134997,-1.65165,-0.788975
1692514048610,0.096,-2.8960502,26.236052,-0.2479125,-0.6012875,-0.144925
1692514048635,-1.26495,-3.8560503,23.895,-0.7002875,-0.08195,0.31955
1692514048666,-2.28705,-2.8549502,14.203051,-1.0638375,0.3419625,0.78265
1692514048697,-1.3800001,-3.5779502,9.98295,-1.3778875,0.9398125,1.4265625
1692514048721,0.15795001,-5.4430504,9.865951,-1.3506625,1.0605375,1.6262125
1692514048758,0.21795002,-5.4210005,5.5210505,-1.2401125,0.94476247,2.1286376
1692514048786,-2.01195,-4.959,1.14795,-1.298275,0.7148625,2.5696
1692514048818,-2.5140002,-5.5530005,1.16505,-1.609575,0.101475,3.5451624
1692514048848,-3.5269501,-5.33505,1.4280001,-1.5173125,-0.09295,3.986675
1692514048878,-3.9190502,-4.87605,-1.194,-1.9303625,-0.276375,5.038275
1692514048906,-3.0220501,-5.208,3.594,-2.4006126,-0.3529625,5.57645
1692514048936,-2.1720002,-3.6210003,10.75605,-3.2437625,-0.51535,6.2291627
1692514048970,-0.078,-2.35305,13.734,-2.8763626,-0.4444,4.921125
1692514049000,-1.18095,-1.9890001,16.38105,-1.7562875,-0.2528625,3.3759
1692514049030,-3.2680502,0.058950003,24.08205,-0.358325,-0.0209,1.62085
1692514049059,-0.67605,1.5670501,18.519001,2.0318375,0.450175,-1.5302374
1692514049091,0.22500001,2.4840002,10.608001,2.8342874,0.674575,-2.7575624
1692514049120,0.50505,4.12395,7.5420003,3.4637625,0.81565,-4.4242
1692514049151,1.0819501,4.9729505,4.6909504,3.369025,0.6980875,-4.8563623
1692514049175,2.8560002,3.1680002,4.9279504,3.0498874,0.3322,-5.330325
1692514049207,5.721,1.368,7.116,2.3896124,0.1199,-5.4206624
1692514049232,7.4040003,1.66305,8.142,0.6953375,-0.17847499,-4.732475
1692514049258,5.5030503,2.4550502,7.0939503,0.235125,-0.6545,-3.8556376
1692514049283,3.3630002,1.0500001,9.9210005,0.1266375,-1.4790875,-2.8777375
1692514049315,3.10995,-1.4430001,20.42205,0.2971375,-2.4385624,-1.5338125
1692514049342,1.9339501,-1.848,20.946001,0.2369125,-2.2875874,-1.138225
1692514049372,0.36705002,-1.3399501,16.707,0.0026125,-1.72975,-0.7123875
1692514049404,-0.61605,-1.83105,16.111052,-0.6290625,-0.30621248,0.20047499
1692514049433,-0.20895001,-1.7370001,14.263051,-0.770275,0.23155,0.4725875
1692514049461,-1.18095,-3.0540001,9.637951,-0.7297125,0.8569,0.7568
1692514049491,-0.75000006,-4.78905,6.4480505,-0.6457,0.93953747,1.20395
1692514049521,0.16995001,-5.709,4.53795,-0.6843375,0.86955,1.56475
1692514049554,-0.99195004,-7.2169504,3.1230001,-1.0517375,0.5971625,2.6164875
1692514049587,-4.44105,-6.47205,2.18895,-1.3704625,0.3565375,3.231525
1692514049614,-5.23395,-5.31405,1.9050001,-2.1668625,-0.1527625,4.4257126
1692514049648,-3.15105,-6.3499503,3.7189503,-2.5623126,-0.234575,5.0428123
1692514049678,-2.7130501,-6.1249504,3.8719501,-3.2219,-0.166375,6.3122125
1692514049708,-4.15395,-2.637,13.819951,-3.432825,-0.2204125,6.425375
1692514049735,-2.87295,-2.0010002,19.71795,-2.8048625,-0.2233,4.6866875
1692514049766,-0.11805001,1.9189501,13.887001,-1.6207125,6.875E-4,3.3460624
1692514049798,-0.61395,2.83605,17.013,1.6391375,0.727925,0.0050875
1692514049831,-0.33405003,1.6840501,17.185951,2.9335625,0.97473747,-1.9446625
1692514049864,0.10095,1.6099501,13.38195,4.141775,0.9153375,-5.0832376
1692514049898,0.22095,3.9199502,10.10505,4.104925,0.6969875,-5.7794
1692514049921,0.81195,6.2130003,3.525,3.3121,0.2094125,-5.514575
1692514049955,4.1839504,3.7480502,0.22905001,2.794,-0.1199,-4.894175
1692514049980,6.59205,2.18505,4.6069503,2.803075,-0.300575,-4.719
1692514050014,8.11695,2.53905,11.568001,2.7561874,-1.12915,-3.7016375
1692514050045,5.6130004,2.5890002,8.418,2.4668875,-1.8291625,-2.6819375
1692514050078,3.555,1.7899501,11.817,1.573275,-2.812425,-0.779625
1692514050103,2.5140002,3.5059502,19.383001,1.1999625,-2.732125,-0.3047
1692514050135,-0.43695003,0.906,22.036951,0.648725,-1.6773624,-0.014162499
1692514050166,0.84495,-1.55805,22.00605,0.36135,-0.861025,0.009625
1692514050198,2.0970001,-0.53595,12.634951,-0.243925,0.5982625,0.31707498
1692514050229,-1.2240001,-0.021000002,0.40905002,-0.4827625,0.94888747,0.6791125
1692514050259,-3.6150002,-2.15205,-0.10005,-0.6089875,0.8976,1.321375
1692514050280,-2.2410002,-5.77605,4.854,-0.51713747,0.7865,1.460525
1692514050313,-1.00905,-8.523001,8.57295,-0.560725,1.0362,1.940675
1692514050347,-3.2059503,-8.952001,2.46,-0.8127625,1.07305,2.8095374
1692514050379,-5.2500005,-9.361051,1.54305,-1.6049,0.6474875,5.4934
1692514050414,-3.11505,-9.7900505,12.8890505,-2.707925,0.391875,6.5575123
1692514050443,-2.742,-6.93195,11.24205,-4.195675,-0.113299996,6.966575
1692514050472,-4.4479504,0.591,13.600051,-3.630275,-0.2146375,5.1563873
1692514050497,-4.3170004,3.65895,14.62905,-2.5279374,-0.09735,3.6964126
1692514050538,-2.3800502,0.99000007,20.87895,0.2231625,0.4764375,1.5162125
1692514050564,1.02495,-0.81795,22.425001,1.69235,0.893475,0.389675
1692514050595,4.0789504,1.16295,12.444,3.630825,1.22705,-2.8908
1692514050626,2.772,2.529,7.8030005,3.774925,0.8828875,-4.4672375
1692514050659,1.5850501,2.5530002,10.078951,3.0749125,-0.1584,-5.6142626
1692514050689,2.016,3.252,6.4860005,2.6753376,-0.506825,-5.4423876
1692514050713,1.9150501,2.493,3.76395,2.1586125,-0.77935,-4.7518625
1692514050745,3.7560003,2.2800002,8.190001,1.9856375,-0.8232125,-4.4021997
1692514050772,4.005,2.69895,8.335951,1.6603125,-1.0131,-3.672075
1692514050803,1.5130501,3.0540001,6.3160505,1.488025,-1.200925,-3.2113125
1692514050831,2.6520002,2.9530501,12.49905,1.203675,-1.49435,-2.3035374
1692514050864,2.4109502,1.90005,14.452051,1.117325,-1.4525499,-2.0136874
1692514050896,0.24000001,0.09705,19.77795,0.844525,-0.9653875,-1.50975
1692514050924,2.23095,-0.58095,18.01905,0.5828625,-0.60513747,-1.1064625
1692514050954,2.12595,0.72495,10.596001,-0.0704,0.165825,-0.0199375
1692514050985,-3.01005,0.18795002,0.078,-0.32999998,0.4057625,0.5357
1692514051037,-1.5139501,-8.93295,18.13095,-0.3234,0.545875,1.1647625
1692514051055,-0.64995,-9.009001,12.3820505,-0.470525,0.8408125,1.44375
1692514051091,-2.5099502,-7.011,2.7160501,-0.9802375,1.18085,2.301475
1692514051112,-2.60805,-7.3510504,-2.5800002,-2.3170125,1.0694749,4.66015
1692514051152,-3.69405,-8.229,0.90405005,-3.172125,0.374275,5.9087873
1692514051175,-5.64795,-7.5709505,4.40805,-3.74715,-0.0226875,6.5984874
1692514051204,-2.4379501,-7.5829506,14.091001,-4.317225,-0.4225375,6.7923627
1692514051236,-0.882,-4.37505,16.744951,-4.5478125,-0.69465,6.567825
1692514051265,-3.2659502,2.70705,13.210051,-3.4942875,-0.5498625,5.1772876
1692514051294,-2.9280002,1.34895,20.629951,-0.4261125,-0.0848375,1.715725
1692514051323,-0.31905,1.041,22.53495,1.0527,0.2464,0.31955
1692514051354,-1.41795,6.31395,13.782001,3.3180125,0.9131375,-2.286625
1692514051386,0.0,8.56095,3.04905,3.8973,1.0019625,-3.7230875
1692514051416,2.7150002,5.8350005,2.8240502,4.46545,0.835725,-6.5030622
1692514051441,4.6200004,3.9820502,6.97905,4.6256375,0.617375,-7.33425
1692514051475,6.01095,4.0129504,11.026951,4.661525,-0.454025,-7.5983872
1692514051507,5.8099504,4.32495,7.8169503,4.273775,-1.1570625,-6.6264
1692514051536,4.42605,2.63895,7.3410006,2.80005,-2.250875,-3.1873875
1692514051565,1.7809501,1.0330501,17.064001,2.210725,-2.514325,-2.094675
1692514051601,2.36805,-1.27995,18.294,1.317525,-2.3203125,-0.8639125
1692514051633,1.3579501,-3.51795,23.167051,0.019524999,-1.0542125,0.0966625
1692514051664,-0.006,-4.39395,18.733952,-0.60775,-0.3542,0.6340125
1692514051697,-2.01195,-2.36505,11.722951,-1.39535,0.56485,1.7485875
1692514051721,-1.5190501,-2.4439502,10.357051,-1.538625,0.7954375,2.1767626
1692514051763,-1.3440001,-4.0470004,5.10195,-1.4150125,0.951775,2.53935
1692514051786,-1.4250001,-4.071,1.9450501,-1.2882375,0.92922497,2.5746875
1692514051817,-1.76505,-4.4380503,1.524,-1.2505625,0.75075,2.7869875
1692514051846,-1.12395,-5.01195,6.22305,-1.363725,0.6304375,3.0245874
1692514051876,-2.60805,-5.0070004,4.19805,-1.766325,0.3729,3.6399
1692514051908,-3.039,-6.0720005,0.531,-1.961575,0.24007499,3.856875
1692514051934,-2.32995,-7.9920006,7.3050003,-2.3241625,-0.0176,4.1503
1692514051965,-6.354,-6.6850505,9.64095,-2.7119124,-0.20515,4.526225
1692514051997,-0.69495004,-5.1390004,8.109,-3.2220376,-0.521675,4.6794
1692514052024,-0.35805002,-4.2510004,9.913951,-2.8276875,-0.4723125,4.0668373
1692514052059,-3.11505,-2.1420002,21.820051,-1.5126375,-0.231825,2.310275
1692514052087,-5.04405,-0.9480001,20.167952,-0.76876247,-0.1302125,1.3244
1692514052118,-2.8849502,3.1420503,13.5709505,1.159125,0.3642375,-0.5115
1692514052150,1.3549501,2.56995,9.555,2.95185,1.2901624,-2.49535
1692514052182,0.9289501,4.25805,6.9220505,3.5519,1.5756125,-3.7866125
1692514052209,0.048,5.8350005,2.5200002,4.0011125,1.214675,-6.065675
1692514052239,1.3260001,4.782,-0.61305004,3.99355,0.7918625,-6.6628375
1692514052262,4.54605,2.14395,3.90105,3.9364874,0.4178625,-6.66435
1692514052306,8.14605,3.3100502,10.663051,4.0159626,-0.409475,-6.6620126
1692514052330,7.83195,4.53,7.8409505,3.09045,-1.9602,-3.5679874
1692514052365,5.7190504,5.74905,13.305,2.5064874,-2.7680125,-2.030875
1692514052394,2.3749502,-1.2970501,37.369053,1.8830625,-3.3906124,-0.7473125
1692514052423,6.42705,-9.016951,38.029053,1.5756125,-2.9612,-0.624525
1692514052454,1.6210501,-3.90105,12.3820505,-0.1780625,-0.669075,0.2563
1692514052480,-1.6530001,-1.6390501,5.36805,-1.147025,0.3064875,1.132725
1692514052511,-3.039,-6.6400504,6.144,-1.6913875,0.76725,2.1949124
1692514052543,-3.1990502,-7.7770505,7.6759505,-1.4938,0.7398875,2.27205
1692514052574,-1.60695,-7.96605,0.27,-1.3567125,0.829675,2.937825
1692514052608,-2.4499502,-9.184051,-1.5630001,-1.5739625,0.79585,3.7739625
1692514052640,-5.157,-7.5610504,3.381,-2.338875,0.25135,5.5594
1692514052666,-5.1280503,-7.425,3.3120003,-2.918575,-0.1918125,6.2632623
1692514052698,-1.3410001,-7.46505,4.7460003,-3.8506875,-0.77494997,6.5228624
1692514052727,-3.0649502,-5.742,6.37095,-3.969075,-0.809875,6.610175
1692514052761,-4.20195,-0.41400003,12.74295,-3.21145,-0.7084,4.8921123
1692514052790,-2.5810502,0.93000007,18.411001,-1.1136125,-0.2844875,3.1967375
1692514052818,-2.63595,-0.57705003,23.893051,0.447975,0.0908875,2.4028125
1692514052846,0.99600005,-0.72,22.31295,2.1085625,0.5460125,1.0767624
1692514052874,0.40500003,1.7920501,12.432,4.4485373,1.23475,-3.169925
1692514052905,-2.04795,3.3769503,9.226951,4.702775,1.2005125,-5.1308126
1692514052938,2.4060001,2.43405,7.4290504,4.030675,0.7500625,-6.6276374
1692514052967,6.42,0.52605003,7.7239504,3.6279376,0.6073375,-6.5098
1692514052989,6.0010505,2.295,3.3930001,2.9187124,0.036849998,-5.542075
1692514053019,5.31405,3.051,2.73,2.4974124,-0.6021125,-4.663725
1692514053048,5.28795,2.86695,8.956051,2.1027875,-1.3206875,-3.7684624
1692514053077,5.9490004,0.744,12.23805,1.678875,-2.3343375,-2.6566374
1692514053109,4.1460004,2.35905,12.075001,1.3468125,-2.438425,-1.9281625
1692514053136,3.4999502,3.8389502,17.00805,1.0737375,-2.1533875,-1.5279
1692514053168,0.75705004,0.33705002,26.31495,0.8221125,-1.735525,-1.20945
1692514053196,1.3099501,-1.9890001,25.435951,0.4794625,-0.634425,-0.92565
1692514053230,1.2400501,-0.66,8.266951,-0.0831875,0.5933125,-0.319
1692514053251,-1.7340001,-1.62495,3.9150002,-0.339625,0.8894875,0.1777875
1692514053287,-1.8180001,-8.050051,4.2340503,-0.4621375,0.9213875,0.6516125
1692514053312,-0.123,-10.73805,6.73995,-0.5938625,0.8083625,1.699225
1692514053342,-2.22,-8.93805,1.50195,-0.911075,0.8184,2.779425
1692514053368,-3.5029502,-7.79295,-1.6609501,-1.4898125,0.7088125,4.4229627
1692514053399,-3.28005,-5.92395,-1.23195,-2.8653624,-0.103675,7.035875
1692514053427,-4.4029503,-4.30305,-0.30105,-3.4370875,-0.5014625,7.5092874
1692514053461,-5.0280004,-4.16895,9.17595,-2.6118126,-0.4860625,7.3132124
1692514053488,-1.7629501,-1.812,18.583052,-2.080375,-0.383075,6.8926
1692514053513,-2.8969502,1.1410501,15.658051,-1.1023375,-0.1709125,5.7563
1692514053546,-5.7070503,0.43995002,18.354,0.1934625,-4.125E-4,4.4031625
1692514053572,-4.293,-3.624,26.58105,3.1139624,0.5154875,0.9667625
1692514053597,-0.010950001,-3.2260501,25.152,3.964675,0.647075,0.3202375
1692514053627,-0.31500003,0.231,14.265,4.3467875,0.908325,-2.97165
1692514053657,2.6119502,3.0370502,10.06005,4.0049624,0.7799,-4.643375
1692514053682,5.1010504,2.6539502,7.5660005,3.532375,0.5484875,-5.5196624
1692514053713,6.66195,1.93305,5.1480002,2.634775,0.077275,-5.8529625
1692514053743,6.4560003,2.88105,4.88205,2.437325,-0.3405875,-5.6368127
1692514053771,3.28005,4.17105,6.43095,1.962125,-1.5420625,-4.4644876
1692514053797,4.374,2.529,9.916051,1.7892874,-2.018225,-3.834325
1692514053828,3.828,0.19305001,9.84195,1.6240125,-2.2551374,-3.0185375
1692514053860,2.1330001,-0.13905,15.097951,1.4559875,-2.0774875,-2.612775
1692514053889,1.9060501,2.6179502,17.63595,0.7676625,-1.4199625,-1.427525
1692514053920,3.3280501,-0.32295,18.286951,0.4129125,-0.945725,-0.8575875
1692514053945,0.74205005,-2.2810502,17.55195,0.1684375,-0.4477,-0.4378
1692514053972,-0.80100006,-3.9850502,12.1369505,-0.0715,0.221375,0.17613749
1692514053997,-2.18895,-4.287,8.142,-0.2077625,0.4189625,0.5808
1692514054025,-1.41795,-6.3840003,3.1230001,-0.3894,0.60101247,1.0949125
1692514054052,-1.176,-7.12305,2.8879502,-0.4178625,0.527725,2.31495
1692514054079,-1.53495,-7.4490004,2.3470502,-0.839025,0.6065125,3.04425
1692514054108,-1.8730501,-7.4800506,2.32305,-1.3195875,0.51425,3.8732374
1692514054134,-3.00705,-6.0100503,2.4460502,-2.3722875,-0.053625,5.45325
1692514054162,-5.0400004,-4.3780503,0.15705001,-2.833875,-0.3839,5.910575
1692514054192,-5.3050504,-4.3390503,2.56305,-3.1656625,-0.61875,6.0460124
1692514054220,-1.5690001,-6.951,12.097051,-3.3347874,-0.5773625,5.8733125
1692514054248,-5.0280004,-1.455,16.057951,-2.9038625,-0.257125,5.2677627
1692514054281,-2.943,1.20105,14.842051,-1.970375,-0.0884125,4.19485
1692514054313,-1.45395,-1.86705,18.307951,0.989175,0.456225,1.4521375
1692514054342,1.7170501,-3.7360501,25.125002,2.2449625,0.7896625,0.015125
1692514054373,2.15205,-3.07605,17.490002,3.63275,1.07745,-3.542
1692514054401,1.2760501,-0.95205003,16.63005,3.6597,0.8790375,-5.063575
1692514054429,2.80995,1.57395,13.590001,3.2701626,0.537075,-5.7264624
1692514054463,3.0259502,4.9680004,3.35295,2.2647624,0.034649998,-5.271475
1692514054487,2.5900502,4.5810003,0.95400006,1.8052375,-0.0686125,-5.035525
1692514054534,5.5219502,3.6810002,5.7990003,1.706375,-0.3141875,-4.9784627
1692514054562,5.43195,3.7210503,6.0049505,1.6347375,-0.3628625,-4.7212
1692514054585,2.9329503,3.18,7.2739506,1.749,-0.9229,-4.314475
1692514054608,2.21895,2.80695,11.977051,1.784475,-1.4551625,-3.76695
1692514054634,4.395,3.3739502,14.505001,1.6534375,-1.865325,-2.6926625
1692514054661,1.7170501,0.48795003,14.275051,1.4629999,-1.6108125,-2.2218626
1692514054690,-0.29805002,-3.48495,26.358002,0.89402497,-0.711975,-1.218525
1692514054716,0.46500003,-2.9680502,20.37405,0.4888125,-0.176275,-0.5902875
1692514054743,0.22995001,-1.6300501,7.0650005,-0.0121,0.4378,0.1764125
1692514054771,-1.4089501,-3.41805,-2.8860002,-0.0097624995,0.62067497,1.7012875
1692514054800,-3.18705,-9.5119505,5.5909505,-0.3056625,0.61325,2.1613624
1692514054829,-1.0570501,-10.1320505,11.058001,-0.4983,0.6125625,2.5711124
1692514054860,-0.65505004,-8.887051,8.0779505,-1.4287624,0.61448747,4.78115
1692514054892,-2.80395,-5.256,0.97605,-2.72195,0.0647625,6.740937
1692514054924,-4.5270004,-4.72695,-1.692,-2.9819624,-0.2391125,6.70505
1692514054952,-4.1520004,-5.8780503,6.2130003,-1.573,-0.1714625,5.2751875
1692514054992,-3.8860502,-2.08905,16.903051,-0.93555,-0.0803,4.889775
1692514055014,-2.3779502,0.44700003,14.998051,-1.0135125,0.1027125,4.3608127
1692514055038,-1.62195,2.2039502,16.566,-0.260975,0.4244625,3.266725
1692514055068,-0.23595001,0.97395,20.032051,2.26105,1.206975,-0.110275
1692514055095,-0.291,1.54305,18.141,3.30605,1.4370124,-2.038025
1692514055123,-2.6820002,2.22105,9.84405,3.94845,1.4224375,-3.7838626
1692514055154,-2.2009501,2.23305,8.2240505,3.909675,0.9189125,-5.4245124
1692514055181,1.0200001,1.6099501,6.852,3.5202749,0.76065,-5.3414626
1692514055208,2.562,2.01195,6.3109503,1.27325,0.40974998,-4.6638627
1692514055236,2.6239502,3.2040002,5.28,0.4637875,0.2734875,-4.2626376
1692514055261,4.05795,3.11805,6.79995,-0.0231,0.180675,-3.81425
1692514055297,5.19,2.9509501,5.80905,-0.53405,-0.2611125,-2.4806376
1692514055325,4.63005,1.8139501,6.393,-0.301125,-0.924825,-1.7425375
1692514055349,3.76605,0.08805001,14.206051,0.5567375,-1.9288499,-1.327975
1692514055375,3.117,3.55395,12.5779505,0.624525,-2.116675,-0.9565875
1692514055403,0.29505002,4.3819504,11.932051,0.518925,-2.0062625,-0.6070625
1692514055432,1.434,-0.81600004,27.109951,0.354475,-1.2112375,-0.4351875
1692514055462,1.1400001,-2.3410501,21.762001,0.3705625,-0.7198125,-0.500225
1692514055496,0.69195,-1.6150501,8.64,-0.141625,0.353375,0.2985125
1692514055527,-4.446,-3.35805,-0.57705003,-0.5077875,0.6824125,1.0186
1692514055553,-2.7559502,-7.2379503,8.956051,-0.7720625,0.8160625,1.8771499
1692514055581,-2.0640001,-8.575951,12.228001,-0.8679,0.7720625,2.182675
1692514055609,-0.453,-9.17895,6.2710505,-1.16325,0.8801375,2.80445
1692514055642,-1.2390001,-6.4860005,0.82305,-2.3450625,0.961675,5.071
1692514055675,-4.125,-4.37295,-1.8360001,-3.2797875,0.0166375,6.0772247
1692514055707,-4.64505,-3.5850003,0.37995002,-3.5288,-0.3958625,6.0091624
1692514055738,-3.8500502,-2.18505,9.613951,-3.8220875,-0.683925,6.2160997
1692514055768,-4.66905,-1.074,16.62105,-3.8174124,-0.639375,6.4535623
1692514055798,-4.0219502,-1.8910501,25.945951,-2.1756625,-0.23045,5.3068123
1692514055829,-2.8230002,-1.93095,25.306952,-0.3991625,0.13365,3.5550625
1692514055854,1.4800501,-0.69405,18.639,3.0133126,0.9249625,-1.4922875
1692514055892,-0.99000007,2.56995,12.343051,3.8218124,1.0558625,-3.8489
1692514055919,0.95100003,3.6349502,6.3420005,3.7225375,0.6683875,-6.18585
1692514055945,1.9270501,2.9890501,5.67705,3.7225375,0.6683875,-6.18585
1692514055980,6.6709504,-0.00405,10.02105,2.965875,0.2737625,-5.9444
1692514056012,5.7000003,2.2999501,4.21395,2.072675,-0.8025875,-4.2051625
1692514056038,4.3900504,3.3649502,2.4499502,1.5805625,-1.5030125,-3.254625
1692514056064,5.826,1.914,4.72905,1.27215,-2.0306,-2.6356
1692514056096,3.9070501,0.22905001,14.251051,1.2065625,-2.5166626,-2.1536624
1692514056132,0.83295006,3.147,15.460051,1.1094875,-2.4930124,-1.452825
1692514056151,-1.6789501,3.6859503,13.83705,0.868725,-2.0101125,-0.9986625
1692514056187,0.73305005,-1.1010001,25.29,0.636625,-1.1950125,-0.7401625
1692514056220,-1.81095,-2.25,17.547,0.3873375,0.4684625,-0.707575
1692514056249,-1.99995,-3.6450002,14.526001,0.1881,0.98505,-0.4670875
1692514056280,-0.59895,-5.7709503,9.282001,-0.417175,1.381325,0.60445
1692514056311,-0.372,-6.0360003,8.6980505,-0.417175,1.381325,0.60445
1692514056339,-0.67800003,-7.4770503,1.9789501,-0.9307375,1.3129874,1.5838625
1692514056367,-3.2400002,-8.236051,-1.386,-1.5378,0.8223875,2.7479374
1692514056397,-2.95005,-6.9990005,-1.39005,-2.4376,0.1654125,4.2824373
1692514056430,-5.1070504,-5.3089504,-2.50395,-3.741925,-0.5071,6.2085376
1692514056452,-6.49305,-5.6850004,0.43500003,-4.281475,-0.8410875,6.5241
1692514056488,-2.7540002,-4.7800503,12.463051,-4.769325,-1.0604,6.7805376
1692514056520,-4.46505,-4.38,16.20405,-4.8103,-0.9669,6.475975
1692514056547,-5.2000504,-3.384,20.15805,-3.703425,-0.741675,5.7877874
1692514056573,-5.7049503,-2.9320502,28.350002,0.22935,-0.2118875,2.5942125
1692514056608,-0.537,-1.299,22.59,1.9210125,0.1276,0.9637375
1692514056638,2.05905,0.0139500005,17.037,4.1911373,0.899525,-2.6354625
1692514056670,3.34695,3.288,12.7240505,4.6316876,1.02245,-6.0797
1692514056699,3.5089502,5.01195,4.8510003,3.8619626,0.72875,-6.52245
1692514056732,2.3800502,4.04505,0.79395,3.0978749,0.075625,-6.772975
1692514056758,3.49305,2.97705,2.7469501,2.9869125,-0.21395,-6.623375
1692514056786,6.8269506,2.53395,8.49195,2.8864,-0.501325,-6.5272627
1692514056819,5.0389504,2.5099502,5.4739504,2.451075,-1.2106875,-4.8910127
1692514056851,2.9680502,2.4169502,8.740951,2.182675,-1.72535,-3.8906999
1692514056878,1.6710001,-0.62895006,16.092001,1.6431249,-2.4446125,-2.2549999
1692514056908,0.064950004,1.50705,14.698951,1.3006124,-2.20165,-1.7716875
1692514056943,-0.15195,3.3120003,10.876051,0.4277625,-0.8305,-1.1510125
1692514056971,2.8219502,-2.6419501,22.528051,0.029975,0.2651,-0.854425
1692514057002,2.676,-3.45405,16.543951,-0.0308,0.53075,-0.6282375
1692514057033,-3.55605,-3.3010502,2.154,-0.4288625,0.4169,0.5823125
1692514057062,-4.4560504,-8.787001,4.70505,-0.6505125,0.3276625,1.28205
1692514057088,-2.70105,-10.531951,7.6660504,-0.80189997,0.36795,1.8324625
1692514057117,-2.3040001,-9.1699505,9.96405,-0.55,0.610775,3.2940874
1692514057146,-5.3100004,-6.7639503,0.88005006,0.2855875,0.461725,4.627425
1692514057172,-4.6470003,-5.9220004,-0.25305,-1.1620125,-0.1274625,6.492475
1692514057199,-1.93305,-6.36705,1.416,-1.8625749,-0.3355,6.4554873
1692514057228,-2.397,-6.9240003,0.79200006,-2.902625,-0.661925,6.8230247
1692514057255,-2.1390002,-7.0540504,7.3360505,-3.2924376,-0.8518125,6.492475
1692514057284,-4.7689505,-1.422,18.43995,-3.5748625,-0.954525,5.951275
1692514057313,-3.5959501,3.1680002,15.342001,-2.5931125,-0.6054125,3.5469499
1692514057340,-1.3219501,4.4490004,12.77595,-0.9585125,-0.070125,2.2339625
1692514057369,-1.0999501,1.0500001,19.218,2.9357624,1.3765125,-1.034
1692514057400,0.47205,-1.9120501,16.614,4.4064627,1.855425,-3.180925
1692514057426,0.91200006,-0.51705,16.374,5.1976376,1.8591375,-5.1541877
1692514057452,2.05605,3.111,12.1060505,4.393125,0.781,-5.8757873
1692514057481,-0.46995002,6.9100504,2.97,3.5514874,0.230725,-5.1986
1692514057512,-0.38205,7.2690005,1.2079501,2.7230499,-0.3499375,-4.568025
1692514057546,4.9339504,3.2620502,7.9920006,2.8092625,-0.40974998,-4.7872
1692514057579,4.7470503,2.043,5.9809504,3.2690625,-0.5962,-5.201625
1692514057612,1.8460501,1.9720501,6.4480505,2.7014625,-1.459425,-3.3609126
1692514057637,1.29495,0.84405005,10.44705,2.1465125,-1.8143125,-2.2006874
1692514057662,2.56605,3.1230001,15.721051,1.643675,-1.892,-1.387925
1692514057695,0.08895,-0.70305,20.95605,0.7316375,-1.2678875,-0.5047625
1692514057722,-0.27600002,-3.62805,25.104002,0.28861248,-0.7877375,-0.1777875
1692514057751,-0.46800002,-1.23195,15.972001,-0.5157625,0.136125,0.504625
1692514057780,-0.15195,-1.4500501,5.50005,-0.853325,0.4934875,0.892925
1692514057812,-1.88205,-5.0809503,9.12405,-1.0850124,0.7365875,1.466025
1692514057844,-1.5520501,-7.9200006,10.99995,-1.053525,0.6287875,1.7001874
1692514057876,-2.0310001,-7.7530503,2.3710501,-0.6048625,0.44275,2.6692874
1692514057911,0.26595002,-8.272051,-0.25305,-1.8511624,0.3705625,4.3934
1692514057930,0.14205001,-7.0590005,-0.081,-2.4723876,0.07865,5.32675
1692514057965,-3.6750002,-3.7789502,0.47295,-3.088525,-0.399025,6.128925
1692514057998,-5.32905,-2.9269502,3.8509502,-3.9578,-1.31725,6.2459373
1692514058029,-2.80605,-1.3620001,12.219001,-3.651725,-1.13135,5.5924
1692514058062,-4.37895,-0.021000002,16.173,-2.9440124,-0.7775625,5.349437
1692514058089,-3.55995,1.86195,18.44205,-1.7447375,-0.4569125,4.1196375
1692514058116,-1.19805,-1.9339501,20.785952,1.720675,0.72875,0.341
1692514058144,1.1370001,-2.7280502,15.084001,3.2866626,1.363175,-2.1371624
1692514058177,1.14705,-1.1850001,16.623001,4.2059875,1.406625,-5.8359127
1692514058212,0.9580501,1.5310501,12.525001,2.9535,0.3311,-5.3712997
1692514058232,1.1710501,2.29695,11.316001,2.4121625,-0.0389125,-4.8158
1692514058266,3.62895,1.299,6.5890503,2.0975626,-0.2226125,-4.5016127
1692514058290,5.0389504,0.86805004,2.742,1.9503,-0.3056625,-4.367
1692514058315,3.933,1.4430001,6.2730002,1.4749625,-0.6026625,-3.8006375
1692514058343,3.6169503,1.6560001,8.619,1.33815,-0.90255,-3.2307
1692514058372,3.5479503,0.83505005,7.70205,1.0762125,-1.5024625,-2.1033375
1692514058401,2.3719501,0.39405003,9.045,1.0065,-1.6247,-1.7177875
1692514058429,2.013,0.72705,14.679001,0.8028625,-1.4843125,-1.067275
1692514058458,1.12995,0.64995,15.880951,0.638,-1.25235,-0.7601
1692514058489,1.4800501,0.08505,16.879051,0.4679125,-0.90915,-0.513975
1692514058516,-0.69495004,-0.0019500001,12.859951,0.216975,-0.1331,-0.1332375
1692514058549,-0.80295,-2.46495,11.6629505,0.1401125,0.1628,0.0859375
1692514058580,0.48405004,-6.08895,13.960951,0.0174625,0.5797,0.6353875
1692514058606,0.10095,-5.6680503,12.681001,-0.1164625,0.72325,1.0690625
1692514058636,-1.107,-4.03095,5.229,-0.703725,0.7178875,2.4486
1692514058662,-1.7770501,-4.6530004,-0.07395,-1.022725,0.5638875,3.083025
1692514058691,-2.196,-5.8380003,-0.43305,-1.3913625,0.2754125,3.594525
1692514058715,-2.26305,-5.68695,0.933,-1.5796,0.177375,3.8456
1692514058744,-2.943,-4.6650004,1.27695,-1.901625,0.0427625,4.386525
1692514058774,-4.2979503,-4.38,2.5150502,-2.7927625,-0.3878875,5.7276998
1692514058800,-4.1989503,-3.423,9.459001,-3.129775,-0.542575,6.0137
1692514058830,0.50295,-1.89495,17.743052,-2.97385,-0.46873748,5.621
1692514058861,-0.66195005,-0.30105,17.42295,-2.0009,-0.23567499,4.533925
1692514058890,-1.04205,-0.26295,13.921051,-0.4459125,0.0917125,2.5762
1692514058919,-1.5259501,-2.2020001,18.32295,2.2935,0.680075,-2.023175
1692514058946,0.28995,-3.14505,24.498001,2.8578,0.8190875,-3.5553374
1692514058979,2.49705,0.59505004,13.138051,2.6852374,0.7638125,-4.587275
1692514059008,3.7180502,3.0010502,2.4169502,1.9681749,0.3573625,-4.439875
1692514059038,3.3630002,3.4630501,1.1890501,1.7217749,0.105325,-4.3652124
1692514059066,3.1030502,3.8869503,2.49105,1.58125,-0.166925,-4.2752876
1692514059096,5.8890004,3.2689502,6.9910502,1.1474375,-0.49555,-3.9565625
1692514059125,5.72805,4.0729504,5.0209503,0.93445,-0.6161375,-3.728725
1692514059154,3.3319502,4.5019503,7.62795,1.4422375,-1.5805625,-3.0534625
1692514059185,1.695,3.6180003,15.4789505,1.578775,-1.989075,-2.6706624
1692514059213,0.3,1.5289501,18.36795,1.6080625,-1.9481,-2.240975
1692514059241,2.5090501,-3.3769503,29.752052,1.3586375,-1.331,-2.0829875
1692514059269,2.2720501,-3.9880502,22.111952,0.224675,0.27307498,-1.138225
1692514059299,0.50295,-2.4079502,16.768951,-0.45113748,0.78223747,-0.2453
1692514059327,-0.94695,-3.1980002,11.89605,-0.96635,0.9832625,0.6873625
1692514059357,-1.8970501,-4.0230002,5.2579503,-1.2454749,0.9295,1.721225
1692514059383,-1.77495,-4.62195,-0.055050004,-1.1836,0.907775,1.8797625
1692514059412,-2.703,-5.9550004,-2.4439502,-1.13905,0.9021375,2.065525
1692514059442,-2.703,-5.9550004,-2.4439502,-1.171225,0.8727125,2.40515
1692514059472,-1.47105,-8.7630005,3.1999502,-2.2455125,0.472725,5.001425
1692514059499,-1.5660001,-6.7570505,1.7200501,-3.1354125,0.0878625,6.61265
1692514059531,-3.2250001,-3.4609501,-1.9650002,-4.05405,-0.5047625,7.4130373
1692514059560,-3.8569503,-0.82995003,11.74695,-3.82525,-0.4563625,6.4345875
1692514059589,-3.177,1.9260001,16.116001,-4.092,-0.4409625,5.4770374
1692514059616,-5.6569505,0.504,20.283,-1.44925,-0.1023,3.853575
1692514059645,-5.6569505,-4.782,33.40005,1.1114125,0.4731375,2.308625
1692514059674,-1.15005,-1.74495,20.095951,3.5344374,1.2115124,-2.40185
1692514059702,0.81705004,0.65505004,14.380051,3.001625,0.995225,-4.5819125
1692514059732,1.779,1.4500501,10.897051,3.1081874,0.7244875,-6.001875
1692514059760,3.2940001,2.6560502,4.425,2.80555,0.37675,-5.7792625
1692514059790,3.4060502,3.7170002,0.94500005,2.3133,-0.2745875,-4.81635
1692514059818,2.868,4.3720503,0.35805002,2.1346874,-0.58025,-4.254525
1692514059848,4.242,3.9420002,4.056,2.0505376,-0.8740875,-3.7904625
1692514059879,6.0990005,2.391,9.265051,2.2264,-1.434125,-3.3210375
1692514059906,5.2450504,1.06005,8.35095,2.3409374,-1.7697625,-3.0667999
1692514059933,2.5900502,2.4120002,11.899951,2.29185,-2.135925,-2.5469124
1692514059966,-0.78405005,4.875,17.064001,1.617,-2.4107876,-1.084325
1692514059993,-2.1649501,0.50895,25.851002,0.9521875,-1.32165,-0.5836875
1692514060020,0.32805002,-3.6810002,25.872002,0.7266875,-0.41745,-0.6826875
1692514060050,0.54105,-2.604,18.24105,0.407275,0.4203375,-0.5770875
1692514060079,-0.33900002,-2.47005,11.391001,-0.54835,1.254,0.7646375
1692514060108,-1.4110501,-3.7860003,2.2780502,-0.2831125,0.837925,2.045725
1692514060141,-3.35205,-4.794,-1.0860001,-0.546975,0.7390625,2.4103749
1692514060169,-3.0000002,-6.53205,-0.31605002,-0.4904625,0.55439997,3.184225
1692514060196,-3.18705,-6.1590004,1.4860501,0.17545,0.342375,3.7629626
1692514060223,-2.7610502,-4.07805,-2.32395,0.65285,0.1612875,4.5599127
1692514060256,-2.49495,-4.08795,-2.15895,1.045,-2.75E-4,6.1846123
1692514060283,-3.321,-4.359,4.00395,0.132825,-0.0336875,6.536475
1692514060317,-3.5389502,-4.05495,5.8830004,0.132825,-0.0336875,6.536475
1692514060343,-3.6439502,-0.933,16.108051,-2.91995,-0.1078,5.6067
1692514060368,-4.9440002,-2.12805,21.87495,-1.9628125,0.1205875,4.5398374
1692514060398,-7.5790505,-3.9760501,30.652052,1.5087875,0.703725,1.5519625
1692514060428,-2.4859502,-2.4720001,25.225952,2.91555,0.834625,-0.3931125
1692514060456,0.95100003,1.062,11.78295,2.888875,0.4244625,-3.5501125
1692514060486,1.9750501,2.5770001,5.8969502,2.9775624,0.2844875,-4.31585
1692514060516,3.14295,4.9680004,1.6360501,2.6962376,-0.0306625,-4.937625
1692514060542,3.6790502,4.71495,0.61005,2.5834875,-0.190025,-4.990425
1692514060572,4.5600004,3.5629501,2.2470002,2.633125,-0.60101247,-4.936525
1692514060602,5.6280003,2.28795,5.313,2.7352874,-0.9409125,-4.8191
1692514060628,5.46495,2.01705,7.22805,2.678775,-1.9471375,-3.8572874
1692514060659,3.6100502,1.1550001,9.373051,2.4189,-2.4734874,-3.005475
1692514060688,2.69595,-1.36395,17.185951,2.04435,-2.816825,-2.1209376
1692514060718,1.422,3.6660001,16.53705,1.146475,-2.44475,-0.7882875
1692514060745,-1.3440001,3.42195,17.17605,0.6771875,-1.7569749,-0.35145
1692514060776,1.02705,-2.1010501,25.486952,0.147125,-0.229625,-0.0286
1692514060805,0.77805007,-1.0860001,12.324,0.074525,0.33605,-0.0336875
1692514060835,-1.87995,-2.19495,7.5340505,-0.264825,0.913825,0.4442625
1692514060866,-4.2109504,-4.8900003,6.426,-0.4709375,0.932525,0.8606125
1692514060893,-3.048,-6.0700502,7.7089505,-0.6105,0.8875625,1.2172875
1692514060921,-1.8079501,-6.51,3.4939501,-0.95975,1.0393625,1.99705
1692514060949,-2.69595,-6.66405,1.4470501,-1.774575,1.1518375,3.35115
1692514060984,-2.62905,-6.2760005,1.371,-2.2515626,0.97679996,4.009775
1692514061012,-2.70795,-4.7179503,-1.314,-3.17295,0.416625,5.081725
1692514061038,-3.7830002,-5.21295,-0.75405,-3.5850375,0.1079375,5.503575
1692514061065,-4.6420503,-4.05705,6.3780003,-3.947625,-0.19373749,5.78765
1692514061094,-4.9819503,-3.2910001,11.446051,-4.289175,-0.43725,5.947975
1692514061122,-1.7680501,-1.266,14.335051,-4.08375,-0.4728625,5.5319
1692514061153,-3.6820502,-1.0890001,18.138,-2.891075,-0.2946625,4.6965876
1692514061180,-3.6820502,-1.0890001,18.138,-2.891075,-0.2946625,4.6965876
1692514061210,0.55095005,-2.769,21.910952,2.1385374,0.393525,0.1078
1692514061237,-1.30095,0.36795002,16.63305,3.9980874,0.709775,-3.9135249
1692514061267,-0.087000005,3.0300002,13.453951,3.6367376,0.3438875,-5.7165623
1692514061299,3.9829502,3.17595,8.84895,3.24555,0.191125,-5.7327876
1692514061328,4.6990504,2.6470501,4.566,3.00245,0.11935,-5.6665125
1692514061356,5.1010504,1.34895,8.418,2.6538875,-0.0935,-5.4272623
1692514061383,4.926,1.6290001,8.03505,2.372425,-0.3826625,-4.9600377
1692514061417,5.62095,1.5670501,2.32095,1.7862625,-1.4442999,-3.5448875
1692514061442,5.958,-0.522,4.96605,1.5107125,-1.7763625,-2.8857124
1692514061472,4.3759503,-1.2420001,19.17,1.0659,-2.23245,-1.76385
1692514061500,0.012,2.9550002,15.000001,0.7717875,-2.2797499,-1.125025
1692514061530,-0.51105005,1.5310501,19.596,0.4255625,-2.0013125,-0.510675
1692514061559,1.968,-2.91,25.678051,0.0407,-0.6017,0.017324999
1692514061590,0.46905002,-0.65805006,13.102051,-0.0449625,0.59345,0.19607499
1692514061618,-2.388,-0.75795,3.07995,-0.136125,0.8173,0.4932125
1692514061645,-3.49305,-3.2620502,-0.41400003,-0.19813749,0.850575,0.834075
1692514061673,-2.73495,-7.1569505,3.3769503,-0.1997875,0.8446625,1.395625
1692514061702,-1.09695,-9.29895,10.024051,-0.321475,0.9318375,1.8401625
1692514061732,-3.9600003,-8.380051,4.1449504,-1.3666124,0.9568625,3.8872626
1692514061760,-4.8360004,-6.0319505,-0.81405,-2.1516,0.702625,5.0439124
1692514061788,-3.4810503,-6.1800003,-4.689,-3.2990375,0.170775,6.0896
1692514061817,-2.9550002,-6.7189503,-0.67695004,-3.7668126,-0.0301125,6.4461374
1692514061848,-4.23495,-3.96795,10.342051,-4.895275,-0.5044875,6.459475
1692514061886,0.80505,-4.84905,14.148001,-5.215375,-0.5641625,6.1527123
1692514061912,0.34995002,-6.7309504,19.278002,-4.3511877,-0.452375,4.9828625
1692514061939,-6.1069503,-3.5329502,29.968052,-0.5677375,-0.0650375,1.6113625
1692514061968,-2.1720002,-0.33495003,22.48995,2.649075,0.584925,-2.0810626
1692514061996,0.53205,1.1719501,11.580001,3.6328874,1.06645,-3.5595999
1692514062026,1.1040001,1.4470501,10.830001,4.1537375,1.492975,-4.8422
1692514062054,2.88,2.59605,6.8689504,3.970175,1.5311999,-6.27
1692514062084,3.62895,4.4040003,3.21195,3.557675,1.213025,-6.2049623
1692514062112,4.833,3.6210003,4.1119504,2.8567,0.3696,-5.4949126
1692514062142,4.51695,3.8100002,5.80095,2.657325,-0.121,-5.0868125
1692514062170,5.118,3.51795,7.9030504,2.476375,-1.172325,-4.2607126
1692514062199,4.87095,0.91605,7.0290003,2.4105124,-1.627725,-3.7863374
1692514062229,1.4770501,1.7299501,16.305,2.0602999,-2.0882125,-2.577025
1692514062254,1.8720001,2.6560502,18.24105,1.7037625,-1.9971875,-1.931325
1692514062290,1.386,-2.87205,21.45795,1.2600499,-1.6079249,-1.4122624
1692514062317,-0.33900002,-6.0820503,25.720951,0.3856875,-0.3359125,-0.7574875
1692514062346,-1.50705,-4.76805,18.68205,-0.0834625,0.216425,-0.267575
1692514062373,-0.91305006,-3.8749502,7.5660005,-0.62205,0.7110125,1.1006875
1692514062404,-0.37395,-3.9060001,0.052050002,-0.5929,0.70895,1.5904624
1692514062431,-1.96905,-5.4,-0.624,-0.976525,0.7077125,2.1770375
1692514062460,-2.3400002,-6.76695,3.9750001,-1.1188375,0.528825,2.581975
1692514062489,-2.9239502,-8.02995,8.66205,-1.3475,0.3268375,3.1876626
1692514062519,-2.9239502,-8.02995,8.66205,-1.3475,0.3268375,3.1876626
1692514062547,-3.2970002,-5.12895,0.60705,-2.5064874,-0.188925,5.3450375
1692514062579,-2.3830502,-6.8689504,5.81295,-2.8601375,-0.3982,5.3615375
1692514062606,-1.6170001,-3.93195,13.05405,-2.9838874,-0.488125,5.1998377
1692514062634,-3.6150002,-0.50205004,9.550051,-2.8953376,-0.6452875,4.5189376
1692514062664,-0.76905006,0.25995,15.328051,-2.1544874,-0.5071,3.6090999
1692514062693,-2.29695,-1.4310001,20.218052,-0.9659375,-0.1766875,2.398275
1692514062721,1.13505,-2.9970002,21.729,1.6677375,0.6936875,-0.4851
1692514062751,0.39495003,0.63405,14.275051,3.1538374,0.892925,-3.2533875
1692514062778,-1.452,3.55395,11.833051,3.13335,0.6472125,-3.873925
1692514062807,0.35205,5.313,9.588,2.891075,0.41085,-4.067525
1692514062834,2.9250002,5.3110504,4.43505,2.642475,0.362175,-4.3498125
1692514062867,3.3970501,3.8770502,3.76395,2.742575,0.3738625,-4.7306876
1692514062893,3.4039502,2.4480002,5.78205,2.88475,0.190575,-5.1126623
1692514062923,2.90595,1.55805,8.28405,2.87815,-0.7115625,-4.8992624
1692514062950,2.3029501,0.15195,6.9100504,2.1778624,-1.4188625,-3.322825
1692514062980,4.79505,0.58305,9.30105,1.6753,-1.481425,-2.4651
1692514063011,1.3069501,2.6230502,10.849951,0.81675,-1.3217875,-1.0342749
1692514063034,-0.88395005,0.112050004,16.594051,0.5460125,-1.22705,-0.4833125
1692514063059,1.2739501,-0.80895007,19.657951,0.3603875,-1.0241,-0.1005125
1692514063085,1.0870501,-0.31800002,14.670001,0.1835625,-0.610225,0.159225
1692514063114,1.2,-2.46495,13.159051,-0.229625,0.3565375,0.7404375
1692514063138,-1.00605,-3.6379502,13.252951,-0.3862375,0.55495,1.0808874
1692514063166,-1.8180001,-4.36095,11.12205,-0.5110875,0.581075,1.397825
1692514063193,-2.3850002,-4.9950004,7.1710505,-0.82995,0.6315375,2.04105
1692514063220,-2.8279502,-5.5939503,4.959,-1.0301499,0.73095,2.380675
1692514063247,-2.3110502,-6.2779503,4.75995,-1.4671249,0.8745,2.9957125
1692514063275,-1.69095,-5.1460505,1.8040501,-1.741025,0.8622625,3.3160875
1692514063302,-1.7890501,-2.8620002,-1.93095,-2.049025,0.7638125,3.6807375
1692514063329,-2.73495,-4.5880504,-0.46395,-2.5843124,0.293975,4.36865
1692514063358,-5.3029504,-3.8560503,8.44905,-2.843225,-0.0224125,4.7455373
1692514063388,-2.9020503,-2.9650502,16.326,-3.164425,-0.342375,5.2761497
1692514063410,0.19395001,-2.427,12.987,-2.6346376,-0.38953748,5.2097373
1692514063446,-0.52305,-5.4139504,21.72405,-1.2881,-0.0011,3.5849
1692514063474,-0.85995007,-4.7299504,21.456001,0.564575,0.4670875,-1.0115875
1692514063501,-1.674,-3.2380502,21.17295,0.6136625,0.3697375,-2.564925
1692514063530,-1.09305,1.81605,16.554,1.2474,0.3993,-3.6877499
1692514063560,2.121,6.1150503,6.2179503,0.96648747,0.42515,-3.9535375
1692514063591,4.263,4.9759502,1.95,1.3871,0.63208747,-4.772625
1692514063624,5.56995,2.3790002,4.43895,1.8255875,0.5259375,-5.0353875
1692514063653,6.42495,1.9879501,5.019,2.1448624,0.17173749,-4.99125
1692514063682,6.0750003,2.01705,0.99495006,2.2411125,-1.024375,-3.893725
1692514063707,4.20405,2.7970502,0.49005002,2.0505376,-1.66925,-3.0369625
1692514063737,2.9329503,2.4190502,11.508,1.6644375,-2.67575,-1.606825
1692514063764,2.976,1.8780001,16.879051,1.5774,-2.914725,-1.2258124
1692514063796,-0.042000003,1.416,22.25505,1.212475,-2.0439374,-0.92015
1692514063828,0.49305,-1.455,23.304,0.4334,0.0213125,-0.6609625
1692514063854,0.76605004,-0.87795,14.778001,0.0713625,0.8283,-0.3920125
1692514063880,-0.46095002,-1.32105,9.4129505,-0.2325125,1.3182125,0.018424999
1692514063906,-1.9540501,-1.96695,2.7970502,-0.4431625,1.4713875,0.5017375
1692514063935,-1.095,-5.74905,1.3399501,-0.5721375,1.2252625,1.2937375
1692514063962,-1.00395,-7.75995,4.8889503,-0.6100875,1.0998625,1.6289625
1692514063991,-1.6339501,-9.700951,5.7060003,-1.1540375,0.9372,2.999425
1692514064019,-2.49795,-8.75595,2.9670002,-1.76715,0.7368625,4.180275
1692514064048,-2.4550502,-6.6709504,0.693,-3.1669,0.0265375,6.1417127
1692514064076,-1.6020001,-5.505,-0.84705,-3.6757874,-0.32065,6.475425
1692514064105,-4.5270004,-3.59295,0.80100006,-4.0035872,-0.604175,6.4438
1692514064134,-8.04105,-1.7520001,16.29795,-4.2073627,-0.893475,5.6942873
1692514064163,-1.88205,-3.0919502,19.72005,-3.8643,-0.791725,5.2595124
1692514064194,-1.50705,-2.3050501,16.353,-0.8504375,0.087725,3.6433375
1692514064221,-4.3380003,-2.18295,20.352001,1.199825,0.71115,1.558425
1692514064249,-2.25795,-6.5610003,26.358002,2.72855,1.2309,-0.99825
1692514064277,0.57705003,-3.3390002,21.513,3.3078375,1.4782625,-4.43685
1692514064306,-0.76005006,0.79200006,13.686001,2.8727875,1.303775,-5.0848875
1692514064333,1.764,4.131,2.9580002,2.3538625,0.8482375,-5.1381
1692514064362,4.41195,4.57095,-1.0890001,2.1236875,0.63827497,-4.8576
1692514064389,7.1599503,3.4720502,1.74195,2.0488875,0.3056625,-4.45445
1692514064417,6.8749504,3.5989501,3.9460502,2.135375,-0.0891,-4.316125
1692514064446,5.99205,4.083,4.533,2.227225,-0.7679375,-4.036175
1692514064472,5.3500504,1.9210501,5.36595,2.33695,-2.3868625,-2.9957125
1692514064502,3.4639502,0.41805002,10.09095,2.3266375,-2.875675,-2.47555
1692514064538,1.26405,4.4440503,14.212951,1.860375,-2.794,-1.463825
1692514064551,0.48900002,4.98,13.01805,1.860375,-2.794,-1.463825
1692514064589,0.97200006,-1.2589501,27.052052,1.0060875,-1.31395,-0.798875
1692514064619,-0.64995,-2.18295,19.25805,0.5314375,0.4420625,-0.8446625
1692514064647,-0.48195,-2.4769502,17.097,0.5314375,0.4420625,-0.8446625
1692514064676,-0.74805003,-4.0279503,0.70500004,0.073699996,1.0301499,0.90639997
1692514064703,-2.016,-5.7640505,-3.2689502,-0.38953748,1.091475,1.6572875
1692514064734,-2.93595,-9.670051,0.68100005,-0.9997625,0.801075,3.0705125
1692514064758,-2.13105,-10.872001,7.3000503,-1.4254625,0.6655,4.0695877
1692514064786,-2.2750502,-9.4789505,9.658051,-2.1313875,0.5083375,5.5248876
1692514064815,-2.5789502,-6.1470003,3.0990002,-3.9039,-0.242,7.484125
1692514064841,-2.811,-4.47795,-3.3679502,-4.1992497,-0.52415,7.0657125
1692514064871,-7.8469505,-0.43800002,4.0680003,-3.6843126,-0.497475,5.2281623
1692514064900,-6.1770005,-0.85395,10.243951,-3.37205,-0.3722125,4.5775123
1692514064933,-4.4940004,-1.2589501,13.332001,-2.9327376,-0.146575,4.36755
1692514064959,-5.39895,-11.994,33.273003,-0.6059625,0.639925,3.791975
1692514064992,-1.7389501,-9.163051,32.25795,2.4905374,1.3266,-0.038225
1692514065017,-1.71,-2.0269501,18.117,2.7084749,1.293325,-2.4058375
1692514065047,-0.042000003,4.06605,7.8930006,2.051775,1.0274,-3.9312625
1692514065077,2.538,3.1920002,6.91905,2.0296376,0.7305375,-4.7784
1692514065109,2.8459501,3.55395,2.42205,2.446675,0.7447,-5.163675
1692514065131,1.52505,4.81995,1.4569501,2.5628624,0.533775,-5.207125
1692514065162,1.5589501,3.58995,2.2999501,2.5716624,0.1942875,-5.0094
1692514065190,5.20905,2.7949502,6.405,2.5958624,-0.411675,-4.4474373
1692514065219,5.0490003,3.5350502,5.7439504,2.6378,-0.6997375,-4.152775
1692514065248,4.8349504,2.6440501,6.1800003,2.611675,-1.11045,-3.6810124
1692514065278,6.4030504,3.15405,8.335951,2.321825,-2.0810626,-2.360875
1692514065308,-0.043950003,2.84295,14.212951,1.8605125,-2.4941125,-1.1935
1692514065338,-1.0180501,-0.61200005,23.55495,1.5929375,-2.363625,-0.747175
1692514065375,0.9979501,-2.295,18.126001,0.7671125,-0.83435,-0.2778875
1692514065404,-0.324,-3.37995,17.013,0.1832875,0.20693749,0.0438625
1692514065433,-2.66805,-4.0620003,12.571051,-0.736175,1.2423126,1.2057375
1692514065461,-2.6940002,-4.63605,6.867,-0.9802375,1.3145,1.7870874
1692514065492,-1.72695,-5.33295,2.28495,-1.1358875,1.3179375,2.288
1692514065520,-0.65895003,-6.2710505,0.57900006,-1.386825,0.8727125,3.263975
1692514065548,-0.19500001,-7.1470504,2.367,-1.5918375,0.72833747,3.871725
1692514065579,-1.3099501,-6.8650503,4.17105,-2.347675,0.21615,5.2954
1692514065607,-4.14405,-4.8040504,3.1999502,-3.23895,-0.6835125,5.929825
1692514065637,-4.1350503,-4.44495,4.46595,-3.4255376,-0.90543747,5.7061124
1692514065668,-2.7229502,-3.3750002,11.541,-3.3576124,-0.8578625,5.3691
1692514065704,-3.522,1.23195,12.625951,-2.5348125,-0.3331625,4.5024376
1692514065717,-3.6730502,0.58095,14.95005,-1.6311625,-0.0026125,3.669875
1692514065752,-2.2800002,-3.1879501,20.70195,0.906125,0.7112875,1.34915
1692514065786,1.3120501,-3.624,18.435001,1.9745,0.9647,0.0433125
1692514065814,-0.72405005,-0.74205005,16.941,2.5722125,1.000175,-1.217425
1692514065842,0.07005,0.86595005,16.73295,2.4479125,0.5080625,-2.855875
1692514065871,2.286,2.6850002,9.234,2.0934374,0.183975,-3.80215
1692514065898,2.45595,3.9750001,4.12605,2.08945,0.1456125,-4.2777624
1692514065932,2.70795,3.492,2.5170002,2.108425,0.0655875,-4.6355376
1692514065959,2.8200002,1.6680001,7.431,2.1184626,-0.3212,-4.7834873
1692514065989,2.124,1.54305,5.47095,1.9868749,-0.8738125,-4.1578627
1692514066016,1.9219501,1.215,3.6379502,1.7815875,-1.1077,-3.5534124
1692514066047,4.39305,2.8960502,9.61005,1.5305125,-1.2409375,-2.908125
1692514066076,0.10605001,5.091,12.477,1.1452374,-1.29855,-1.85185
1692514066104,-0.21900001,1.6680001,21.688051,1.0912,-1.271875,-1.5175875
1692514066132,1.3980001,-2.0299501,25.602001,1.1259875,-1.1273625,-1.3578125
1692514066164,2.0730002,-1.59405,16.522951,0.8955375,-0.20253749,-0.7975
1692514066194,1.2210001,-1.0030501,13.32705,0.32615,-0.0125124995,1.3925999
1692514066223,0.156,-1.21605,10.054951,0.2567125,-0.0658625,2.4424124
1692514066251,-1.0999501,-1.623,6.2970004,-0.219725,0.0273625,3.373975
1692514066284,-2.433,-3.35295,0.68895006,-0.2723875,0.1018875,3.5044625
1692514066308,-2.15805,-5.34495,-1.0819501,-0.3064875,0.20515,3.5635874
1692514066337,-1.6840501,-5.886,-0.17400001,-0.5957875,0.4882625,4.1108375
1692514066366,-2.67195,-5.682,-0.21795002,-0.636075,0.512875,4.968975
1692514066400,-4.02705,-5.4739504,-0.58095,-0.636075,0.512875,4.968975
1692514066428,-4.08195,-3.4819503,3.7720501,-2.1030624,0.152075,7.21655
1692514066452,-4.7310004,1.8040501,3.58995,-1.0342749,-0.0823625,7.641425
1692514066481,-4.326,-1.67505,13.444051,-0.6719625,-0.2239875,7.2582126
1692514066510,-1.7890501,-6.16095,25.065,-0.423225,-0.30745,6.545
1692514066540,-2.90895,-6.6060004,26.088001,1.2241625,-0.29095,2.87375
1692514066570,-1.81305,-4.84005,24.74505,2.6092,-1.083225,-0.765875
1692514066597,0.60105,-2.568,18.519001,2.4858625,-1.296075,-1.7923125
1692514066626,1.2210001,-0.29205,13.897051,1.94315,-0.975975,-2.1410124
1692514066656,2.01795,1.5409501,7.06995,1.0217625,-0.698225,-2.216225
1692514066682,3.2719502,1.59105,3.051,1.0773125,-0.6928625,-2.2881374
1692514066714,3.282,1.83,1.917,0.92895,-0.65381247,-2.6448126
1692514066741,4.22505,0.291,4.2720003,0.5361125,-0.6787,-2.8657749
1692514066770,5.5579505,-0.675,4.96605,0.6513375,-0.4079625,-3.399275
1692514066800,6.40605,-0.41895002,6.8190002,0.6281,-0.2767875,-3.7574625
1692514066831,7.3969502,2.7160501,11.97,0.1942875,-1.1886874,-4.2172623
1692514066859,4.63905,5.031,12.142051,-0.0218625,-1.668425,-4.2043376
1692514066886,2.67405,3.4009502,14.566951,-0.08965,-1.9042375,-4.1746373
1692514066919,3.1669502,-3.9829502,27.208052,0.191125,-1.4125375,-4.3071876
1692514066955,3.3319502,-0.81105006,11.613001,0.477125,0.115775,-1.84415
1692514066981,-1.3729501,0.41805002,5.8780503,0.5825875,0.6716875,0.573925
1692514067012,-6.62895,0.492,3.8080502,0.6523,0.804375,2.5650625
1692514067039,-3.9840002,-5.83995,10.177051,0.856075,0.6568375,4.624675
1692514067069,-1.3770001,-7.6450505,12.811951,1.19515,0.7425,8.959362
1692514067096,-2.9620502,-8.455951,7.0200005,0.70565,0.634425,10.657763
1692514067123,-3.7350001,-8.538,5.0809503,-0.1524875,0.8833,9.954038
1692514067153,-5.1670504,-7.03905,1.8330001,-1.7010125,0.89155,6.4823
1692514067186,-5.925,-6.1750503,-0.40905002,-2.2576125,0.90021247,5.5210376
1692514067211,-3.3450003,-5.56995,2.5410001,-3.0295374,0.551925,2.717825
1692514067237,0.087000005,-0.63600004,6.9409504,-3.2476125,-0.0290125,2.642475
1692514067268,-0.92295,4.767,6.0529504,-3.2469249,-0.046475,2.3876874
1692514067292,-3.015,-1.6510501,17.236052,-1.888975,0.220825,1.5808375
1692514067323,2.35605,-5.2390504,30.951002,-0.627,-0.110825,1.375275
1692514067354,1.63995,-0.41895002,15.748951,1.6253875,-0.583,1.06755
1692514067384,0.15405001,1.3420501,13.77,2.07735,-0.933625,0.616
1692514067413,3.3679502,-0.117000006,12.990001,2.036925,-1.4900875,0.1233375
1692514067442,5.70405,1.2870001,8.764951,1.94095,-1.4513125,0.3342625
1692514067471,5.61105,3.0559502,5.0280004,1.69235,-1.4839,0.7007
1692514067501,5.3050504,3.015,4.05195,1.55595,-1.6786,0.5506875
1692514067529,4.4359503,2.30205,5.5789504,1.49545,-1.9327,0.33715
1692514067558,2.877,1.8739501,7.7140503,1.155275,-1.969825,0.7365875
1692514067586,1.28295,2.86695,8.533051,1.1005499,-1.7180625,1.961025
1692514067616,-0.79305005,7.0290003,14.221951,3.314025,-1.0605375,8.45185
1692514067648,-9.43395,5.9280005,24.414001,4.274325,-0.26235,11.277613
1692514067675,-3.8929503,-1.23,28.929,3.8710375,1.2263625,8.473163
1692514067700,1.4989501,-2.60595,20.350052,2.9717875,1.2964875,4.890875
1692514067732,1.623,-1.302,12.429001,0.9769375,0.73768747,-0.880275
1692514067758,-0.15900001,-1.4650501,9.045,0.1447875,0.53955,-2.2793374
1692514067786,-0.094050005,-2.45805,4.8300004,-0.3768875,0.14025,-3.03875
1692514067817,0.33795002,-5.03805,2.50095,-0.72833747,-0.285175,-3.4483626
1692514067846,-0.36495003,-7.42995,0.39900002,-0.81785,-0.27225,-3.42815
1692514067875,-1.095,-10.003051,-1.24395,-1.3503875,-0.121825,-3.738075
1692514067902,-1.6339501,-9.76605,-1.00695,-1.9361374,0.051975,-4.2064
1692514067932,-3.3379502,-7.7569504,1.218,-3.77465,0.87945,-4.96595
1692514067960,-2.7439501,-4.866,2.4190502,-4.72395,1.428075,-4.69535
1692514067990,-3.04305,-2.2399502,3.4800003,-5.287425,1.87275,-3.897575
1692514068018,-2.1000001,1.4980501,13.7029505,-4.6044626,2.0840874,-1.7370375
1692514068045,-8.115001,-1.1179501,28.180052,-3.4764125,1.8308125,-0.7679375
1692514068076,-3.7350001,-3.7030501,38.26395,0.1978625,0.45265,1.28315
1692514068104,1.4080501,-0.28500003,28.251001,1.9958125,-0.466125,2.4825625
1692514068135,1.2070501,1.0000501,25.198952,1.9958125,-0.466125,2.4825625
1692514068163,0.80505,3.1639502,8.64,1.781175,-1.5159374,3.62505
1692514068193,1.37205,3.999,4.413,1.5544375,-1.7061,4.16185
1692514068220,2.3050501,4.01805,3.07995,1.4625875,-1.4911875,4.5914
1692514068250,5.8050003,2.9869502,6.3970504,1.3182125,-1.04335,5.357275
1692514068285,0.67800003,5.53095,5.3490005,1.31065,-1.0385375,5.91965
1692514068314,0.22305001,6.84495,1.5259501,0.88605,-0.5380375,7.192625
1692514068343,2.39895,5.2510505,4.866,-0.0089375,-0.2635875,7.5515
1692514068372,1.7809501,3.1590002,21.316952,-0.44,0.00605,6.5223126
1692514068400,-1.023,2.81205,20.098951,0.5688375,0.036575,5.2652874
1692514068430,-0.92505,0.25995,25.486952,0.209825,0.00275,2.4891624
1692514068458,0.30405003,-1.3470001,21.075,-0.5006375,0.073425,1.084325
1692514068488,2.1760502,-1.6800001,16.128,-1.07085,0.15895,-0.1431375
1692514068518,-0.58305,-2.05095,6.5839505,-1.6440874,0.1232,-1.7507875
1692514068546,-2.0689502,-4.2390003,3.1969502,-1.698125,4.125E-4,-2.107325
1692514068574,-1.1719501,-6.3619504,4.3099504,-1.6487625,-0.1148125,-2.3071125
1692514068603,-1.6980001,-8.016001,3.9199502,-1.6105375,-0.108625,-3.072575
1692514068632,-3.153,-8.51595,0.26505002,-2.249775,0.3425125,-5.4528375
1692514068656,-3.7759502,-8.03505,-2.2780502,-2.72085,0.8338,-6.7266374
1692514068684,-3.9430501,-6.972,-0.14295001,-3.1802375,1.546875,-7.798725
1692514068715,-5.35995,-6.2590504,3.93405,-3.9678376,3.1791375,-7.5829873
1692514068743,-3.79695,-5.0670004,7.1350503,-4.2860126,3.7651625,-6.7205873
1692514068773,-1.6380001,-2.13,11.722951,-3.6939375,3.5671625,-3.3774126
1692514068799,-2.26095,0.18795002,18.247952,-2.7698,2.8346999,-2.0301876
1692514068829,-1.0519501,-0.85905004,25.288052,-0.2495625,0.5564625,-0.0037125
1692514068858,-1.52295,0.60195005,27.55005,0.9392625,-0.6637125,0.961125
1692514068886,2.66895,1.8970501,16.91505,1.8063375,-1.666775,1.948375
1692514068916,0.87195003,2.90805,12.74295,2.3615625,-2.6082375,3.540625
1692514068945,0.06705,2.49795,9.217051,1.832875,-2.2702625,4.0588627
1692514068973,0.89805007,2.2999501,6.88605,1.343375,-1.8995625,4.5137124
1692514069002,3.177,3.01305,4.011,1.3066624,-1.6819,5.262675
1692514069034,4.4929504,3.3240001,4.0279503,1.23145,-1.28975,5.60175
1692514069061,2.8560002,4.119,5.70795,1.276825,-1.2915375,5.90425
1692514069090,2.6500502,4.67205,6.81195,1.1452374,-1.0052625,6.3064375
1692514069118,3.25305,2.3830502,8.568001,1.6071,-0.9596125,6.3410873
1692514069150,2.87505,0.16695,16.281,1.8975,-0.9482,5.6703625
1692514069178,1.9420501,0.50895,21.19305,1.5466,-0.7689,3.7063124
1692514069205,-0.41805002,0.86100006,19.21305,0.86845,-0.6326375,2.6764374
1692514069246,-0.20895001,-2.29005,18.768002,-0.4439875,-0.1742125,0.669075
1692514069270,-0.99000007,-2.295,14.304001,-0.8108375,0.086625,-0.238425
1692514069297,-1.8700501,-4.15005,11.118001,-1.2511125,0.4541625,-1.770175
1692514069324,-0.91995007,-5.2870502,6.6870003,-1.0333124,0.520025,-2.438425
1692514069349,-0.88695,-5.28,3.1560001,-1.2241625,0.70565,-3.869525
1692514069454,-3.2760003,-6.91305,1.03995,-2.288,1.70885,-7.4069877
1692514069485,-3.2920501,-7.2259502,2.32305,-2.968075,3.215025,-8.478112
1692514069516,-2.838,-7.1520004,5.9880004,-3.4986875,4.1105623,-6.71935
1692514069547,-6.7560005,-2.3100002,10.005,-3.5158749,4.108775,-5.5606375
1692514069572,-4.53195,-2.17995,17.31195,-2.44475,2.9579,-2.7050376
1692514069600,-1.45605,-3.0900002,23.043001,-1.398925,1.991825,-1.199275
1692514069628,-2.29905,-2.2110002,24.714,-0.2316875,0.88275,0.25753748
1692514069656,2.3719501,-2.3449502,21.448952,1.4856875,-1.3024,2.1844625
1692514069685,2.832,-1.1010001,15.98595,1.7648125,-2.0667624,2.723875
1692514069715,2.2099502,2.3449502,12.37005,1.5389,-1.8871875,3.5233
1692514069743,3.37995,6.22305,5.3629503,1.313675,-2.3159125,3.9435
1692514069773,5.3760004,4.7790003,3.4720502,1.226775,-2.1575124,5.5411124
1692514069802,5.5609503,2.9940002,4.6639504,1.4529625,-2.337225,6.6958375
1692514069830,4.3830004,2.9269502,7.9840503,2.1126876,-2.526975,8.073037
1692514069860,3.9430501,3.2040002,6.6460505,2.1126876,-2.526975,8.073037
1692514069888,2.7820501,2.5840502,4.21395,2.12795,-2.020425,8.023538
1692514069915,2.7510002,3.7360501,9.64305,1.965425,-1.4518625,6.2514377
1692514069944,1.70895,3.8820002,18.789001,1.959375,-1.3220625,4.8846874
1692514069973,-0.30495003,0.54300004,23.05005,1.522125,-0.78485,2.2598126
1692514070003,0.28305,-2.733,21.559052,0.97583747,-0.3364625,0.906675
1692514070030,0.096,-3.6910503,13.73595,0.2660625,0.1211375,-0.34814999
1692514070059,-2.5240502,-4.69605,5.56395,-1.1092125,0.6472125,-2.0414624
1692514070088,-4.566,-6.1849504,8.89605,-1.565575,0.6886,-2.5007124
1692514070116,-3.24195,-7.8919506,7.55595,-1.47675,0.7932375,-3.8462875
1692514070144,-3.4650002,-8.86095,3.5130002,-1.2912625,1.094775,-5.31795
1692514070174,-2.028,-10.222951,0.39705002,-2.2847,2.2251625,-8.5052
1692514070202,-1.23405,-9.450001,-1.04295,-2.5793624,2.9139,-9.696637
1692514070231,-3.9529502,-7.2619505,-1.0510501,-2.1187375,2.9621625,-10.109412
1692514070259,-5.7190504,-3.73095,4.3320003,-0.84328747,1.6732374,-9.251275
1692514070287,-5.0950503,-2.9650502,11.532001,-1.0605375,1.694,-7.7339625
1692514070316,-3.1390502,0.423,13.116,-1.9226625,2.1000376,-3.654475
1692514070344,-5.9880004,-0.012,22.303051,-1.1892375,1.5277625,-1.6022875
1692514070373,-5.202,-1.16505,26.128052,1.0627375,-0.5275875,1.6215374
1692514070403,0.28305,-0.36600003,18.646051,1.837275,-1.485,2.9750874
1692514070428,1.01505,1.6390501,11.344951,2.1456876,-2.093575,4.0235248
1692514070459,0.67800003,3.8749502,10.075951,1.7617875,-2.483525,4.744575
1692514070486,2.6119502,4.992,6.0529504,1.4251875,-2.0656624,4.8505874
1692514070513,6.3079505,3.2760003,4.73595,1.053525,-1.0313874,5.7150497
1692514070539,7.8469505,1.5649501,8.87205,1.05765,-1.372525,6.3866
1692514070570,5.98395,1.3110001,9.523951,1.1749375,-2.1212125,7.5387125
1692514070598,2.72895,2.01495,9.121051,1.248225,-2.535775,8.346525
1692514070628,2.9610002,0.061950002,8.31,1.4273875,-2.6228125,8.1974745
1692514070656,1.5469501,2.1060002,11.44095,1.3684,-2.2540374,6.895075
1692514070686,-0.86805004,1.4140501,21.802952,1.172325,-1.7967125,5.487075
1692514070712,-0.09195001,-1.8930001,25.64895,0.8793125,-1.323575,3.8413374
1692514070742,0.24900001,-2.6590502,20.118,9.625E-4,-0.24419999,0.752125
1692514070770,0.08205,-2.80305,9.739051,-0.6887375,0.4037,-1.7901125
1692514070799,-1.7989501,-1.7260501,3.8770502,-1.00045,0.5894625,-2.529175
1692514070830,-2.52195,-3.0660002,2.091,-1.1521125,0.6386875,-3.0567625
1692514070858,-2.4469502,-4.87605,2.0389502,-1.25895,0.79461247,-4.6002
1692514070888,-3.4380002,-7.1610003,0.25305,-1.35355,1.0637,-6.0894623
1692514070916,-2.9950502,-8.29605,1.0170001,-1.805375,2.0922,-9.4237
1692514070944,-2.5840502,-7.4680505,3.69495,-2.1819875,2.8532624,-10.716475
1692514070972,-3.8449502,-6.6730504,1.3399501,-3.1139624,4.04635,-9.800862
1692514071002,-5.808,-6.4860005,4.104,-3.4159124,4.112075,-8.143437
1692514071028,-4.91505,-4.11705,12.336,-3.4541376,3.6157,-4.706075
1692514071058,-6.3300004,-1.43805,10.644,-3.053325,3.1249626,-3.0122125
1692514071088,-5.808,-1.812,21.043951,-2.2264,2.42495,-1.53395
1692514071118,-2.23005,-4.14795,26.329052,-0.069025,0.6224625,0.8540125
1692514071142,-0.99405,-2.8510501,25.522951,0.793925,-0.3658875,1.7554625
1692514071171,-0.57105005,1.4760001,17.68605,1.5912875,-2.101,2.7715874
1692514071203,-0.50595003,4.9110003,9.768001,1.550725,-2.5851374,3.07835
1692514071234,2.3149502,5.715,4.506,1.1870375,-2.8507874,4.547125
1692514071262,3.8110502,5.82105,3.1369503,1.0624624,-2.7512374,5.8136373
1692514071292,4.7779503,5.0809503,4.248,0.8226625,-2.2297,6.775175
1692514071320,5.2110004,3.42705,9.38895,1.0115875,-1.86395,8.629912
1692514071350,3.9589503,2.778,8.226001,0.0793375,-0.8536,9.299262
1692514071378,3.07095,1.93605,7.8139505,-0.38005,-0.4431625,8.808525
1692514071408,2.80605,1.2730501,13.63605,-0.260975,-0.4706625,7.8131623
1692514071437,-0.022950001,1.77795,19.38795,0.3012625,-0.7860875,5.3757
1692514071466,-1.2910501,-1.5340501,23.66295,0.197725,-0.6903875,3.9950626
1692514071494,-0.86505,-5.60295,22.31805,-0.50215,-0.099825,1.2502875
1692514071520,-2.1769502,-4.95195,17.58105,-0.980925,0.27101249,-0.17407499
1692514071551,-2.39505,-4.38,9.294001,-1.8409874,0.7220125,-2.8092625
1692514071574,-1.15995,-4.04505,4.13805,-2.0406375,0.833525,-4.08045
1692514071606,-1.07805,-3.8800502,3.1660502,-2.0406375,0.833525,-4.08045
1692514071637,-3.3640501,-5.946,0.36105,-1.837275,1.3030875,-7.645962
1692514071666,-3.9840002,-7.3050003,2.2399502,-1.7499624,1.6020125,-8.823375
1692514071695,-4.0420504,-7.11105,1.6360501,-1.738,2.067725,-9.850637
1692514071723,-2.871,-6.0340505,-3.28095,-2.096325,3.2533875,-9.867963
1692514071752,-5.5140004,-6.0820503,-1.1850001,-2.7757125,3.9276874,-7.270725
1692514071786,-3.9480002,-1.491,14.718,-3.1890376,4.1789,-6.1028
1692514071815,-5.9710503,-0.62895006,11.166,-3.3270874,3.90115,-3.0735376
1692514071844,-4.64895,1.3399501,17.004002,-2.2897875,2.89245,-1.533675
1692514071872,-5.28105,-0.19605,20.865002,0.5027,0.09735,1.375
1692514071902,-3.7489502,-3.0679502,26.044052,1.3013,-0.9559,2.5708375
1692514071930,-2.1649501,-2.9200501,25.546951,1.6413375,-1.6732374,3.42375
1692514071960,-0.47505003,0.97395,17.338951,1.3717,-2.3546875,3.8666375
1692514071989,4.99095,3.216,4.1620502,0.616,-2.552,4.1184
1692514072018,7.8079505,2.93895,0.92295,0.328075,-2.5749624,4.7672625
1692514072046,7.5379505,2.5170002,3.79605,0.1654125,-2.6192374,5.6839747
1692514072076,6.3960004,3.3120003,6.3949504,0.101475,-1.241075,7.703025
1692514072104,5.22795,3.7020001,7.2019506,0.3174875,-1.4034625,9.1344
1692514072136,0.37605003,3.8530502,6.60795,0.7607875,-2.10045,9.93795
1692514072160,1.3909501,4.30305,11.65095,0.0537625,-1.427525,8.591963
1692514072190,0.64695,2.1750002,17.178001,0.6105,-0.64515,4.664
1692514072221,-1.00395,-2.661,26.617052,0.7704125,-0.438075,2.7460124
1692514072251,-1.2409501,-5.3419504,25.396051,0.5773625,-0.117837496,1.226225
1692514072279,-3.5680501,-4.32,14.62905,-0.4239125,0.616275,-1.2483625
1692514072306,-3.3019502,-3.4630501,3.7879503,-0.9526,0.88275,-2.336125
1692514072337,-1.1910001,-6.5200505,3.4030502,-1.4980625,1.1771375,-4.0800376
1692514072365,-1.2940501,-8.160001,6.5890503,-1.6740625,1.2959375,-4.8736873
1692514072394,-1.6980001,-8.911051,5.6269503,-1.7738875,1.422025,-5.836325
1692514072424,-3.52905,-7.12095,-0.73695004,-2.1522875,1.9613,-8.523075
1692514072450,-3.4410002,-6.23295,-1.5319501,-2.5254624,3.18175,-10.650337
1692514072479,-3.5269501,-5.7829504,-0.079050004,-2.70105,3.6911874,-10.058949
1692514072507,-4.9729505,-4.7970004,3.5490003,-2.904275,4.0005627,-8.678312
1692514072537,-3.8050501,-4.71495,10.42395,-3.1516376,4.07385,-5.4839125
1692514072568,-4.08495,-3.7740002,16.59,-2.885575,3.6936624,-3.7332625
1692514072596,-8.709001,-2.3430002,24.108002,-1.231175,2.0292249,-0.94765
1692514072627,-8.53905,-0.75105006,28.225052,-0.1475375,0.90227497,0.135575
1692514072654,-3.8929503,1.4929501,19.969051,1.3745875,-0.9818875,2.496725
1692514072683,-0.34095,3.147,12.283051,1.608475,-1.476475,3.5919125
1692514072713,2.607,4.73595,5.68695,1.3821499,-1.8304,4.724225
1692514072738,4.704,5.0070004,2.14905,1.1495,-1.901625,5.00555
1692514072771,5.9010005,3.2359502,3.4819503,0.76559997,-1.2518,6.05
1692514072800,6.2410502,2.982,8.299951,0.6785625,-1.6460125,6.672875
1692514072828,6.94395,3.9850502,5.53095,0.7514375,-1.4037375,8.98975
1692514072857,6.08295,5.07105,-0.47595003,0.97267497,-1.4918749,10.074762
1692514072884,-0.68100005,5.2870502,9.27,0.794475,-1.3432375,10.5457
1692514072912,-3.3310502,1.21305,25.366951,0.5248375,-0.3344,7.9041877
1692514072941,-0.29805002,2.3830502,16.420052,1.0297375,-0.113437496,5.1848497
1692514072971,-3.00705,-1.4620501,24.37095,0.6730625,0.2292125,2.682075
1692514073002,-1.11195,-5.42595,21.733051,-0.7327375,0.9161625,-0.8525
1692514073025,-2.7469501,-4.59495,13.401001,-1.2420375,0.9310125,-1.8079875
1692514073057,-3.153,-3.08295,2.46495,-2.0169876,0.72421247,-3.3803
1692514073086,-1.8679501,-5.598,4.8970504,-2.141425,0.67815,-4.2598877
1692514073116,-0.252,-7.7650504,10.111951,-1.734425,0.7412625,-6.5005875
1692514073142,-0.252,-7.7650504,10.111951,-1.734425,0.7412625,-6.5005875
1692514073173,-3.9510002,-5.68695,0.39405003,-1.3283875,0.804375,-8.564325
1692514073203,-3.18,-4.809,-1.659,-1.624975,1.6700749,-9.819975
1692514073231,-3.5800502,-5.3419504,1.9020001,-1.891175,2.584725,-8.272275
1692514073262,-4.23105,-5.2819505,6.5170503,-2.0865624,2.9444249,-7.04275
1692514073292,-4.21395,-4.41405,8.49705,-2.2743876,3.1713,-5.9643373
1692514073317,-5.7790504,-1.1560501,13.95705,-2.0587876,2.7355626,-3.072575
1692514073349,-5.7790504,-1.1560501,13.95705,-2.0587876,2.7355626,-3.072575
1692514073377,-1.9470001,-1.9579501,20.236952,-0.091299996,0.649275,0.551375
1692514073407,-1.2360001,0.47100002,19.416,0.5522,-0.0570625,1.4771625
1692514073435,-1.83,3.3460503,15.8209505,1.180575,-1.2871375,2.392225
1692514073465,1.3960501,4.6530004,9.559051,1.241075,-1.7722375,2.82535
1692514073493,4.96005,4.1280003,6.3520503,1.0137875,-1.6847875,3.5470874
1692514073522,8.0140505,2.11305,4.4830503,0.28187498,-0.821425,5.5840125
1692514073554,6.6790504,1.5169501,6.18405,0.4005375,-0.96415,7.36175
1692514073582,3.3630002,3.2569501,6.43305,0.555225,-0.4398625,8.623312
1692514073612,3.6790502,2.8170002,5.2579503,-0.23127499,0.2035,10.04795
1692514073637,3.2290502,1.5409501,12.154051,-0.5902875,0.374825,9.145812
1692514073666,2.7480001,2.1340501,17.64495,-0.3345375,0.198,7.5164375
1692514073695,-0.21900001,2.2470002,17.650051,0.4090625,-0.247775,4.2101126
1692514073725,-0.025050001,-4.36095,26.302952,0.270875,-0.1458875,2.6285875
1692514073759,0.132,-6.16305,23.553001,-0.5259375,0.4236375,-0.2468125
1692514073786,-0.95595,-4.071,13.404,-1.1215875,0.6936875,-1.49545
1692514073814,-1.8390001,-3.2070003,4.071,-2.122725,0.9345875,-3.3961124
1692514073841,-0.93000007,-4.22205,0.96105003,-2.2532125,0.9681375,-4.067525
1692514073872,-1.8390001,-6.0030003,-0.35205,-1.6578375,0.6681125,-4.74045
1692514073897,-3.357,-7.90605,-0.51405,-1.4832125,0.9411875,-6.8182125
1692514073927,-4.4220004,-8.7289505,-0.060000002,-1.8654625,1.5593874,-8.783775
1692514073958,-4.4029503,-7.9560003,0.744,-2.8978124,3.5217874,-11.73645
1692514073986,-3.4050002,-6.9649506,-0.64395005,-3.4236126,4.29605,-10.890825
1692514074014,-3.9480002,-5.44995,2.8519502,-4.0519876,3.92315,-6.830725
1692514074043,-3.6390002,-3.41805,11.75895,-4.1322875,3.2022374,-5.0939627
1692514074072,-6.2719502,-1.9290001,19.615051,-3.147925,2.57235,-2.1828125
1692514074101,-6.9349504,-2.12295,25.188002,-1.88705,1.712425,-1.0500875
1692514074131,-2.538,-2.7450001,25.498951,1.09395,-0.69836247,1.4664375
1692514074159,-1.0900501,0.68100005,18.70095,1.933525,-1.709675,2.705725
1692514074188,-0.62100005,3.1920002,12.774,2.1704376,-2.3783374,3.5894375
1692514074217,3.37995,5.184,6.2440505,1.695375,-2.9359,4.6915
1692514074248,5.8840504,4.96605,2.6590502,1.3820125,-2.9715126,5.44005
1692514074277,8.389951,2.17995,7.1899505,1.037025,-2.913625,7.106275
1692514074305,8.10795,0.52095,10.830001,1.0362,-2.437875,8.198025
1692514074333,4.5220504,2.4820502,9.559051,1.254,-1.610675,10.052075
1692514074363,5.72805,1.3450501,7.6090503,1.35135,-2.1610875,10.00835
1692514074391,3.76605,0.018000001,13.566001,1.4097875,-2.1945,7.6630125
1692514074420,1.3480501,0.33705002,21.205051,1.3453,-2.0097,6.5104876
1692514074450,1.5780001,-0.76305,18.95895,0.69905,-1.2489125,3.4178374
1692514074475,-0.324,-2.5540502,22.94205,0.32065,-0.7371375,1.813075
1692514074505,-2.5069501,-1.194,14.437951,0.0312125,-0.2385625,0.3388
1692514074535,-1.1359501,-0.837,7.728,-0.3405875,0.2404875,-0.9079125
1692514074566,0.73800004,-2.3740501,1.8280501,-0.692725,0.722975,-2.9830625
1692514074595,0.78105,-5.09805,0.33,-0.898425,0.4827625,-4.055425
1692514074623,-0.94200003,-7.0800004,2.7450001,-0.9920625,0.3683625,-4.220975
1692514074650,-4.2450004,-8.245951,2.5099502,-1.3266,0.2325125,-6.627225
1692514074679,-3.9790502,-8.18595,0.47595003,-1.8381,0.8184,-9.564363
1692514074708,-3.15105,-7.9900503,1.3279501,-2.9511626,2.593525,-12.929538
1692514074736,-4.518,-6.8770504,3.729,-2.20385,2.6378,-10.849987
1692514074766,-6.5119505,-4.8130503,4.39905,-2.3571625,2.6807,-8.290425
1692514074794,-4.7400002,-4.026,5.8950005,-2.9022124,1.689875,-4.3318
1692514074825,-4.8889503,-2.5420501,14.46405,-2.490675,1.8453875,-2.4806376
1692514074854,-3.6750002,-4.8130503,25.951052,-1.0901,1.3611125,0.0969375
1692514074882,-4.9300504,-4.0230002,28.372952,-0.18493749,0.668525,0.904475
1692514074910,-1.143,-3.6430502,24.675001,1.5433,-1.3915,2.02565
1692514074941,-3.4309502,1.9210501,18.861,1.8627125,-2.1698875,2.4154625
1692514074969,-5.4250503,4.638,15.043051,1.807575,-2.5768874,2.7556374
1692514074998,0.63195,4.09695,5.181,1.3858625,-2.61415,4.0194
1692514075028,5.4409504,2.66595,0.95205003,1.120075,-2.309175,5.0782876
1692514075054,8.826,1.5670501,2.604,0.616,-1.7138,6.6886873
1692514075083,9.538951,1.488,2.8240502,0.616,-1.7138,6.6886873
1692514075112,11.632951,2.50095,4.638,0.54202497,-2.0713,8.6284
1692514075140,8.6959505,0.93000007,7.7830505,0.3051125,-1.2372249,10.61555
1692514075170,7.8439503,0.75105006,9.0709505,0.3051125,-1.2372249,10.61555
1692514075201,-1.1689501,2.661,19.026001,-0.8668,0.02035,10.0936
1692514075227,-0.37005,0.109050006,30.559052,-0.81785,0.091299996,7.39915
1692514075260,-1.0330501,-1.1530501,21.07995,-1.2076625,1.01475,1.4840375
1692514075288,-3.7399502,-1.4430001,16.924952,-1.37005,1.2727,-0.8811
1692514075325,-2.0640001,-2.5200002,5.5999503,-1.4377,1.47895,-3.48755
1692514075337,-2.0640001,-2.5200002,5.5999503,-1.4377,1.47895,-3.48755
1692514075374,-2.703,-4.428,-0.744,-0.8679,1.3193125,-5.7501125
1692514075403,-3.2989502,-6.9199505,-1.20105,-0.8063,1.328525,-6.46085
1692514075433,-3.4980001,-9.15495,1.3470001,-0.4565,1.1023375,-7.0719
1692514075461,-3.22305,-10.134001,2.115,-1.2511125,1.9562125,-10.360075
1692514075491,-4.12095,-7.7550006,-1.5010501,-2.014925,2.96945,-11.639375
1692514075519,-3.4669502,-7.31895,-1.5010501,-3.437775,4.44125,-10.328175
1692514075550,-4.11105,-3.35295,10.762951,-3.9078875,4.5984125,-8.47385
1692514075578,-3.7470002,0.55005,12.5130005,-3.9727874,4.093925,-4.867225
1692514075606,-1.7050501,2.67105,15.073951,-2.9148624,3.1667626,-3.112175
1692514075636,-2.232,-2.1760502,25.45605,0.5405125,0.470525,-0.0484
1692514075663,1.6849501,-4.34205,30.669,1.8742625,-0.8085,1.2783375
1692514075692,0.72105,0.0,18.141,2.724425,-2.551725,2.8822749
1692514075722,0.10605001,2.319,13.29405,2.44035,-2.9467626,3.0870125
1692514075752,2.43195,3.8050501,7.6729503,1.646425,-2.9869125,4.0143123
1692514075779,3.0000002,4.605,4.39395,1.4260125,-2.7966125,5.0898376
1692514075810,4.14405,4.26195,6.73995,1.3421375,-2.57785,6.3262377
1692514075839,5.52495,2.97495,10.33695,0.71775,-1.7081625,7.9123
1692514075866,5.604,3.7720501,7.52505,0.569525,-1.44595,8.436725
1692514075897,3.5170503,3.3670502,4.1790004,0.053075,-0.8870125,8.249725
1692514075922,3.1260002,0.68895006,14.743951,0.51865,-0.8069875,7.5967374
1692514075952,3.423,2.9200501,15.46905,0.657525,-0.33935,5.5471625
1692514075982,-0.34095,1.2559501,18.52605,0.6512,-0.4021875,4.0436
1692514076010,-2.1360002,-2.7160501,23.22195,0.013062499,-0.0551375,1.405525
1692514076039,-0.14505,-3.07605,18.954,-0.1379125,0.22659999,0.2058375
1692514076069,1.41495,-2.6569502,9.897,-0.9482,0.7385125,-2.0112126
1692514076102,-0.92505,-3.17595,-3.0540001,-1.292775,0.7965375,-2.7080624
1692514076133,-3.96495,-6.0270004,-1.5870001,-1.447325,0.71389997,-3.0633626
1692514076164,-3.07395,-8.689051,5.8560004,-1.63955,0.5146625,-3.9749875
1692514076193,-1.7389501,-8.431951,6.3520503,-2.5795,1.4804626,-8.235012
1692514076222,-3.61995,-6.91305,1.5139501,-3.0976,2.4861374,-10.596163
1692514076247,-4.75995,-6.4819503,-1.8790501,-3.349775,3.252975,-11.18865
1692514076278,-5.4900002,-7.5730505,2.53395,-3.3543124,3.58765,-8.35395
1692514076307,-2.49,-3.8389502,13.135951,-3.3840125,3.6037376,-6.45095
1692514076337,-3.4309502,-0.63405,11.644051,-2.9748125,3.5014374,-3.281575
1692514076368,-2.94,2.0320501,16.948952,-0.84645,1.729475,-0.851125
1692514076394,-2.2009501,0.36795002,19.372952,0.36107498,0.5237375,0.322575
1692514076424,1.4959501,-1.6990501,20.427,1.3157375,-0.5467,1.6000875
1692514076454,0.57705003,-1.194,14.611951,2.046,-1.9204625,3.5613875
1692514076482,-1.1550001,0.03795,12.448951,1.8937875,-2.26655,3.771625
1692514076512,0.52005005,3.3979502,10.074,1.573,-2.4140875,3.6498
1692514076541,2.8819501,4.9680004,5.7460504,0.98285,-1.5923874,3.7270749
1692514076569,3.7680001,4.02105,5.8039503,0.9021375,-1.5725875,4.468475
1692514076598,3.2650502,3.3960001,9.17205,1.182225,-0.65381247,6.896175
1692514076640,2.0040002,4.68405,10.29195,1.657425,-0.9279875,8.315038
1692514076668,0.063,3.8359501,9.265051,1.275725,-1.040325,7.91615
1692514076695,3.28395,2.86905,18.739052,0.6155875,-0.83325,5.7564373
1692514076723,4.809,-0.90705,23.212952,0.657525,-0.6615125,4.3239627
1692514076751,3.7870502,-1.6870501,20.07195,0.45374998,-0.504625,2.2837374
1692514076779,1.1400001,-0.031050002,13.588051,-0.022,-0.5443625,1.6990875
1692514076810,-0.81000006,-0.37800002,5.9830503,-0.5093,-0.570625,1.2739375
1692514076837,-2.7510002,-7.0350003,9.85095,-0.966075,-0.3529625,0.1821875
1692514076864,-1.3609501,-7.3219504,10.408951,-0.7269625,-0.1188,-0.8133125
1692514076893,-1.0489501,-7.1590505,7.2850504,-0.782925,0.1769625,-2.338875
1692514076920,-1.7890501,-7.5589504,1.5340501,-2.2196624,0.968,-6.9069
1692514076951,-2.33205,-7.4700003,0.40605003,-2.0307374,1.276825,-10.465125
1692514076982,-5.09205,-6.3120003,-0.024,-2.5306876,2.0983875,-11.117838
1692514077011,-8.137051,-4.809,0.42105,-3.2682376,3.372325,-9.691962
1692514077040,-3.58695,-6.78105,6.6150002,-3.46775,3.6691875,-7.67525
1692514077070,-4.1520004,-2.1990001,14.275051,-3.096225,3.8616874,-3.46885
1692514077096,-6.2650504,2.4480002,10.431001,-2.26435,3.460325,-2.0323875
1692514077128,-4.70205,-1.0339501,21.990002,-1.297175,2.6156626,-1.0390875
1692514077155,-0.63795,-2.91,29.284952,0.8641875,0.5891875,0.9823
1692514077185,-0.28095,1.7179501,15.595951,1.557325,-0.322025,1.9471375
1692514077213,-3.4290001,5.57595,7.5390005,1.5129125,-1.3316875,2.8655
1692514077242,-1.5109501,4.7460003,8.83905,1.0406,-1.29085,3.329425
1692514077271,3.1309502,3.762,7.0870504,1.0228626,-1.5027375,5.4368873
1692514077301,4.8120003,4.1140504,5.36595,1.0242375,-1.2975875,6.489175
1692514077327,4.94805,4.1929502,5.7390003,1.0033375,-1.2241625,6.7898874
1692514077357,4.22295,2.9670002,8.913,0.9774875,-1.5653,7.8813624
1692514077385,2.7120001,2.53695,10.665001,0.641025,-1.404425,8.409087
1692514077413,3.1240501,1.62705,7.149,-0.03135,-0.67595,7.7959747
1692514077441,5.0940003,1.6200001,16.216051,0.2935625,-0.6183375,6.6181498
1692514077471,3.0859501,0.076050006,16.551,0.2783,-0.704825,4.2461376
1692514077503,-2.19405,-2.367,23.148,0.0749375,-0.7110125,3.244725
1692514077531,-3.0310502,-4.794,24.80895,-0.672925,-0.439725,1.0624624
1692514077558,-0.822,-3.4609501,13.861051,-0.7742625,-0.163625,-0.541475
1692514077588,0.82095003,-2.77605,1.4640001,-0.3713875,0.313775,-3.5726626
1692514077616,-0.46095002,-4.25295,-1.4500501,-0.504625,0.4569125,-4.29495
1692514077646,-1.53795,-6.228,1.0570501,-0.4063125,0.38279998,-4.723125
1692514077681,-3.6130502,-8.722051,3.6850502,-0.9821625,0.5168625,-6.4719872
1692514077708,-4.23495,-7.6189504,4.71495,-2.3881,2.0260625,-10.549413
1692514077735,-4.0939503,-6.5179505,1.44,-2.975225,3.0091875,-11.045925
1692514077763,-3.5170503,-7.0609503,1.06005,-3.3154,3.6312375,-9.799487
1692514077790,-3.4050002,-6.72795,4.0800004,-3.4255376,3.8413374,-7.7862124
1692514077816,-4.8840003,-2.1370502,12.40305,-3.39625,3.7349124,-4.4892373
1692514077844,-6.4540505,1.52205,13.104001,-3.1004875,3.401475,-3.2478874
1692514077872,-5.23605,1.14795,16.221,-1.17315,1.8086749,-0.82115
1692514077900,-2.5740001,-4.1740503,25.60395,0.097075,0.7486875,0.6840625
1692514077930,2.09505,-5.1600003,25.83105,1.5879875,-1.0129625,3.2124126
1692514077957,2.334,-2.2810502,16.219051,1.6625125,-1.71875,3.5303125
1692514077986,2.2459502,1.2420001,9.0379505,1.4438875,-2.3230624,3.38415
1692514078017,3.31605,2.91195,4.65,0.80189997,-2.316325,3.5248125
1692514078046,4.16505,3.7210503,2.2399502,0.6166875,-1.33265,4.1947126
1692514078074,4.491,3.6739502,5.2510505,0.6941,-1.3402125,6.5605373
1692514078102,5.6970005,3.8479502,13.356001,0.97583747,-1.962125,7.5972877
1692514078132,6.4510503,2.4739501,9.109051,0.02035,-0.9502625,9.517612
1692514078161,2.14695,2.52195,6.8760004,-0.50888747,-0.344025,9.372413
1692514078197,0.06705,4.31295,17.01795,0.1428625,-0.75515,7.1105375
1692514078225,-0.42000002,2.4820502,16.788,0.183975,-0.7942,5.5823627
1692514078254,-1.9930501,-1.14405,20.697,0.2850375,-0.15015,1.3968625
1692514078285,-2.799,-4.51905,17.542051,0.034375,0.176825,-0.24447499
1692514078312,-1.45605,-4.8949504,10.27995,-0.0193875,0.4156625,-2.536325
1692514078343,-0.84105,-4.2510004,4.01595,-0.318175,0.5027,-3.59755
1692514078374,-1.0999501,-4.65105,0.62205005,-0.5737875,0.4492125,-4.6839375
1692514078399,-2.601,-6.6660004,3.6850502,-0.6336,0.2574,-6.50375
1692514078425,-2.80905,-7.6639504,6.9810004,-1.1187,0.5346,-7.5075
1692514078451,-2.6560502,-6.6709504,7.6639504,-1.6913875,0.9464125,-9.452437
1692514078478,-2.9550002,-5.2920003,3.9180002,-1.536425,0.940775,-9.540162
1692514078506,-4.2259502,-5.208,2.355,-1.292225,0.9224875,-8.707188
1692514078534,-4.17105,-5.6269503,6.01905,-1.2859,1.1807125,-7.3101873
1692514078563,-3.9409502,-5.6389503,7.4890504,-1.47895,1.605725,-6.0245624
1692514078591,-3.4720502,1.84695,11.137051,-1.3512125,1.873575,-2.0675874
1692514078618,-0.657,2.568,12.931951,-0.766975,1.3814625,-0.9901375
1692514078647,-2.397,-1.9549501,19.921951,0.8270625,-0.12265,1.382975
1692514078677,-3.8190002,-1.6150501,25.900951,1.3935624,-0.7745375,2.4019876
1692514078707,-3.5149503,3.52305,15.856951,1.6333625,-1.2254,2.9888375
1692514078734,-1.6810501,5.58795,9.916051,1.241075,-1.31395,3.508725
1692514078765,2.2339501,3.6540003,7.5540004,0.95535,-1.0844625,4.08045
1692514078793,3.8760002,2.3760002,6.5670004,0.9656625,-0.922075,5.6274624
1692514078820,5.29995,1.5840001,4.67595,0.9625,-0.922075,6.142125
1692514078850,7.0620003,1.3609501,2.43105,0.7624375,-0.704825,6.7340627
1692514078881,5.2710004,2.9239502,0.94695,0.6518875,-0.89485,6.801575
1692514078911,3.14805,2.9550002,6.4429502,0.9378875,-1.7637125,8.26705
1692514078936,2.14995,5.2579503,11.376,1.4102,-1.9655625,8.619325
1692514078966,-0.96300006,4.25505,15.024001,1.8316375,-1.917575,7.9503875
1692514078996,-0.564,0.18105,24.92205,1.6979874,-1.1246125,4.22235
1692514079026,-0.12795001,-2.1319501,21.451052,1.1457875,-0.547525,1.9669375
1692514079058,-2.148,-1.70595,11.529,0.3370125,0.233475,-1.2863125
1692514079089,-2.19105,-3.1900501,6.1750503,-0.32065,0.4164875,-2.24125
1692514079112,-2.151,-5.5219502,7.353,-1.4026375,0.5033875,-3.7013624
1692514079142,-2.5069501,-6.4860005,5.6719503,-1.617275,0.555775,-4.6811876
1692514079174,-2.94,-7.07805,2.127,-2.057,0.8815125,-7.6462374
1692514079201,-3.3229501,-6.7590003,1.368,-2.2609124,1.2804,-9.314938
1692514079228,-3.49305,-5.43795,0.804,-1.7441875,1.5332625,-10.164963
1692514079256,-4.5940504,-5.4090004,-0.37305,-1.548525,1.5893625,-9.144712
1692514079284,-4.7860503,-6.0480003,4.9350004,-1.4364625,1.5852375,-7.597425
1692514079312,-4.116,-3.6120002,15.486001,-2.2781,2.42275,-4.4749374
1692514079339,-3.486,0.19095,15.594001,-2.1825376,2.2743876,-3.0009375
1692514079366,-2.66295,-2.3050501,18.556952,-1.550725,1.593625,-1.655225
1692514079395,-2.26095,-3.1189501,22.78005,0.3009875,-0.323125,0.681725
1692514079424,-0.74295,-0.84900004,17.238,0.90021247,-0.9887625,1.441275
1692514079452,-2.4109502,1.7850001,9.327001,1.24905,-1.7199875,2.2669625
1692514079480,1.7380501,0.08505,13.108951,1.1636626,-1.86505,2.702425
1692514079507,5.4,0.59295005,12.19995,1.0261625,-1.8831999,3.2817125
1692514079537,5.4199505,1.9620001,8.79105,0.7425,-1.9635,4.7188625
1692514079563,4.4760003,2.943,6.04995,0.59785,-2.2947376,5.70185
1692514079591,5.307,3.8940003,6.6990004,0.6758125,-3.061025,8.074275
1692514079619,5.0869503,3.492,7.2660003,1.0318,-3.153975,8.956887
1692514079648,3.18405,0.64305,11.733001,1.4905,-3.0479624,9.0442
1692514079675,4.0810504,0.63600004,17.743052,2.05975,-2.5546124,7.3470373
1692514079710,1.6660501,-0.89295006,18.543001,1.4359125,-1.67695,4.5874124
1692514079733,0.076950006,-1.1220001,20.757002,0.8611625,-1.14785,3.06625
1692514079759,-0.46095002,-1.2229501,16.27605,0.320925,-0.6589,1.7356625
1692514079788,-1.164,-0.531,14.031001,-0.1464375,-0.2165625,0.517275
1692514079815,-2.46405,-0.24900001,3.13995,-0.7704125,0.492525,-1.7210875
1692514079843,-3.9940503,-3.2770503,-0.081,-0.8756,0.7030375,-2.61305
1692514079871,-3.4450502,-5.8759503,5.268,-0.8963625,0.97996247,-4.32135
1692514079898,-1.4320501,-8.193001,8.67405,-1.022175,1.20505,-5.6728373
1692514079926,-2.7540002,-7.8960004,5.10195,-1.330175,1.5552624,-7.1999125
1692514079953,-2.35395,-7.3240504,1.2030001,-2.1610875,2.4580874,-10.51875
1692514079984,-2.8639503,-7.1299505,-1.1200501,-2.4433749,2.8634374,-10.88725
1692514080014,-4.06995,-7.3960505,2.838,-2.9084,3.468575,-9.0464
1692514080042,-4.9009504,-3.4440002,9.403951,-3.1956375,3.677025,-7.60485
1692514080072,-2.8849502,-2.913,11.85,-3.10475,3.36985,-4.350775
1692514080100,-3.4480503,-3.93195,23.376001,-2.2851124,2.580875,-2.585825
1692514080129,-3.288,-2.64,23.41905,-0.071225,0.4774,0.1379125
1692514080155,-0.81195,-1.0189501,18.06195,0.8507125,-0.5542625,1.1763124
1692514080181,-2.18595,1.12395,16.338001,1.419275,-1.37225,2.0658
1692514080209,-2.12205,3.4150503,13.9800005,1.5230875,-2.0939875,3.398175
1692514080238,0.60405004,4.2259502,10.76595,1.3688124,-2.149675,4.134625
1692514080266,2.97105,5.17005,6.35895,1.2403874,-2.106775,5.0560126
1692514080296,2.42505,5.2099504,5.22195,1.1644875,-2.0332124,6.0033875
1692514080327,3.9589503,2.1780002,11.12205,1.18305,-1.980275,7.146837
1692514080356,6.8629503,1.04805,6.2299504,1.397275,-1.754775,7.636475
1692514080384,6.9949503,1.6489501,2.6490002,1.38765,-1.6515125,7.4118
1692514080413,1.9630501,2.7139502,11.910001,1.1397375,-1.8733,7.0602126
1692514080442,2.676,1.5139501,18.50205,1.1479875,-2.0153375,6.866475
1692514080470,0.27105,-0.57405,19.22295,1.0410125,-1.5679125,4.994
1692514080498,-1.99995,-4.0140004,26.869951,0.6400625,-1.0253375,3.2824
1692514080527,-1.8180001,-3.73095,18.199951,0.0760375,-0.488675,1.6696625
1692514080563,-1.76505,-3.3940501,6.8830504,-0.721325,0.254375,-1.3321
1692514080589,-1.77495,-4.6309505,1.4280001,-1.1699874,0.69685,-3.6282125
1692514080617,-3.9049501,-5.8450503,-0.92595005,-1.3498375,0.844525,-4.5410748
1692514080645,-4.164,-7.3510504,0.56700003,-1.4894,1.0041625,-5.647537
1692514080674,-3.4650002,-7.4890504,1.9189501,-1.9058875,1.9782125,-8.7076
1692514080702,-2.98095,-7.7119503,1.6990501,-1.9058875,1.9782125,-8.7076
1692514080730,-2.8140001,-7.56405,1.419,-2.420275,3.7791874,-10.637137
1692514080760,-3.6820502,-6.8430004,10.593,-2.8733375,4.4297,-8.633625
1692514080791,-3.38805,-5.51205,14.81595,-2.997225,4.255075,-7.1308875
1692514080817,-3.3229501,-0.45900002,14.313001,-2.3027124,2.9970875,-4.072475
1692514080846,-5.808,1.9050001,17.83395,-1.2992375,1.873575,-2.4772
1692514080874,-5.7169504,2.778,20.328001,-0.1948375,0.711425,-0.9686875
1692514080904,0.582,-1.14405,15.331051,1.4427875,-1.0301499,2.1789625
1692514080935,0.64695,2.7280502,11.43795,1.8728875,-1.631575,4.38625
1692514080962,2.1430502,5.63205,7.14405,1.6858875,-1.7694875,4.5645876
1692514080994,4.122,5.1379504,5.892,1.1787875,-2.0928874,5.0227375
1692514081022,5.6569505,3.7789502,8.269051,1.112925,-2.1894126,5.98125
1692514081051,4.25895,3.4369502,9.267,1.3761,-2.265725,7.9602876
1692514081082,3.48795,4.0950003,7.7310004,1.5549875,-2.256925,8.582337
1692514081106,2.4540002,1.30095,12.59895,1.692075,-2.1569624,8.5849495
1692514081137,3.42105,-1.6009501,21.36495,1.6770875,-1.687675,6.94815
1692514081167,0.31395,-1.40205,17.560951,1.369225,-1.393975,5.9541626
1692514081194,-2.7199502,-0.73005,18.361052,0.087175,-0.7733,3.21695
1692514081225,-0.027,-1.11,16.64505,-0.5105375,-0.4422,1.864775
1692514081259,-1.3560001,-0.58095,6.9649506,-1.072775,0.2501125,-0.720225
1692514081288,-4.01805,-2.77905,4.2840004,-1.105775,0.4774,-1.661
1692514081316,-2.91405,-6.28095,7.221,-1.0494,0.5852,-2.3241625
1692514081344,-1.176,-7.4800506,7.0200005,-1.009525,0.7953,-3.9186125
1692514081373,-1.9300501,-7.7860503,2.18895,-1.544675,1.4521375,-7.410975
1692514081406,-2.8140001,-7.31895,-1.16505,-1.8767375,1.9276125,-9.582513
1692514081431,-3.4669502,-7.2640505,-1.3570501,-2.139225,2.5007124,-11.110825
1692514081461,-4.6660504,-7.9230003,3.2689502,-2.7248375,3.537875,-10.624625
1692514081489,-4.1680503,-7.3510504,6.129,-3.137475,3.823875,-9.0092745
1692514081516,-4.458,-4.236,10.488001,-3.6224375,3.75045,-5.357275
1692514081548,-3.252,-1.83105,17.98695,-3.23345,3.2201126,-3.58985
1692514081579,-5.0010004,-0.031050002,22.626001,-1.292775,1.4235375,-0.913
1692514081607,-2.1720002,1.2970501,21.372002,-0.0589875,0.2938375,0.27665
1692514081635,0.35205,1.81095,14.49495,1.7598625,-1.7428125,2.8609624
1692514081662,-0.38205,2.3400002,13.85595,2.0197375,-2.3282876,4.0008373
1692514081693,1.1539501,2.7880502,13.72395,1.6619625,-2.755775,5.5892377
1692514081720,4.0069504,4.3840504,10.597951,1.36895,-2.74285,6.3273373
1692514081750,3.6910503,5.2870502,4.53795,1.023,-2.5202374,7.2766376
1692514081780,3.9190502,4.7650504,4.4539504,1.0335875,-2.4371874,7.809725
1692514081810,4.431,4.6069503,9.30795,1.1825,-2.326775,8.19005
1692514081838,1.6210501,2.7640502,13.284,1.1642125,-1.7061,7.8458877
1692514081866,4.11705,3.1249502,12.634951,0.4618625,-1.0641125,7.0334
1692514081897,5.4630003,2.49105,10.75905,0.16445,-0.586575,6.0924873
1692514081926,1.4989501,-0.71805006,21.37005,0.29425,-0.4494875,3.4529
1692514081954,-3.0910501,-4.2460504,24.333002,-0.019524999,-0.5050375,1.96845
1692514081984,-4.9819503,-3.39105,12.943951,-0.495,-0.3650625,1.0330375
1692514082011,-1.9950001,-4.572,7.5780005,-1.13245,-0.0726,-0.3625875
1692514082042,-1.437,-4.8349504,7.0750504,-1.13245,-0.0726,-0.3625875
1692514082070,-2.4019501,-5.91195,2.0359502,-1.008425,0.6501,-6.4779
1692514082100,-3.5460002,-7.3980002,1.7629501,-1.3937,0.8628125,-7.51135
1692514082126,-3.7180502,-7.7890506,2.3070002,-1.7183375,1.2508374,-9.155437
1692514082155,-3.558,-7.0870504,0.38205,-2.2930875,2.6052125,-10.59245
1692514082186,-4.88595,-5.8620005,-1.30005,-2.5997124,3.1626375,-9.658825
1692514082216,-3.69195,-4.8520503,1.72695,-3.1241374,3.67895,-6.6251626
1692514082251,-2.9880002,-2.8219502,10.88595,-3.4414876,3.83845,-3.7753375
1692514082268,-3.2730002,-0.65595,9.44505,-3.1543875,3.516975,-2.5045624
1692514082302,-6.129,-1.536,20.97195,-2.2908876,2.717825,-1.434675
1692514082332,-3.6750002,-2.11305,26.72895,0.2629,0.2883375,0.6700375
1692514082366,-3.4069502,2.328,20.02695,0.6329125,-0.28105,1.7831
1692514082393,-2.09295,3.5320501,13.66005,1.1642125,-1.6993625,3.5132625
1692514082421,1.128,2.094,7.5270004,1.2299374,-2.172775,4.312275
1692514082450,3.4450502,2.28495,2.01705,0.9345875,-2.2297,5.867125
1692514082478,4.88805,2.53395,1.2220501,0.7387875,-2.111175,6.2621627
1692514082506,7.2390003,3.219,6.32805,0.553575,-2.0785875,6.5140624
1692514082534,6.9250503,4.89405,11.656051,0.3696,-2.5169375,7.7925377
1692514082564,6.50895,5.5810504,13.81095,0.5924875,-2.8968499,9.6019
1692514082592,5.35995,3.7140002,10.761001,1.164625,-3.112725,11.1592245
1692514082622,4.9219503,4.191,13.224001,2.19725,-2.74725,9.812688
1692514082650,-3.6510003,3.6420002,21.622952,1.96515,-1.94645,6.277425
1692514082679,-6.2080503,-1.2870001,29.098951,1.590325,-1.4865125,4.4021997
1692514082709,-2.766,-2.061,20.407051,1.0256125,-0.8672125,2.4816
1692514082737,-0.94695,-2.59395,9.31305,-0.2311375,0.4596625,-1.651925
1692514082768,-2.4190502,-3.693,5.4760504,-1.03125,0.8751875,-3.9787
1692514082795,-6.675,-5.1940503,2.39505,-1.2291125,0.8130375,-4.3987627
1692514082825,-3.8190002,-9.316051,5.6530504,-1.3256375,0.7535,-4.9809375
1692514082851,-2.1979501,-11.173051,6.5340004,-1.524325,1.3223375,-7.9421372
1692514082881,-2.6869502,-10.098001,2.56995,-1.6724125,1.9727125,-10.035712
1692514082916,-6.70095,-5.67,-0.049950004,-2.16535,3.1849124,-11.900763
1692514082942,-5.2980003,-5.2990503,-1.4670001,-2.4245374,3.5528624,-10.90265
1692514082970,-2.1700501,-6.50295,4.3699503,-2.7209876,3.8044875,-6.6774125
1692514082998,-4.09905,-2.6209502,13.087951,-2.76155,3.8154874,-4.9726872
1692514083026,-6.7890005,0.27705002,11.73795,-2.5705626,3.5017126,-3.6411374
1692514083057,-4.15605,2.319,17.427,-1.0616375,1.7697625,-1.6869875
1692514083086,-3.9070501,3.1210501,20.058,0.058025,0.630575,-0.38665
1692514083114,-2.09505,1.3609501,19.206001,1.807575,-1.3446125,2.4847624
1692514083144,0.24195,-0.89505005,19.00695,2.1176374,-1.9674875,3.55905
1692514083171,0.675,0.94200003,14.395051,1.77595,-2.3494625,4.403025
1692514083199,1.7020501,4.7650504,6.94995,1.38985,-2.3321376,4.3313875
1692514083230,1.98195,5.0160003,3.1420503,0.686675,-1.82105,4.87245
1692514083261,2.3410501,4.77705,4.3819504,0.55055,-1.4103374,5.9703875
1692514083289,3.9520502,4.43505,8.26395,0.6158625,-1.35905,6.9218874
1692514083317,4.2390003,3.6139503,9.33405,1.1070125,-1.042525,8.26045
1692514083348,2.8489501,2.9959502,8.05605,0.8221125,-0.9527375,8.2214
1692514083378,2.18805,2.367,15.477001,0.8751875,-0.99549997,7.0401373
1692514083406,1.1329501,0.837,20.656052,0.9425625,-0.9953625,6.3105626
1692514083436,-3.49095,1.1530501,22.423052,0.423225,-0.7291625,3.6344
1692514083464,-0.92505,-0.75795,14.349001,-0.0848375,-0.442475,2.18955
1692514083496,-2.83995,-1.8570001,10.395,-0.9057125,0.1615625,-0.5225
1692514083524,-2.811,-3.9439502,9.468,-1.0797875,0.33495,-1.5796
1692514083552,-0.37395,-6.9030004,10.321051,-1.2255375,0.4445375,-3.509825
1692514083579,-0.786,-6.846,4.7790003,-0.9224875,0.4588375,-4.7656126
1692514083610,-2.3110502,-6.2299504,-0.354,-0.2580875,0.4728625,-6.2899375
1692514083638,-5.0800505,-7.7650504,-2.42505,0.4860625,0.1370875,-8.974763
1692514083668,-3.7380002,-8.0140505,1.7659501,-0.8976,1.7208124,-10.52425
1692514083697,-3.5989501,-7.62795,2.8500001,-1.76825,2.7875376,-9.949775
1692514083726,-4.34805,-5.8900504,5.2510505,-2.0620875,3.538975,-8.339925
1692514083753,-4.42395,-3.4750502,9.613951,-2.2066,3.7970624,-6.51695
1692514083783,-3.45,-0.53805,14.9740505,-2.3615625,3.1365125,-3.6438875
1692514083812,-5.20695,1.131,22.392,-0.685025,1.336775,-0.9244125
1692514083840,-5.1780005,1.2889501,23.215052,-0.685025,1.336775,-0.9244125
1692514083873,1.0540501,1.572,13.188001,2.0480626,-1.5228125,2.46345
1692514083902,0.35895002,2.29695,10.49505,1.86725,-1.520475,3.2126875
1692514083929,0.42405003,3.3240001,8.217,0.7132125,-0.7060625,4.0170627
1692514083961,1.2019501,3.48705,6.8760004,0.752125,-0.4873,4.4405622
1692514083988,3.2989502,3.6349502,7.65705,0.8118,-0.22687499,5.647125
1692514084019,4.33995,2.9839501,7.1040006,0.8721625,-0.3430625,6.345075
1692514084047,3.7800002,3.6499503,10.30605,1.0569625,-0.9120375,7.3063374
1692514084078,3.2580001,2.0989501,9.052051,1.1994125,-1.129975,7.674975
1692514084106,1.4959501,0.837,11.946,1.3349875,-1.2546875,7.6240997
1692514084135,2.3440502,0.246,20.788052,1.2593625,-1.1611875,6.3608875
1692514084163,-1.8589501,0.36600003,18.189001,0.9213875,-0.9629125,4.9818997
1692514084194,-1.452,-0.261,21.018002,-0.054725,-0.3564,2.1063626
1692514084222,-1.7340001,-0.43095002,15.036,-0.4225375,-0.023924999,0.72421247
1692514084250,-2.9670002,-0.028050002,9.28695,-0.7475875,0.465025,-1.6273125
1692514084280,-1.42305,-2.082,5.47095,-0.7634,0.5867125,-2.4959
1692514084313,-0.97305006,-3.966,4.42995,-0.65999997,0.6813125,-3.9477625
1692514084336,-1.3249501,-4.87095,3.9199502,-0.6560125,0.66522497,-4.770975
1692514084370,-4.28805,-6.405,2.83605,-0.75625,0.53735,-5.8463626
1692514084396,-2.7630002,-7.7359505,2.07495,0.1232,0.23045,-8.127213
1692514084425,-1.5520501,-6.88605,-0.44700003,0.4844125,0.14533749,-9.008725
1692514084454,-3.9169502,-6.6919503,-3.9300003,0.8833,0.045375,-8.73235
1692514084484,-8.24205,-5.151,6.33795,0.1925,0.5952375,-7.8315873
1692514084512,-2.3850002,-6.0199504,23.526001,-2.2724626,2.4289374,-5.2534623
1692514084538,2.028,-4.143,17.310001,-2.570975,2.6998124,-3.4485
1692514084567,-3.3259501,0.423,14.007001,-1.723425,2.0315626,-1.99265
1692514084594,-6.3820505,0.34605002,21.139952,0.901175,-0.571725,-0.503525
1692514084623,-2.6239502,-0.64395005,19.60305,1.0289125,-0.9854625,0.3289
1692514084651,-2.50005,-0.29205,15.59895,0.4115375,-0.7832,1.590325
1692514084681,-0.20895001,2.0389502,13.14,-0.128425,-0.573375,3.7888124
1692514084712,4.72095,3.2040002,8.016001,0.253275,-0.50765,4.4963875
1692514084742,7.32,3.7240503,2.292,0.2893,-0.7561125,4.9344625
1692514084771,4.6849504,4.67595,4.3440003,0.33495,-1.3008875,5.6078
1692514084800,6.02505,3.6379502,9.423,0.646525,-2.46675,7.4133124
1692514084829,6.195,0.91095006,9.31995,1.5560875,-2.8496876,9.153512
1692514084858,3.8179502,0.18795002,10.536,1.9347625,-2.6962376,9.0167
1692514084886,1.1329501,2.769,11.529,2.027025,-2.486825,8.366463
1692514084916,-1.9969501,3.111,12.075001,1.4834875,-1.8524,6.2825127
1692514084944,1.623,-1.074,22.176,1.0621876,-1.3102375,4.2667623
1692514084973,2.061,-1.7299501,13.080001,0.520575,-0.3443,0.0031625
1692514085003,-3.3640501,-2.77905,11.127001,0.2371875,-0.164725,-1.554575
1692514085033,-0.71400005,-5.9770503,13.927951,-0.99715,0.1590875,-3.567575
1692514085061,-0.597,-5.7109504,9.933001,-1.4430625,0.2831125,-4.7007127
1692514085089,-3.1680002,-4.40595,4.88205,-1.8610625,0.49568748,-6.1802125
1692514085118,-1.9729501,-6.2760005,1.605,-2.41505,1.0714,-8.285063
1692514085153,-1.1740501,-6.9940505,2.87205,-2.4875126,1.4103374,-8.698663
1692514085170,-1.65495,-7.1059504,4.65495,-2.5229876,1.7703125,-8.641325
1692514085204,-5.7979503,-7.2570004,1.2220501,-2.7812126,2.40735,-7.863075
1692514085233,-3.3949502,-6.3520503,7.3090506,-3.151775,2.8298874,-6.2154126
1692514085263,-7.0410004,0.0019500001,7.6660504,-3.2357874,2.9495125,-4.6937
1692514085294,-3.3019502,0.98805004,16.278,-2.5232625,2.5331626,-1.875225
1692514085322,-4.2499504,0.94695,21.81705,-1.529,1.9006625,-0.6029375
1692514085350,-3.5530503,-0.0139500005,20.119951,-0.3166625,1.081575,0.6653625
1692514085380,-2.3040001,0.88995004,16.78605,1.566125,-0.59015,2.725525
1692514085409,1.2400501,2.80695,13.741051,1.8211875,-1.3465375,3.4835625
1692514085440,4.58895,3.8220003,7.6729503,1.501225,-1.2148125,3.6887126
1692514085464,5.80305,4.2000003,4.80795,1.1562375,-0.907225,4.0348
1692514085497,6.31995,3.96795,3.3430502,0.9854625,-1.0421125,4.6211
1692514085525,6.31995,3.96795,3.3430502,0.9854625,-1.0421125,4.6211
1692514085553,6.4219503,1.5499501,9.76095,1.534225,-2.3651376,9.318513
1692514085584,3.8110502,2.1660001,7.53,1.281225,-1.9798625,10.090987
1692514085619,-0.68595004,5.7390003,11.91495,0.4888125,-1.0964249,8.902713
1692514085651,-0.27195,-1.01505,20.326052,0.8998,-0.88,5.2680373
1692514085679,0.46905002,-2.5849502,23.743952,0.6392375,-0.4368375,2.7473874
1692514085710,-1.095,-1.7689501,12.307051,-0.8210125,0.3661625,-1.327975
1692514085735,-2.256,-1.7160001,8.99205,-0.8210125,0.3661625,-1.327975
1692514085772,-3.039,-4.93095,6.8550005,-2.096325,0.600875,-4.7124
1692514085797,-2.4469502,-6.7710004,6.70905,-2.0757,0.7326,-5.70405
1692514085825,-2.35395,-7.2910504,5.03805,-2.088075,0.949575,-6.61045
1692514085855,-2.6560502,-7.188,3.39105,-2.358125,1.5708,-8.828325
1692514085883,-3.1729503,-5.88105,1.90005,-2.5194125,1.94315,-9.368563
1692514085912,-4.329,-4.3900504,0.21000001,-2.738725,2.602325,-8.436037
1692514085942,-4.3549504,-6.0820503,3.1039503,-2.76485,2.801975,-7.146975
1692514085970,-1.96395,-7.7959504,10.60305,-2.7751625,2.9667,-5.8686376
1692514086010,-3.4309502,-0.036000002,13.413001,-2.216225,2.584725,-2.221725
1692514086037,-2.466,-1.062,16.23105,-1.3959,1.7235625,-1.5082375
1692514086070,-0.86295,-2.262,21.300001,0.50215,-0.2256375,0.1903
1692514086095,-0.23295002,-3.1279502,15.994051,1.1067375,-0.92716247,1.0927125
1692514086125,-4.116,0.70095,17.29095,1.383525,-1.4135,1.781175
1692514086156,-0.049050003,3.8239503,12.4150505,1.2194875,-1.8008375,2.481875
1692514086183,3.0930002,4.32495,7.7089505,1.0591625,-1.7776,3.0050626
1692514086212,4.6969504,3.9889503,4.806,1.03125,-1.7491375,5.048175
1692514086243,4.6969504,3.9889503,4.806,1.03125,-1.7491375,5.048175
1692514086271,7.0300503,2.187,6.867,1.29745,-2.4388375,7.9363623
1692514086297,6.0750003,2.29005,2.55795,1.451175,-2.6552625,8.669237
1692514086327,3.213,0.53805,8.652,0.99137497,-2.21705,9.054788
1692514086354,1.3549501,-0.31800002,20.94795,-0.4076875,-0.4830375,8.270762
1692514086384,-1.00605,2.5840502,13.00905,-0.41593748,-0.0268125,6.8503876
1692514086413,-2.1460502,-1.074,21.891,-0.61985,0.3928375,2.2523875
1692514086442,1.0819501,-5.8570504,21.56805,-0.9543875,0.758175,0.03355
1692514086471,-0.513,-3.3100502,11.89095,-1.1009625,1.15335,-2.993375
1692514086497,-3.00705,-2.97,9.20505,-1.1009625,1.15335,-2.993375
1692514086527,-1.8390001,-4.2990003,2.19705,-1.397275,1.149225,-5.2842627
1692514086557,-0.79800004,-6.2110505,-1.5630001,-1.65055,1.3585,-6.7106876
1692514086587,-2.53605,-7.1730003,-0.555,-1.698125,1.5800124,-7.408225
1692514086614,-3.6709502,-7.4680505,0.77505004,-1.8613375,1.82765,-8.194175
1692514086645,-3.4740002,-5.12895,2.3070002,-2.6651626,2.657875,-9.355638
1692514086673,-3.8190002,-4.3180504,0.51600003,-3.4254,3.4414876,-7.2672873
1692514086704,-3.903,-5.3179502,5.17395,-3.51065,3.5149124,-5.7099624
1692514086736,-4.767,-2.23305,22.156952,-3.115475,3.151225,-2.59985
1692514086765,-5.6190004,0.31800002,17.00595,-2.6085124,2.7526126,-1.5202
1692514086792,-4.36005,1.7869501,16.815,-0.1648625,0.922075,0.4426125
1692514086820,-1.12605,-4.5160503,25.867052,1.0910625,-0.076175,1.5450875
1692514086850,3.28395,-5.27295,21.74805,2.1096625,-1.2738,3.0512624
1692514086878,-0.28095,-0.88500005,14.257951,1.9639125,-1.673375,2.849825
1692514086908,-1.9230001,3.0990002,12.20205,1.6014625,-2.0167124,2.28525
1692514086934,0.74700004,2.81205,7.73295,0.93128747,-2.014925,2.2726
1692514086965,3.2220001,3.111,6.4999504,0.819225,-1.6066875,3.1557624
1692514086999,4.3759503,2.5770001,6.4120502,0.8441125,-1.43385,5.16175
1692514087025,5.367,1.8349501,6.6270003,0.8641875,-1.563925,6.0124626
1692514087054,4.1839504,2.39505,5.1600003,0.9915125,-1.9633625,7.4542875
1692514087081,2.2459502,2.4499502,5.55705,1.1396,-2.1272626,8.20545
1692514087111,3.7080002,2.0340002,13.902,1.3465375,-2.195325,8.602275
1692514087140,1.9609501,3.834,12.40995,1.6577,-1.85735,7.2857122
1692514087169,-2.265,1.2100501,25.515001,1.4334375,-1.1774125,4.3483
1692514087196,0.51000005,-3.82995,29.374052,1.14015,-0.7800375,2.5785375
1692514087228,0.65400004,-3.4470003,17.784,0.64075,-0.3565375,0.7101875
1692514087255,0.65400004,-3.4470003,17.784,0.64075,-0.3565375,0.7101875
1692514087289,-1.8180001,-3.21405,1.251,-1.0269876,0.1172875,-4.2042
1692514087313,-2.43495,-4.275,-0.43800002,-1.6245625,0.27445,-6.5712624
1692514087346,-3.69405,-6.333,0.22200002,-1.72535,0.4697,-7.4978747
1692514087371,-3.9580503,-6.5220003,0.66195005,-2.10815,1.2911249,-9.914025
1692514087400,-3.89595,-5.4810004,0.70305,-2.4278374,1.9364125,-10.151213
1692514087427,-4.3120503,-4.31505,-0.55005,-2.8040376,2.6081,-9.427688
1692514087456,-5.19,-4.5259504,1.0189501,-3.432825,3.529625,-6.7181125
1692514087486,-2.73705,-5.505,10.998,-3.5123,3.695175,-4.8970623
1692514087507,-3.6349502,-0.32505003,15.754051,-3.4442375,3.7373874,-3.347575
1692514087542,-6.3300004,3.4770002,13.135951,-2.2906125,2.8557374,-1.22155
1692514087571,-5.8770003,-0.32805002,23.517,0.3859625,0.535425,0.74415
1692514087601,-3.34995,-3.62595,28.36605,1.43935,-0.4230875,1.966525
1692514087629,-2.67,-3.9559503,23.46195,1.9316,-1.0748374,2.8645375
1692514087657,0.47700003,-2.697,19.77795,1.5316125,-1.8288875,2.8246624
1692514087689,4.18905,-0.021000002,10.79895,1.05215,-1.9644625,2.430725
1692514087714,4.51695,1.6390501,6.168,0.6131125,-2.0004876,2.2020626
1692514087743,4.335,1.9740001,2.9220002,0.104225,-2.16425,2.552825
1692514087771,4.87395,1.641,2.12505,0.111237496,-2.4949374,3.8671875
1692514087800,4.374,3.5350502,1.57395,0.2514875,-2.6340876,4.7680874
1692514087828,3.117,3.24495,-0.651,0.23595,-2.3815,6.612925
1692514087855,2.9899502,2.6179502,0.58305,-0.356125,-1.6812125,7.61475
1692514087886,4.2439504,3.4249501,11.512951,-0.7354875,-1.1691625,8.250137
1692514087919,-4.17105,6.0150003,16.057951,-1.2830125,-0.2941125,7.4573126
1692514087946,-3.3930001,2.73795,30.90105,-0.8229375,-0.1780625,6.0473876
1692514087973,1.74495,-1.8690001,26.413052,-0.295625,0.3106125,0.5850625
1692514088004,-0.90105003,-0.68205005,15.369,-0.4923875,0.516175,-1.71215
1692514088032,-4.695,-1.3450501,11.557951,-0.2960375,0.5193375,-3.4914
1692514088059,-2.5930502,-1.95105,8.599951,-0.1859,0.40425,-3.59315
1692514088089,-1.14495,-3.3750002,2.7229502,-0.1084875,0.39435,-3.7599375
1692514088118,-3.22305,-4.7059503,-0.22695,-0.473,0.6578,-4.345275
1692514088150,-3.4429502,-5.7109504,0.86295,-0.91355,0.8232125,-5.1057873
1692514088179,-3.5410502,-4.1119504,2.256,-1.1848375,1.0657625,-5.7204123
1692514088205,-3.9720001,-3.4680002,0.018000001,-1.4925625,1.4889874,-6.2310877
1692514088235,-2.9569502,-2.5900502,-0.93795,-1.9828875,2.3989625,-5.7591877
1692514088262,-1.9609501,-0.73695004,2.4480002,-2.07955,2.6983,-4.8536124
1692514088292,-2.9670002,1.536,3.8719501,-2.0964625,2.88475,-3.8576999
1692514088321,-7.11,0.411,15.177001,-1.627175,2.6114,-1.9270625
1692514088351,-15.04695,-4.1020503,31.734001,-0.098725,1.3330625,0.4904625
1692514088376,-7.6540504,-7.1850004,35.33205,0.6375875,0.6406125,1.6231875
1692514088406,-2.3850002,-3.04905,24.14595,0.9450375,0.073425,2.1256125
1692514088434,-0.98505,-0.012,16.491001,0.5005,-0.87725,1.5915625
1692514088460,1.18005,0.162,14.064001,0.243925,-1.2947,1.4355
1692514088491,3.5740502,1.2100501,6.70905,-0.04235,-1.3129874,2.1885874
1692514088523,4.551,0.96405005,3.7450502,-0.04235,-1.3129874,2.1885874
1692514088554,5.1280503,1.26795,1.7200501,-0.2501125,-1.9839875,3.9425375
1692514088580,5.21595,1.8760501,0.87105006,-0.2413125,-2.2155375,4.5398374
1692514088607,4.33995,2.60805,-1.2919501,0.0226875,-0.997975,6.217475
1692514088634,4.11705,2.733,0.32505003,0.3916,-0.3845875,6.9282126
1692514088666,4.62195,6.333,7.7380505,1.7150375,-1.47345,8.318063
1692514088700,-1.7320501,7.1299505,16.90995,2.508275,-1.958,8.1059
1692514088723,-3.1650002,2.118,30.475052,3.1207,-2.0420125,6.9722123
1692514088749,0.079050004,-1.371,26.941952,2.476375,-0.697675,2.306975
1692514088779,-1.2940501,0.708,16.827002,1.150325,0.3084125,-0.1164625
1692514088810,-4.02,0.26700002,12.625951,-0.81125,1.1548625,-2.2768624
1692514088838,-4.4220004,-0.56505,8.434051,-1.0586125,1.1130625,-2.3403876
1692514088868,-0.597,-2.5110002,4.70505,-1.036475,1.051875,-2.375725
1692514088897,1.9540501,-3.3820503,2.53395,-0.8419125,1.04775,-2.8065126
1692514088927,0.192,-3.7840502,0.423,-0.8413625,0.9554875,-2.938925
1692514088954,-2.766,-4.30305,-0.37305,-1.1829125,0.3449875,-2.8722374
1692514088984,-3.2659502,-4.46595,-0.28500003,-1.1829125,0.3449875,-2.8722374
1692514089012,-2.364,-3.8920503,2.05095,-2.0948124,0.8459,-5.1500626
1692514089042,-2.88105,-1.5289501,3.0010502,-2.337225,1.80125,-6.457275
1692514089071,-3.28005,1.2100501,5.37795,-2.3005126,3.1472375,-6.417675
1692514089099,-3.072,-1.16295,13.50195,-1.9082249,3.110525,-4.926625
1692514089131,-12.759001,-2.5729501,28.285051,-0.5226375,1.98495,-0.90805
1692514089158,-11.221951,-5.95695,35.140053,0.1331,1.2665125,0.6683875
1692514089186,-2.25795,-2.7640502,24.580051,0.5174125,0.71335,1.6061375
1692514089216,0.82095003,-0.42795002,16.09395,0.47341248,-0.055825,2.092475
1692514089243,2.1709502,0.08805001,12.39105,0.3953125,-0.276375,2.32155
1692514089274,3.8779502,0.693,5.5480504,0.3488375,-0.4613125,2.8529875
1692514089302,3.07095,0.32205,3.3340502,0.3051125,-0.72435,4.620275
1692514089331,4.0140004,0.81795,3.8430002,-0.0028875,-1.44485,6.00985
1692514089360,4.077,0.44505003,3.1660502,-0.0600875,-1.70005,6.3438373
1692514089388,3.6649501,0.63105005,3.2910001,-0.018424999,-1.9861875,6.5533876
1692514089420,3.48795,0.14805001,5.7559505,0.30085,-2.4151876,6.5366125
1692514089456,0.73995006,2.7949502,12.616051,0.635525,-2.3920875,5.5512877
1692514089482,-0.657,4.6069503,13.159051,0.73974997,-2.1148875,4.7460876
1692514089510,-0.58695,2.39295,19.765951,1.098625,-1.315325,2.3804
1692514089540,1.8390001,-0.864,23.17395,1.0857,-0.742775,1.1906124
1692514089570,0.90300006,-0.41595003,18.184052,0.8848125,-0.0108624995,0.4192375
1692514089598,0.73305005,-0.54105,11.91195,0.3370125,0.565675,0.274175
1692514089625,-1.7700001,-0.025950002,3.867,-0.001375,0.5592125,0.471075
1692514089656,-3.627,-2.0059502,3.3310502,-0.304975,0.4225375,0.5952375
1692514089686,-2.2060502,-4.80105,6.1770005,-0.339075,0.4376625,0.479875
1692514089713,-0.06105,-8.65305,7.9990506,-0.594,0.836825,-0.136675
1692514089743,-1.8510001,-8.272051,2.094,-1.03235,1.02135,-0.340725
1692514089770,-4.635,-8.080951,0.48795003,-1.7026625,0.985875,-0.154275
1692514089803,-4.5610504,-8.10705,5.3509502,-3.1194625,0.5520625,0.89925
1692514089823,-4.4869504,-7.5829506,8.03505,-3.5721126,0.94269997,0.3221625
1692514089856,-4.788,-3.456,8.455951,0.441925,14.664237,-26.092276
1692514089886,-1.91805,1.1530501,10.15095,0.5080625,13.362937,-22.301676
1692514089914,-4.19205,2.8960502,16.563002,-0.0119624995,6.2624373,-9.131237
1692514089944,-2.39895,1.51005,23.33505,-0.2924625,2.805275,-3.0712
1692514089973,0.71400005,1.3470001,20.427,-1.8302625,-3.7797375,10.559313
1692514089999,0.08205,2.42895,16.908,-1.6374875,-3.8722749,13.909775
1692514090034,0.39495003,4.2769504,13.959001,-0.791725,-1.3974125,13.259538
1692514090061,1.9420501,5.3179502,8.69295,-0.4565,-0.8793125,11.490462
1692514090089,2.04705,4.92105,4.9560003,-0.0402875,-0.847275,9.438
1692514090122,1.52295,2.87895,1.74195,0.84534997,-0.9942625,6.2022123
1692514090147,0.82395005,2.43405,0.70095,1.177825,-1.0208,4.82405
1692514090176,0.91995007,1.53795,2.76195,1.503975,-0.987525,2.8945124
1692514090205,0.31905,2.529,6.3160505,1.5153875,-0.9180875,2.2055
1692514090232,0.80700004,5.3440504,7.77405,1.37335,-0.7478625,1.2131625
1692514090264,0.86895007,7.8889503,9.483001,1.2747625,-0.6623375,0.8446625
1692514090293,-2.25795,6.0550504,17.90805,1.279575,-0.58795,0.500225
1692514090320,-0.89400005,3.7669501,20.473951,1.5736874,-0.46365,0.0213125
1692514090356,2.59695,1.761,10.491,0.917675,0.0350625,0.018975
1692514090385,1.9200001,-3.3990002,15.307051,0.32945,0.2635875,0.3529625
1692514090413,2.1330001,-5.412,16.872002,-0.5196125,0.3078625,1.6856124
1692514090448,-0.22095,-3.2929502,7.2780004,-0.9746,0.2971375,2.48765
1692514090475,-3.18705,-2.391,0.14805001,-1.9281625,0.3837625,3.9997375
1692514090502,-4.3720503,-2.8620002,-1.7230501,-2.1011374,0.4120875,4.2805123
1692514090529,-2.8879502,-2.6809502,1.3800001,-1.9402624,0.7198125,3.7433
1692514090559,-3.6799502,-3.0990002,4.7580004,-1.8921375,1.0962875,3.53705
1692514090586,-4.2450004,-2.9299502,7.15605,-2.0026875,1.488575,3.9122875
1692514090615,-4.4820004,-2.83395,9.8869505,-2.8829625,1.3332,7.791025
1692514090646,-4.3380003,-0.10005,11.517,-3.8080626,0.4219875,11.810562
1692514090672,-3.69405,-0.14595,15.91005,-5.155975,-1.589775,17.223387
1692514090705,-2.6869502,0.59295005,19.126951,-5.155975,-1.589775,17.223387
1692514090739,-2.5840502,0.83505005,19.086,-5.155975,-1.589775,17.223387
1692514090764,2.6860502,-2.154,22.863,-1.7734749,-0.9829875,-26.323
1692514090792,4.788,2.32395,15.723001,-0.90021247,-1.203125,-11.1133
1692514090820,5.1469502,3.5350502,9.873,-0.78485,-1.555125,-6.4678626
1692514090852,5.0989504,2.946,8.779051,-0.5478,-1.91895,-3.7972
1692514090879,4.3500004,1.6890001,6.0100503,-0.132275,-2.1680999,-2.5262876
1692514090909,3.1720502,1.1550001,2.187,0.6059625,-2.2983124,-1.645325
1692514090938,3.0589502,1.5340501,1.52205,0.7618875,-2.1773124,-0.720775
1692514090966,1.6110001,2.388,5.54505,0.7442875,-2.0702,-0.33605
1692514090996,1.5270001,3.8820002,12.436951,0.777425,-1.8500625,0.0603625
1692514091026,2.53305,2.592,12.625951,0.8523625,-1.64175,0.01815
1692514091053,1.1370001,2.01495,19.25805,0.965525,-0.8553875,-0.3422375
1692514091082,1.302,1.28205,19.147951,0.8991125,-0.43408749,-0.2838
1692514091113,1.9969501,-0.186,15.8209505,0.4846875,0.0946,0.4791875
1692514091142,-0.025050001,-2.0340002,12.910951,0.2517625,0.31845,0.96415
1692514091172,-2.05005,-2.11305,8.3220005,-0.153725,0.6813125,1.8977749
1692514091199,-3.726,-1.8829501,5.8279505,-0.35805,0.77907497,2.253075
1692514091226,-3.1939502,-2.187,2.022,-0.5416125,0.9057125,2.4699125
1692514091256,-2.2080002,-2.8840501,1.12695,-0.7832,1.3140875,2.5790875
1692514091284,-1.57095,-2.45805,2.4409502,-0.8955375,1.5107125,2.600125
1692514091311,-3.8550003,-0.45705003,3.62295,-1.2849375,1.5987124,2.8752625
1692514091342,-6.426,-0.30105,7.1800504,-1.468225,1.515525,3.0531874
1692514091371,-2.32305,-0.82305,17.66205,-1.3976874,1.7202625,3.1966
1692514091400,-1.77495,-1.8430501,14.191051,-1.3976874,1.7202625,3.1966
1692514091428,-2.7799501,3.2950501,10.6699505,-0.73356247,1.91125,2.3480875
1692514091460,-1.72395,2.05095,12.472951,0.8767,1.071675,-1.48005
1692514091489,-3.9480002,-1.6900501,15.340051,1.7258999,0.70661247,-3.4241624
1692514091519,1.3930501,-6.972,26.346,2.4558876,0.1887875,-5.0004625
1692514091548,4.06995,-3.4780502,18.931051,1.7969875,-0.054175,-3.5651
1692514091576,4.2010503,1.23705,6.0409503,-0.372075,-0.817025,0.66728747
1692514091607,5.38395,3.3820503,-1.06305,-0.808225,-1.5901875,1.10275
1692514091635,5.9100003,2.69895,-1.0720501,-0.808225,-1.5901875,1.10275
1692514091664,5.5339503,3.6540003,2.1679502,-0.050325,-1.872475,-0.156475
1692514091693,4.7730002,3.3649502,2.8500001,0.7671125,-2.4778874,-1.1042625
1692514091722,2.80095,2.3809502,4.0230002,0.6576625,-2.8578,-0.8877
1692514091750,1.57095,2.4139502,8.700001,0.14795,-3.096225,-0.193875
1692514091779,3.8539503,5.48295,13.474951,-0.485375,-2.743675,0.2960375
1692514091806,2.2480502,5.4420004,11.13,-0.34705,-2.118875,-0.0748
1692514091839,3.0619502,0.47595003,25.83105,0.40507498,-0.7348,-0.62067497
1692514091862,2.466,0.80100006,18.76095,0.5803875,-0.159775,-0.7030375
1692514091891,-0.027,1.1839501,9.387,0.40315,0.5984,0.297275
1692514091921,-1.0639501,-0.20295002,6.4789505,0.2932875,0.241725,0.9376125
1692514091950,-2.52195,-1.6150501,4.782,-0.159775,0.57145,1.3355374
1692514091980,-3.5479503,-3.3600001,2.8290002,-0.22659999,0.793925,1.3165625
1692514092008,-2.184,-4.938,2.6779501,-0.5748875,1.3193125,1.5477
1692514092038,-2.1769502,-3.0679502,5.787,-0.938025,1.6306125,1.957175
1692514092068,-7.1719503,-1.8190501,4.36005,-1.470975,1.7666,3.4057374
1692514092098,-6.3250504,-1.36395,12.54405,-1.1977625,1.3866875,4.069725
1692514092126,-3.1920002,-0.39900002,14.18595,-1.31615,1.0993125,4.5648623
1692514092156,-2.05995,1.7040001,14.623951,-1.306525,0.9559,4.458575
1692514092184,-0.537,-0.43500003,18.375,-1.0107625,0.9653875,2.845975
1692514092213,-2.7439501,-0.22005,16.34295,-0.3290375,0.6697625,0.5363875
1692514092242,-1.21905,-2.022,14.50695,1.1517,2.75E-4,-2.658975
1692514092274,1.8220501,0.35595003,13.480051,1.1595374,-0.29645,-3.007675
1692514092303,4.27995,1.31805,9.519,0.972125,-0.352,-2.8139374
1692514092331,4.737,1.5259501,5.42805,0.8325625,-0.4989875,-2.695825
1692514092359,3.0690002,2.9959502,6.879,0.83875,-1.136025,-2.8312626
1692514092386,3.4350002,3.5389502,7.3450503,0.9802375,-1.7356625,-2.9365876
