@ HyperIMU - ianovir
@ Date:Sun Aug 20 10:00:50 GMT+03:00 2023, Sampling Rate:25ms

timestamp,bma4xy_accelerometer.x,bma4xy_accelerometer.y,bma4xy_accelerometer.z,oem_pseudo_gyro.x,oem_pseudo_gyro.y,oem_pseudo_gyro.z
1692514850091,0.15405001,-0.43995002,10.02105,0.157025,-0.3559875,-0.2748625
1692514850128,-0.025050001,-0.19605,9.682051,-0.1802625,-0.2778875,0.227975
1692514850157,-0.03195,-0.186,9.76095,-0.598125,-0.13915,1.4001625
1692514850182,0.052950002,-0.27495003,10.041,-0.598125,-0.13915,1.4001625
1692514850225,0.201,-0.43800002,10.110001,-0.73768747,0.1343375,5.10125
1692514850258,0.048,-0.34695002,9.93,-0.75295,0.2739,9.49135
1692514850286,0.36195,-0.615,9.5140505,-0.7348,0.29535,11.907775
1692514850307,0.32595003,-0.53595,9.696,-0.68145,0.26345,12.9915495
1692514850332,0.30900002,-0.58395004,9.67905,-0.6084375,0.197175,12.5972
1692514850358,0.20400001,-0.294,9.564,-0.480425,0.0358875,10.128938
1692514850383,-0.07305,-0.27705002,9.804001,-0.4321625,-0.0378125,8.6361
1692514850414,0.22500001,-0.45705003,9.700951,-0.3861,-0.0848375,7.0637875
1692514850440,0.711,-0.69900006,9.67905,-0.2827,-0.0837375,4.436575
1692514850467,0.82905006,-0.79200006,9.682051,-0.23815,-0.0774125,3.5006125
1692514850495,0.546,-0.58095,9.567,-0.215875,-0.1035375,2.8967125
1692514850523,-0.13305001,-0.08805001,9.592951,-0.218625,-0.2061125,2.029775
1692514850550,-0.17295001,-0.23400001,10.002001,-0.204325,-0.2211,1.617
1692514850577,-0.054,-0.36105,10.491,-0.16115,-0.185625,1.2577125
1692514850607,0.079050004,-0.39705002,10.32495,-0.04015,-0.017324999,0.7161
1692514850633,0.33495003,-0.42795002,9.717,0.0116875,0.0858,0.3425125
1692514850660,0.35895002,-0.47400004,9.62205,0.011825,0.083325,0.30621248
1692514850689,0.27795002,-0.35895002,9.556951,0.0064625,0.0548625,0.372075
1692514850715,0.060000002,-0.12195001,9.483001,-0.006325,-0.0199375,0.419375
1692514850743,0.12195001,-0.22500001,9.705001,-0.0061875,-0.0375375,0.3034625
1692514850772,0.094050005,-0.19800001,9.721951,0.0279125,-0.0215875,0.120725
1692514850800,0.112950005,-0.31305,9.80595,0.0499125,-0.0066,0.131725
1692514850829,0.10305001,-0.37605003,9.93,0.0622875,0.0033,0.17325
1692514850856,0.27795002,-0.47805002,9.98295,0.0510125,0.0100375,0.1689875
1692514850885,0.15105,-0.354,9.889951,0.0331375,0.0122375,0.06875
1692514850912,0.039,-0.273,9.889951,0.015262499,0.01705,-0.0966625
1692514850941,0.094050005,-0.22005,9.77505,-0.0089375,0.0154,-0.373175
1692514850966,0.06705,-0.17895001,9.765,-0.007425,0.01925,-0.381425
1692514850994,0.702,-0.84195006,9.95895,0.0132,0.0385,-0.2718375
1692514851021,-0.48495004,-0.12705001,10.27305,0.0158125,0.03575,-0.2102375
1692514851052,0.216,-0.51195,9.98595,-0.005225,0.011275,0.0155375
1692514851078,0.393,-0.531,9.897,-0.005225,0.011275,0.0155375
1692514851105,-0.00795,-0.21795002,9.186001,-0.02365,0.0149875,0.0823625
1692514851155,-0.102000006,-0.10305001,9.448951,-0.02805,-2.75E-4,0.076175
1692514851189,-0.102000006,-0.10305001,9.448951,-0.02805,-2.75E-4,0.076175
1692514851239,-0.102000006,-0.10305001,9.448951,-0.02805,-2.75E-4,0.076175
1692514851278,-0.102000006,-0.10305001,9.448951,-0.02805,-2.75E-4,0.076175
1692514851316,-0.171,-0.31095,9.901951,0.01265,0.04455,-0.0424875
1692514851348,-0.171,-0.31095,9.901951,0.01265,0.04455,-0.0424875
1692514851369,-0.171,-0.31095,9.901951,0.01265,0.04455,-0.0424875
1692514851393,-0.171,-0.31095,9.901951,0.01265,0.04455,-0.0424875
1692514851416,-0.075,-0.26295,9.729,-0.0345125,0.0048125,0.3496625
1692514851441,-0.042000003,-0.30600002,9.75105,-0.0114124995,0.0165,0.4120875
1692514851471,0.015000001,-0.29205,9.8539505,-0.0114124995,0.0165,0.4120875
1692514851497,0.097950004,-0.32505003,9.8869505,0.0275,0.0312125,0.0790625
1692514851535,-0.312,-0.186,9.97605,0.0259875,0.0204875,-0.0078375
1692514851573,-0.10605001,-0.37800002,10.213051,0.0213125,0.0204875,-0.26895
1692514851620,-0.42000002,-0.186,10.05,0.0191125,0.0515625,-0.2154625
1692514851657,-0.12105001,-0.49305,10.660951,0.0193875,0.056925,-0.154
1692514851698,-0.015000001,-0.34905002,9.772051,0.0026125,0.073425,-0.4866125
1692514851734,-0.010950001,-0.34905002,9.82995,-0.014025,0.0556875,-0.549725
1692514851769,-0.18495001,-0.19395001,9.957001,-0.025024999,0.0042625,-0.428725
1692514851802,0.11505,-0.31095,9.65295,-0.0089375,-0.0229625,-0.2534125
1692514851837,0.120000005,-0.34695002,9.448951,0.0075625,-0.0308,-0.2473625
1692514851847,0.19395001,-0.31095,9.35595,0.0075625,-0.0308,-0.2473625
1692514851861,0.094050005,-0.39495003,9.526051,0.0105875,-0.037125,-0.2717
1692514851877,-0.066,-0.30405003,9.739051,0.006875,-0.0477125,-0.278025
1692514851926,0.13905,-0.53295004,10.110001,-0.0072875,-0.0539,-0.2501125
1692514851944,0.063,-0.37305,9.847051,-0.013062499,-0.0438625,-0.192225
1692514851973,0.108,-0.24900001,9.226951,-0.026124999,-0.039875,0.0787875
1692514851999,0.08400001,-0.28905,9.67905,-0.0235125,-0.0455125,0.161425
1692514852029,0.14205001,-0.38505003,10.012051,-0.01045,-0.04675,0.1329625
1692514852053,0.14205001,-0.32805002,9.792001,0.005225,-0.043725,0.0319
1692514852081,0.15795001,-0.25605002,9.78195,0.014025,-0.0435875,-0.041249998
1692514852107,0.29505002,-0.22905001,9.837001,0.0125124995,-0.0493625,0.05335
1692514852134,0.25905,-0.22905001,9.93,0.0246125,-0.062975,0.2206875
1692514852162,0.20400001,-0.12705001,9.769951,0.0336875,-0.0688875,0.2253625
1692514852188,0.19695,-0.105000004,9.744,0.0408375,-0.07315,0.2014375
1692514852216,0.072000004,-0.01905,9.99495,0.0565125,-0.06545,0.055825
1692514852245,0.24000001,-0.00705,9.741,0.066,-0.051975,-0.042625
1692514852273,0.063,0.09,9.58605,0.085525,-0.0169125,-0.1486375
1692514852302,-0.025050001,0.19095,9.46395,0.0955625,-0.0033,-0.1560625
1692514852328,-0.33105,0.37995002,9.81795,0.1057375,0.0059125,-0.1687125
1692514852356,-0.19005,0.33,9.81105,0.1370875,0.0385,-0.34925
1692514852385,-0.042000003,0.43305,9.22395,0.159775,0.0713625,-0.519475
1692514852414,-0.11595,0.49500003,8.908051,0.181225,0.1043625,-0.6623375
1692514852441,-0.22395001,0.43995002,9.40905,0.20693749,0.1225125,-0.650375
1692514852467,0.321,-0.10695001,9.14295,0.214225,0.1087625,-0.6180625
1692514852498,0.32595003,0.16005,9.061951,0.1874125,0.0587125,-0.5770875
1692514852524,0.57495004,0.57105005,8.69295,0.1395625,0.0158125,-0.3696
1692514852553,1.1850001,0.86595005,7.8169503,0.090475,-0.0367125,-0.1137125
1692514852581,0.68700004,1.20105,7.70205,0.0875875,-0.1568875,-0.1810875
1692514852609,0.47700003,1.1700001,9.682051,0.139425,-0.2352625,-0.48125
1692514852638,1.38405,0.90195006,10.660951,0.280775,-0.3515875,-0.9805125
1692514852664,1.4170501,1.251,10.9480505,0.32725,-0.34595,-1.06755
1692514852692,0.97005004,1.6150501,11.701951,0.3141875,-0.34265,-0.8562125
1692514852720,0.37395,1.77495,12.625951,0.2908125,-0.3669875,-0.702075
1692514852746,0.109950006,1.8760501,14.79195,0.2800875,-0.3634125,-0.63525
1692514852775,0.42900002,1.65795,15.651001,0.2641375,-0.19813749,-0.762575
1692514852804,0.69900006,1.0330501,15.547951,0.2321,-0.0782375,-0.8525
1692514852831,0.98205006,0.53505003,12.02295,0.179025,0.013062499,-0.8756
1692514852859,0.88395005,0.47100002,8.97795,0.0270875,0.0512875,-0.6193
1692514852888,0.537,0.58095,5.9760003,-0.046475,0.021724999,-0.3851375
1692514852916,-0.13995,0.25500003,4.3840504,-0.1098625,-0.0499125,0.01815
1692514852942,-0.23595001,-0.30795002,3.834,-0.0969375,-0.0603625,0.11495
1692514852969,0.201,-0.522,1.96905,-0.075625,-0.0356125,0.2061125
1692514852998,0.28800002,-1.2559501,-1.17495,-0.104637496,0.0801625,0.6436375
1692514853022,-0.717,-1.3879501,-1.4239501,-0.1700875,0.10835,0.944075
1692514853052,-2.3400002,-2.592,6.4170003,-0.2706,0.0906125,1.2046375
1692514853080,-3.4450502,-4.1290503,14.84895,-0.651475,0.1706375,1.8748125
1692514853110,-3.4480503,-5.754,13.377001,-1.005125,0.499125,2.6904626
1692514853149,-5.1589503,-5.7439504,22.069052,-1.9606125,1.0352376,6.0724125
1692514853174,-3.321,-5.33505,28.918951,-2.60865,0.4706625,7.9869623
1692514853198,-0.66405004,0.36795002,20.494051,-2.343275,0.3009875,7.197575
1692514853224,-0.68100005,2.73,17.298,-1.5622749,0.4338125,4.8717623
1692514853314,2.52795,0.70500004,7.6159506,2.53825,0.879175,-7.772187
1692514853341,2.9880002,2.8600502,5.84205,2.343275,0.550825,-6.9172125
1692514853418,3.7390501,2.628,2.8549502,1.602425,-0.78485,-3.1473749
1692514853464,4.16295,0.58305,7.8739505,1.81885,-1.444025,-2.1058125
1692514853484,3.318,0.49695003,6.9600005,1.7743,-1.719575,-1.4870625
1692514853509,0.68295,2.5560002,8.55195,1.540825,-1.885675,-0.839575
1692514853535,0.50805,1.86405,17.977951,0.8305,-1.6402375,0.0078375
1692514853561,0.32595003,4.5690002,17.913,0.554675,-1.181125,0.07975
1692514853588,-3.8140502,1.9530001,19.126951,0.3795,-0.56925,-0.0066
1692514853616,-0.022950001,-7.485,27.931051,0.300575,0.0760375,-0.171875
1692514853643,0.92205006,-6.4150505,20.254051,-0.0884125,1.151425,-0.2501125
1692514853670,0.034050003,-2.6779501,7.5850506,-0.713625,1.4025,0.31707498
1692514853698,-0.80805004,-1.8880501,-0.59595,-1.7216375,1.084325,2.1338625
1692514853726,-0.975,-5.26305,-1.4620501,-1.674475,0.779625,2.5018125
1692514853752,-2.043,-9.41895,5.38005,-1.4966875,0.4038375,2.7457376
1692514853779,-1.983,-10.339951,9.01605,-1.68795,0.231,3.6718
1692514853807,-2.32005,-7.3099504,4.9350004,-2.2279124,-0.1249875,5.6386
1692514853836,-2.8950002,-4.77495,0.92295,-2.7765374,-1.1517,9.02935
1692514853865,-3.11805,-3.1930501,-0.45195,-3.199625,-1.656875,9.119412
1692514853894,-3.012,-3.37995,4.329,-3.3350625,-1.9529124,7.97885
1692514853928,-2.12205,-3.2410502,17.07105,-3.32035,-1.9786249,7.539125
1692514853958,-2.2750502,-0.43305,16.16295,-2.419175,-1.59665,6.2767377
1692514853982,-2.4379501,2.56005,12.23295,-0.975425,-1.0390875,4.3954625
1692514854012,-1.2070501,-1.8070501,19.194,0.7781125,-0.4728625,2.3813624
1692514854043,1.48395,-2.9650502,22.95705,3.5525875,1.2379125,-3.0611625
1692514854074,0.975,0.45600003,14.517001,4.3051248,1.8572125,-6.103075
1692514854101,-0.28095,3.6180003,8.085,3.9689374,1.4823875,-8.2632
1692514854128,1.4580001,4.4419503,5.45895,3.4352999,1.0014125,-7.8398376
1692514854155,4.11,2.80005,8.865001,2.800875,0.5083375,-6.7090373
1692514854182,5.78805,2.02005,11.527051,2.7308874,0.301125,-6.4834
1692514854209,5.28795,2.6800501,10.54605,2.6129124,-0.086075,-5.5771375
1692514854235,4.17495,3.2209501,5.8950005,2.0849125,-1.1831875,-3.202925
1692514854265,4.0360503,2.5530002,3.17595,1.7939625,-1.582625,-2.369675
1692514854294,2.6790001,1.3780501,10.9140005,1.4218875,-1.890625,-1.66155
1692514854323,1.8600001,0.55005,19.158,1.2967625,-1.8871875,-1.425325
1692514854351,0.094050005,0.76305,18.313051,1.1067375,-1.708575,-1.1059124
1692514854377,2.2410002,-1.9939501,21.79305,0.4013625,-0.6337375,-0.3700125
1692514854403,2.35095,-2.5440001,20.175001,0.047849998,-0.0372625,-0.011275
1692514854433,1.4800501,-2.061,14.221951,-0.2388375,0.3647875,0.4142875
1692514854459,-0.15195,-3.0540001,7.8190503,-0.61448747,0.5203,1.399475
1692514854487,-0.22095,-3.9799502,3.4129503,-0.67705,0.506825,1.8414
1692514854515,-0.94695,-4.9159503,0.033,-0.6843375,0.461725,2.28855
1692514854545,-0.96795005,-7.05105,-0.675,-0.750475,0.3089625,3.824425
1692514854572,-2.052,-8.799001,0.897,-0.8988375,0.132,5.0896997
1692514854599,-3.72795,-8.193001,6.0979505,-1.7224625,-0.4384875,7.578175
1692514854627,-4.12995,-5.11005,4.662,-2.42935,-0.9260625,8.531737
1692514854654,-2.1049502,-4.5550504,5.4640503,-3.3848374,-1.2698125,8.4832
1692514854684,-1.5520501,-1.9939501,12.046051,-3.227125,-1.0481625,7.621075
1692514854715,-2.80605,0.483,14.257951,-2.7432625,-0.740025,6.4627748
1692514854746,-2.8590002,0.89505005,17.74995,-0.8592375,-0.1287,3.7610376
1692514854776,-1.9399501,-0.79395,22.753052,0.505725,0.1947,2.3390124
1692514854804,0.53400004,-0.20805001,19.243952,2.8516126,0.9373375,-0.7348
1692514854836,0.80700004,1.029,11.842951,3.4703624,1.2192125,-2.7706249
1692514854863,-0.46995002,1.8210001,10.416,3.5781624,0.88467497,-6.714125
1692514854893,1.5469501,2.32605,7.1800504,2.8920374,0.518925,-7.54325
1692514854925,4.95795,3.31395,-0.57195,2.6114,0.4189625,-7.4085
1692514854951,8.6320505,4.5589504,-2.121,2.38315,0.261525,-7.00535
1692514854978,11.073001,3.7380002,6.8569503,1.7776,0.003575,-5.904525
1692514855006,7.2960005,1.42095,13.47105,1.521575,-0.736175,-5.049
1692514855034,2.69805,0.83505005,14.395051,1.2172875,-3.2723625,-3.22465
1692514855065,3.1669502,0.33705002,15.498001,0.9978375,-3.4310374,-2.4941125
1692514855095,2.9659503,-0.22905001,19.129051,0.5270375,-2.738175,-2.024275
1692514855122,4.2900004,-1.098,22.03005,-0.302775,-0.824725,-1.3963125
1692514855154,3.8089502,-2.3790002,21.468,-0.5083375,-0.1618375,-0.9785875
1692514855182,3.3130503,-2.7840002,14.866051,-0.6303,0.5080625,0.1478125
1692514855212,-0.573,-2.59695,4.2840004,-0.6204,0.59455,0.7913125
1692514855242,-2.6940002,-3.3439503,-0.768,-0.51535,0.4857875,1.9475499
1692514855271,-1.94895,-6.4669504,-1.26795,-0.414975,0.4222625,2.5117126
1692514855299,-1.32,-9.591001,0.94695,-0.2715625,0.395175,4.5947
1692514855326,-2.5240502,-10.177051,4.8439503,-0.44701248,0.2327875,6.5241
1692514855352,-3.7020001,-9.4140005,7.6450505,-0.97583747,-0.2077625,8.212325
1692514855381,-5.451,-7.4730005,4.41795,-2.705725,-1.254825,9.90715
1692514855408,-3.0600002,-6.7330503,6.8550005,-3.216675,-1.31945,9.261038
1692514855439,-1.899,-4.85895,12.772051,-3.0595124,-0.8045125,7.2793875
1692514855467,-2.301,-0.99495006,13.612051,-2.5928376,-0.4808375,6.4068127
1692514855497,0.16995001,0.15495001,15.919051,-1.7699,-0.1640375,4.8866124
1692514855524,0.381,0.15495001,19.618052,0.55385,0.408925,1.860925
1692514855552,0.726,0.109050006,20.901001,1.7725124,0.7261375,0.2809125
1692514855583,0.558,0.6,18.47805,3.6476,1.5698375,-4.2812
1692514855611,0.65595,2.529,10.33005,3.4736624,1.4049749,-6.6823626
1692514855640,2.29605,3.6040502,4.155,2.589675,0.5732375,-9.457937
1692514855671,4.5430503,2.9239502,4.39905,2.528625,0.573925,-9.437175
1692514855693,5.9680505,1.8739501,6.1770005,2.4077625,0.377575,-8.8781
1692514855724,7.6720505,2.1700501,8.298,1.9459,0.16775,-6.937425
1692514855750,6.74595,2.94105,6.0810003,1.735525,-0.3205125,-5.7641373
1692514855779,5.71395,1.83,5.4019504,1.412675,-1.86725,-3.2432125
1692514855808,3.34905,0.94005007,12.54705,1.279575,-2.313025,-2.482975
1692514855835,2.63595,1.2540001,18.363,0.9384375,-2.3021624,-1.54935
1692514855865,2.1400502,-1.9240501,22.899,0.6378625,-1.7604125,-1.2673374
1692514855892,2.20005,-4.545,25.827002,0.2932875,-0.967175,-1.0641125
1692514855919,-0.051000003,-1.812,15.08205,-0.3042875,0.5014625,-0.4186875
1692514855950,-1.1209501,-1.7539501,6.5820003,-0.5163125,0.9288125,0.15015
1692514855970,-1.251,-3.25005,4.55205,-0.6282375,1.1396,0.7346625
1692514856005,0.16305001,-5.4949503,3.3000002,-0.579425,0.5548125,1.5768499
1692514856034,-0.043950003,-7.1280003,2.56305,-0.6589,0.157025,2.8391
1692514856062,-0.87000006,-8.10705,1.2030001,-0.8943,0.078099996,3.9133875
1692514856088,-1.9900501,-8.23095,1.143,-1.2535875,-0.1326875,5.14305
1692514856120,-4.64505,-6.2520003,0.44895002,-1.37885,-0.7423625,7.25175
1692514856152,-6.4609504,-5.45205,2.529,-1.628,-1.1297,8.139725
1692514856182,-3.7060502,-4.4689503,7.77405,-2.957625,-1.8561125,8.805912
1692514856209,-3.2659502,-5.2489505,11.10795,-3.2095249,-1.8385125,8.715438
1692514856232,-2.3400002,-3.5830503,20.050951,-2.3826,-1.4359125,7.2287874
1692514856269,-2.67705,-3.0970502,22.62405,-1.225675,-1.1320375,5.947975
1692514856292,-1.50405,-2.772,23.347052,0.27665,-0.6906625,3.8479376
1692514856323,2.4850502,-1.16805,16.38105,0.6358,0.2374625,-1.7494125
1692514856356,2.9160001,1.62495,7.8289504,2.5515876,2.124375,-8.90615
1692514856381,2.90895,2.8639503,5.952,2.9931,2.3326874,-10.6205
1692514856409,2.5159502,2.6850002,8.157001,2.924075,1.9591,-10.617613
1692514856440,5.295,2.18205,10.29705,2.4974124,0.8419125,-8.585225
1692514856470,7.0969505,1.04505,7.7160006,2.347675,0.3295875,-7.4267874
1692514856500,5.9010005,1.74405,6.9240003,1.9889375,-0.7601,-5.1588626
1692514856524,4.48605,1.299,7.42395,1.717375,-1.326875,-3.74605
1692514856562,3.9790502,-4.51905,17.145,1.184975,-1.990725,-2.5422375
1692514856584,4.2439504,-3.48495,21.76905,0.8999375,-1.9309125,-2.1714
1692514856612,3.0040503,-0.282,15.541051,0.522225,-1.606825,-1.7144874
1692514856638,2.64105,-2.0700002,20.46195,-0.2325125,-0.583,-0.6131125
1692514856667,0.58005005,-3.04005,16.111052,-0.350625,-0.1606,-0.2102375
1692514856697,-1.521,-1.9720501,10.6050005,-0.2358125,0.3339875,0.3707
1692514856725,-1.53495,-3.0010502,3.4699502,-0.2014375,0.5071,0.7143125
1692514856750,-1.452,-6.0220504,-4.46595,-0.20405,0.6722375,1.0725
1692514856778,-1.10895,-9.46395,1.15995,-0.10835,0.298925,2.0246875
1692514856809,-1.21905,-11.21895,10.617001,0.0853875,0.1208625,3.1207
1692514856831,-1.31295,-10.5390005,9.93,0.2303125,-0.0037125,5.0788374
1692514856866,-3.5700002,-7.5319505,1.131,-0.2457125,-0.6543625,8.776762
1692514856892,-5.451,-5.67,-2.4439502,-1.155275,-1.38325,8.886763
1692514856921,-3.4360502,-4.5210004,-2.5870502,-2.0868375,-1.827925,7.5777626
1692514856953,-4.9510503,-2.9610002,11.61795,-3.1508124,-2.4300375,7.4402623
1692514856979,-5.2650003,-2.23305,21.19005,-3.4258125,-2.4514875,7.1053123
1692514857008,-0.85095006,-2.4100502,19.33695,-2.8138,-2.1030624,6.56865
1692514857037,-1.4970001,-2.8170002,21.226051,1.4262875,-0.4972,2.7578375
1692514857066,1.3740001,-1.4140501,23.565,3.52715,0.83105,-0.5429875
1692514857095,3.4740002,-0.72,12.11295,3.0815125,0.879725,-8.34955
1692514857122,1.95105,-0.54300004,8.43,2.5375624,0.5696625,-10.7057495
1692514857150,1.57305,0.77205,12.219001,2.3634875,0.5102625,-11.035475
1692514857178,3.6079502,1.43295,9.361051,1.9866,0.1750375,-8.151137
1692514857205,5.0599504,2.091,4.9399505,1.7320875,-0.03355,-6.6297
1692514857235,7.6069503,2.436,5.3179502,1.51415,-0.513425,-4.689025
1692514857265,6.7429504,2.14905,7.4410505,1.4678125,-0.951225,-3.8443625
1692514857314,1.6380001,2.9989502,6.2970004,1.41295,-2.385075,-1.990725
1692514857334,1.623,5.2320004,5.77995,1.3360875,-2.373525,-1.67145
1692514857358,1.7689501,3.5749502,9.229051,1.1963875,-1.9782125,-1.5455
1692514857382,1.2739501,0.86595005,15.739951,1.0742875,-1.4311,-1.613975
1692514857415,1.07295,-3.2290502,26.122952,0.87835,-0.4554,-1.66485
1692514857442,0.24405001,-4.07595,13.674001,0.6092625,0.1907125,-1.237775
1692514857468,-0.49395,-5.91405,11.446051,0.3042875,0.7997,-0.4954125
1692514857495,1.1040001,-6.69495,12.160951,-0.2473625,0.857175,1.3561625
1692514857525,-0.37395,-5.1130505,4.59705,-0.3900875,0.775775,2.34025
1692514857551,0.558,-7.0470004,-1.19895,-0.2154625,0.54065,3.3837376
1692514857579,-0.62805,-7.9030504,0.08805001,-0.4038375,-0.0191125,5.6013374
1692514857607,-2.08095,-7.46295,3.4410002,-0.918775,-0.6172375,6.5008626
1692514857637,-5.1210003,-4.1449504,1.2940501,-0.6736125,-0.36025,8.119375
1692514857666,-3.5749502,-4.29405,2.9290502,-0.4577375,-0.1315875,8.175338
1692514857692,-0.99195004,-4.485,9.411,-0.308,0.0171875,7.93705
1692514857723,-4.4940004,0.56700003,9.141001,-0.9383,-0.2998875,7.0965123
1692514857755,-3.0529501,-2.046,14.587951,-0.7775625,-0.2814625,6.4865623
1692514857789,-1.8870001,-5.74695,28.279951,0.6397875,0.0946,4.230875
1692514857816,-1.03995,-1.7830501,21.05595,2.343,0.708125,1.1125125
1692514857843,-1.6789501,2.46495,11.04405,3.0603375,1.2046375,-1.56255
1692514857869,-0.17295001,2.45295,9.226951,3.5024,1.697575,-4.4067373
1692514857898,2.676,2.9629502,7.3720503,3.7307875,2.3082125,-8.195687
1692514857926,4.701,3.17805,2.9509501,3.1834,2.0046124,-9.2279
1692514857959,4.7800503,1.26795,4.39605,2.6631,0.8240375,-8.335387
1692514857977,3.5640001,0.966,7.3429503,2.5004375,0.028324999,-6.8173876
1692514858013,4.809,2.6560502,7.4100003,2.2760375,-0.7533625,-5.4707127
1692514858046,7.7080503,3.3649502,3.24495,1.57905,-1.7021124,-3.1845
1692514858078,4.065,3.6210003,9.436951,1.320275,-2.19945,-2.092475
1692514858112,2.2380002,1.6800001,23.143051,1.4397625,-2.5337124,-1.7010125
1692514858143,3.7369502,-3.41805,23.122051,1.3597375,-2.0758374,-1.28975
1692514858168,5.0940003,-4.1929502,23.038052,0.9117625,-1.087625,-1.091475
1692514858200,2.2099502,-0.49005002,10.816051,-0.2300375,0.3950375,0.2424125
1692514858233,-2.6839502,-3.2569501,14.718,-0.56155,0.5663625,1.1026125
1692514858266,-0.59895,-5.73705,13.585951,-0.5754375,0.6067875,1.9248625
1692514858293,-1.7869501,-4.5760503,3.1900501,-0.5080625,0.767525,2.0948124
1692514858328,-2.8279502,-5.29395,-0.63900006,-0.683375,1.084875,2.923525
1692514858357,-2.28705,-7.1730003,0.20700002,-0.8635,1.0448625,3.4522126
1692514858390,-2.028,-8.290951,3.525,-0.1711875,0.6923125,4.7498
1692514858422,-3.4620001,-6.3619504,3.20895,-0.389125,-0.073699996,6.429225
1692514858447,-2.457,-6.6130505,2.661,-1.587025,-0.5115,6.861525
1692514858473,0.0049500004,-7.2330003,11.556001,-2.327875,-0.7869125,6.76115
1692514858501,-0.88695,-2.14695,11.23995,-2.653475,-0.83393747,5.609175
1692514858530,-1.7029501,-1.1010001,14.0119505,-2.19175,-0.693275,4.230875
1692514858560,-8.125051,-5.151,32.06895,-0.189475,-0.1478125,1.2846625
1692514858595,-4.03905,-2.736,30.742952,1.97175,0.8196375,-0.8679
1692514858625,-0.19995001,2.24895,17.083052,2.754675,1.37885,-2.091925
1692514858657,0.52695,5.103,7.5700502,1.149225,1.2159125,-5.3420124
1692514858683,1.9990501,6.0529504,3.97305,1.0652125,1.1715,-6.523
1692514858714,2.50605,4.79895,0.87495005,1.49215,0.96965,-7.3129373
1692514858744,3.7459502,2.9269502,3.1300502,2.1665876,0.3689125,-7.0197873
1692514858775,5.5540504,2.29005,2.4019501,2.4156,-0.0053625,-6.4262
1692514858806,5.247,3.6859503,-0.53805,2.414775,-0.8877,-3.7423375
1692514858843,2.5110002,2.01195,4.07595,1.698125,-1.877975,-1.4047
1692514858873,0.558,1.9570501,12.099001,1.3347125,-2.363075,-0.75075
1692514858906,-0.55395,5.268,14.722951,1.4350874,-2.425225,-0.3529625
1692514858930,-4.3650002,0.78405005,24.735,1.1081125,-1.6262125,-0.4203375
1692514858966,-1.8370501,-2.7520502,27.069002,0.3634125,0.403975,-0.896225
1692514858999,-1.24605,-2.7240002,14.904,-0.7583125,1.6592125,-0.31955
1692514859029,-1.31295,-2.973,9.528001,-0.6392375,1.6801125,0.573375
1692514859056,-0.77895004,-4.22895,9.66495,-0.8911375,1.214675,1.934075
1692514859081,-2.0070002,-3.6000001,3.7090502,-1.07085,0.8349,2.1863875
1692514859108,-3.5749502,-3.5020502,-1.1920501,-1.2247125,0.5929,2.2913
1692514859139,-3.5389502,-4.2319503,-1.9429501,-1.362625,0.5636125,2.3683
1692514859168,0.25395,-8.34195,3.7600503,-1.81335,0.6516125,3.1328
1692514859193,-3.4429502,-5.29005,0.08295,-1.9834375,0.2762375,5.920475
1692514859224,-3.4429502,-3.7459502,-2.17995,-2.0513625,0.0394625,6.7351623
1692514859250,-2.1049502,-4.275,1.8090001,-1.9481,0.0628375,6.9782624
1692514859279,-1.9350001,0.75600004,18.076052,-1.623325,0.4976125,6.662425
1692514859311,-4.83405,4.52295,13.045051,-1.6006374,0.341825,6.292275
1692514859340,-4.49205,2.5410001,19.704,-0.88577497,0.070125,4.9086123
1692514859370,-4.635,0.231,23.011951,3.0427375,0.451275,1.4551625
1692514859400,-4.1680503,0.48495004,18.184052,5.2058873,0.9469625,-2.1714
1692514859428,0.201,0.09,16.636951,5.1706877,0.914375,-3.7486625
1692514859455,1.2229501,1.15995,13.33695,4.7271123,0.7929625,-4.912325
1692514859486,3.6750002,4.6530004,2.568,3.6939375,0.318175,-6.4538374
1692514859512,5.1919503,3.1330502,-1.5600001,3.3034375,-0.1027125,-6.7364
1692514859542,3.9790502,2.3860502,3.6400502,2.8457,-1.01805,-6.209775
1692514859570,3.9520502,1.8259501,11.72805,2.676025,-1.435775,-5.4186
1692514859602,3.5860503,0.79200006,10.074,2.1987624,-2.1313875,-3.2979374
1692514859635,3.15,0.25095,10.833,1.81885,-2.2616,-2.314125
1692514859665,1.8940501,3.44895,15.109951,0.8811,-1.926925,-0.82568747
1692514859696,-4.23105,1.4310001,15.802051,0.35433748,-1.215775,-0.0889625
1692514859726,-5.2770004,-4.308,24.709051,0.3070375,-0.688325,-0.049225
1692514859755,-1.78005,-3.28605,13.80105,-0.02695,0.810425,0.2080375
1692514859785,0.80205005,-2.424,5.5360503,-0.4849625,1.463275,0.92193747
1692514859816,0.0049500004,-2.45295,2.2399502,-0.94325,1.7226,1.8715125
1692514859846,-1.9230001,-4.782,8.241,-1.3223375,1.2172875,3.12565
1692514859873,-3.4429502,-4.55205,9.885,-1.3503875,0.842875,3.3957
1692514859903,-3.1729503,-4.50705,6.2200503,-1.556775,0.49101248,3.7345
1692514859933,-3.42405,-3.8370001,3.9970503,-1.727825,0.531575,3.739175
1692514859962,-2.1720002,-4.11705,2.5200002,-1.9765625,0.7247625,3.490025
1692514859989,-3.0649502,-4.32495,5.01405,-2.0856,0.7324625,3.4799874
1692514860018,-3.0979502,-3.1519501,15.433051,-2.35565,0.505725,3.5096874
1692514860044,-4.1350503,-0.28005,11.026951,-2.3623874,0.40315,3.2335875
1692514860075,-4.98705,1.8210001,13.191001,-1.3613875,0.5093,1.7958875
1692514860106,-4.8310504,0.53805,19.93605,-0.34814999,0.727375,0.823075
1692514860133,-2.9620502,1.6530001,14.890051,1.920325,1.205325,-1.5882624
1692514860162,-1.557,2.5770001,13.52805,2.8164124,1.2442375,-3.0856376
1692514860190,1.79295,2.89995,13.996951,3.34345,1.09395,-4.399725
1692514860223,4.1530504,4.0230002,8.14995,3.532925,0.4365625,-5.666925
1692514860249,4.3639503,3.9630003,5.67495,3.0064375,0.210375,-5.6021624
1692514860279,4.24905,3.0679502,3.966,2.50745,-0.1634875,-5.1748123
1692514860305,2.7630002,2.2450502,4.15695,2.3170125,-1.3891625,-3.8053124
1692514860338,3.10695,0.36795002,6.3829503,1.9927875,-1.9947125,-2.3021624
1692514860359,2.7460501,0.21495001,6.1390505,1.7468,-2.0557625,-1.62745
1692514860396,1.5319501,4.33395,9.3820505,1.4196875,-1.9892125,-1.0142
1692514860420,-1.9399501,3.6330001,14.28705,0.7569375,-1.631025,-0.101475
1692514860446,-2.09295,-0.411,24.678001,0.6686625,-1.3102375,-0.0198
1692514860475,0.44295,-3.2430003,22.27395,0.5082,-0.094325,-0.138325
1692514860503,0.44805002,-1.4650501,12.340951,-0.0015125,0.5905625,0.3268375
1692514860529,-0.88395005,-2.0010002,11.22105,-0.609675,0.99233747,1.1193875
1692514860555,-1.64505,-2.86995,9.061951,-1.175625,0.9163,2.22915
1692514860585,-1.88205,-3.1330502,5.80905,-1.1944625,0.7854,2.402125
1692514860613,-1.8970501,-4.04505,1.55295,-1.1911625,0.72985,2.501125
1692514860641,-1.4680501,-5.4739504,-0.18405001,-1.302125,0.7374125,2.7654
1692514860667,-2.39505,-5.8500004,1.4449501,-1.4883,0.722425,3.06075
1692514860697,-4.00605,-5.4139504,-0.91695005,-2.37325,0.4882625,4.390375
1692514860729,-5.16405,-5.18895,0.82305,-3.0604749,0.234575,5.3735
1692514860757,-4.80705,-5.08605,11.838,-4.4374,-0.2638625,6.9598374
1692514860792,-3.486,-2.2759502,17.212051,-4.7964125,-0.381975,7.3008375
1692514860820,-5.1469502,-1.8070501,18.817951,-2.9535,-0.2451625,5.4481626
1692514860846,-5.7910504,-1.608,22.401001,-1.0388125,-0.075625,3.40725
1692514860880,-2.8470001,-1.05795,18.25995,1.40965,0.173525,-0.32725
1692514860904,-2.4139502,2.3040001,13.921051,1.4531,-0.0209,-2.0376124
1692514860939,-1.15995,5.79195,8.89605,2.00695,0.4701125,-5.0788374
1692514860965,1.5469501,5.0620503,6.4789505,1.3413125,0.6237,-6.030475
1692514860991,2.42505,4.16895,5.7889504,0.7722,0.645975,-6.642075
1692514861022,5.2780504,2.604,8.97105,-0.052249998,0.1920875,-6.6430373
1692514861052,5.2330503,2.4120002,9.934951,0.01375,-0.6419875,-4.690675
1692514861092,2.085,3.3460503,5.1790504,0.52965,-1.3267375,-3.5132625
1692514861126,2.013,0.40095,16.20195,0.7909,-2.2603624,-1.7683874
1692514861150,3.32505,0.18405001,17.68305,0.8229375,-2.2952874,-1.3547875
1692514861172,2.7580502,2.26605,12.870001,0.7539125,-2.0510874,-1.0762125
1692514861196,0.66795003,1.20105,15.792001,0.141075,-1.2846625,-0.339625
1692514861230,-2.83995,-0.54300004,15.832951,-0.107525,-0.975425,-0.0121
1692514861252,-2.4859502,-1.1029501,10.375951,-0.1964875,-0.66055,0.18755
1692514861283,0.89295006,-4.3390503,4.95195,-0.342375,0.2497,0.6400625
1692514861317,0.47400004,-6.1969504,6.0220504,-0.661375,0.8586875,1.510025
1692514861342,-0.786,-7.5280504,8.6980505,-0.9296375,0.79983747,2.21485
1692514861369,-3.2400002,-7.5280504,5.2870502,-1.3358124,0.5759875,3.180925
1692514861395,-4.46505,-6.8569503,0.82005006,-1.628275,0.1035375,5.12215
1692514861423,-3.9910502,-5.754,1.593,-2.2284625,0.022,5.7281127
1692514861453,-4.5199504,-5.0410504,2.83095,-3.175425,0.01705,6.5913377
1692514861485,-2.77305,-6.0700502,8.487,-3.4761374,-0.03025,6.478175
1692514861503,-0.60405004,-6.11805,14.215051,-3.677025,-0.088,6.6394625
1692514861539,0.43095002,0.14505,14.074051,-2.7930374,-0.117837496,4.647775
1692514861569,-3.31395,5.94495,10.88595,-1.612325,-0.057475,2.7709
1692514861593,-1.5829501,0.777,18.199951,1.14675,0.3905,-1.0274
1692514861619,2.25,-3.1519501,24.649052,2.3051875,0.781825,-2.4828374
1692514861646,3.2700002,-1.4310001,15.687,3.13995,1.1122375,-3.8110874
1692514861675,0.91695005,1.8420001,10.77795,3.44465,1.123925,-4.95605
1692514861703,0.915,4.8559504,7.3330503,2.7201624,0.3293125,-5.753
1692514861730,3.38295,4.1520004,2.67105,2.3183875,0.046475,-5.762075
1692514861759,3.8490002,2.4,2.8620002,2.1605375,-0.0680625,-6.0960627
1692514861783,4.62195,1.58895,6.6730504,2.2094874,-0.251625,-6.075575
1692514861814,4.5150003,1.16295,8.401051,2.0092876,-1.1046749,-4.7147374
1692514861841,3.08295,2.1660001,6.2470503,1.7315375,-1.5305125,-3.7232249
1692514861871,1.7380501,2.46,7.3000503,1.3976874,-1.802625,-2.873475
1692514861902,3.7890003,0.99495006,18.729,0.89045,-1.7463875,-1.9756
1692514861930,0.675,-0.24900001,18.88005,0.7530875,-1.44045,-1.7345625
1692514861958,-1.57605,-2.1709502,25.822052,0.31625,-0.4466,-0.9439375
1692514861983,-0.71895003,-1.113,17.10705,-0.01375,0.131725,-0.4054875
1692514862009,-0.135,-0.64605004,6.9700503,-0.3304125,0.684475,0.129525
1692514862039,-0.73395,-3.3030002,4.48005,-0.6395125,1.2841125,1.116225
1692514862062,-0.078,-7.0969505,9.588,-0.626175,1.2431375,1.595825
1692514862092,0.29700002,-8.917951,10.321051,-0.6441875,1.0835,2.1767626
1692514862122,-1.8229501,-7.281,2.97705,-1.2467124,0.6271375,4.0528126
1692514862149,-2.5890002,-6.9360003,-0.507,-1.7226,0.3091,5.0447373
1692514862175,-3.177,-7.2570004,3.252,-2.4781625,-0.2657875,6.0966125
1692514862203,-4.66905,-5.352,4.413,-2.8337374,-0.49665,6.4845
1692514862232,-4.116,-4.1860504,2.80005,-3.3012376,-0.814,6.550225
1692514862261,-0.61095005,-3.9420002,6.498,-3.2891374,-0.8118,6.7139874
1692514862288,-1.18605,-1.04805,10.371,-3.0492,-0.774675,6.369
1692514862319,-3.2059503,3.3049502,19.539001,-1.8456625,-0.6615125,4.6993375
1692514862339,-2.256,2.1420002,16.567951,-0.5379,-0.37867498,3.1719875
1692514862371,0.49095002,-0.072000004,19.098001,1.2126125,0.193875,1.114025
1692514862399,2.84205,-1.149,13.839001,4.3319373,1.5695624,-5.06495
1692514862428,0.051000003,0.79605,13.19295,4.6099625,1.578775,-7.14395
1692514862454,0.17505,2.6130002,10.617001,4.1938877,1.0929875,-7.5670376
1692514862483,1.4770501,5.517,4.07805,2.8417125,0.1296625,-6.3212876
1692514862510,2.65995,6.201,0.76305,2.4462626,-0.0273625,-5.8355
1692514862538,3.7890003,5.0790005,0.93000007,2.4435124,-0.219175,-6.1722374
1692514862568,4.1290503,3.69495,11.2570505,2.6691499,-0.5311625,-6.3201876
1692514862594,4.1269503,2.30205,11.967001,2.9605124,-1.516075,-4.995375
1692514862624,4.6249504,1.8780001,7.5700502,2.482425,-1.86725,-3.760075
1692514862651,2.7840002,0.79905003,14.116951,1.1999625,-1.869725,-1.6044875
1692514862681,0.48900002,-3.4350002,26.868002,0.806575,-1.7034875,-0.8305
1692514862707,0.79005,-5.1529503,29.677952,0.384175,-1.3671625,-0.1772375
1692514862736,0.216,-2.5729501,12.216001,-0.87229997,0.0578875,1.1361625
1692514862762,-1.8510001,-2.3809502,6.3739505,-1.3666124,0.6557375,1.7620625
1692514862791,-2.196,-6.0720005,14.026051,-1.5461875,0.9117625,2.1819875
1692514862820,0.68295,-9.667951,16.984951,-1.3916374,0.9378875,2.7372124
1692514862849,-4.0009503,-4.04505,0.80100006,-1.4051125,0.8943,3.35995
1692514862881,-0.12795001,-6.05595,-1.3470001,-1.7703125,0.393525,4.967325
1692514862904,-0.42000002,-6.88395,0.021000002,-1.9267875,0.0583,5.3029623
1692514862936,-2.8180501,-4.7920504,0.17595,-2.291025,-0.484,5.631175
1692514862962,-6.16905,-2.3740501,0.16395001,-2.2644875,-0.49307498,5.9079623
1692514862990,-7.0309505,-1.27995,-0.72705,-2.3420374,-0.5317125,6.0825872
1692514863017,-3.177,-0.711,5.54295,-2.0444875,-0.3773,6.6268125
1692514863046,-1.2550501,-0.83505005,7.9890003,-1.801525,-0.3048375,6.9961376
1692514863076,-1.99995,-2.4100502,19.972052,-1.4119875,-0.2459875,7.0005374
1692514863103,-2.4829502,-5.6970005,31.071001,-0.3177625,-0.31405,5.6065626
1692514863130,-4.14405,-2.4460502,27.952051,1.4315125,-0.300575,2.70655
1692514863160,-1.3249501,-1.5840001,20.968052,2.0351374,-0.1838375,-0.90433747
1692514863185,1.5780001,0.078,13.530001,1.019975,-0.050325,-6.57965
1692514863218,4.158,1.3660501,6.8910003,0.47753748,0.0312125,-8.645312
1692514863244,6.5350504,2.2090502,2.1679502,0.6428125,0.0132,-8.51015
1692514863279,7.5379505,1.93605,0.36495003,0.9785875,-0.144375,-7.7375374
1692514863314,6.2980504,2.70405,5.1340504,1.1433125,-1.7276875,-4.6278377
1692514863340,3.9910502,4.03695,5.63595,1.1433125,-1.7276875,-4.6278377
1692514863385,4.5430503,0.63600004,9.6,1.2766875,-3.0460374,-2.7753
1692514863412,3.6790502,3.8239503,13.375051,1.3492875,-2.25445,-2.781075
1692514863434,-1.9210501,4.26,13.138051,1.22705,-1.7263125,-2.6317499
1692514863460,0.68295,-3.6499503,33.14205,1.01695,-1.198725,-2.3351624
1692514863494,3.1030502,-4.25595,24.441002,0.251625,0.3212,-1.5698375
1692514863517,0.76905006,-0.42795002,15.0070505,-0.33165,0.9988,-0.69685
1692514863550,-1.2100501,-0.69600004,0.294,-0.7962625,1.263625,0.4728625
1692514863577,-2.5740001,-6.46005,2.2039502,-0.8454875,1.0329,1.8899375
1692514863607,-1.9450501,-10.816951,15.397951,-0.66316247,0.9112125,2.101
1692514863634,-1.96905,-9.220051,11.6320505,-0.64033747,0.854975,2.7544
1692514863660,-2.15295,-5.97195,3.6210003,-0.69575,0.64762497,6.8882
1692514863685,-1.2580501,-4.99305,1.24905,-0.0556875,0.4841375,8.741975
1692514863718,-0.98700005,-3.01305,-2.085,-0.978175,-0.278025,8.470412
1692514863745,-2.2680001,-2.1660001,-4.986,-1.44595,-0.5765375,7.5736375
1692514863774,-1.65495,-2.4079502,-2.9320502,-2.1756625,-1.0110375,6.372025
1692514863802,-0.35505003,-3.9589503,6.26805,-2.59545,-1.171775,6.0075126
1692514863828,-2.301,0.24300002,12.36705,-3.031325,-1.241075,5.7743125
1692514863862,-1.9710001,1.8930001,18.511951,-1.9496125,-0.905575,4.227025
1692514863888,-0.68295,-0.20295002,21.94395,0.034375,-0.6106375,3.0581374
1692514863918,-5.3959503,0.61005,20.323952,2.7875376,-0.0235125,-0.429825
1692514863950,-2.6920502,-2.6470501,24.007051,2.090275,0.0402875,-4.2431126
1692514863973,2.2810502,-1.4449501,20.142,0.9106625,0.352,-13.0196
1692514864000,3.6079502,2.1030002,12.81,0.539825,0.48455,-14.0052
1692514864028,4.3380003,5.478,2.66805,0.4464625,0.3284875,-12.01585
1692514864053,5.68305,5.2440004,0.753,0.5718625,-0.1265,-9.378875
1692514864082,7.2030005,3.3960001,1.5480001,1.111,-0.9420125,-6.53895
1692514864112,6.05595,2.7280502,4.64295,1.4667125,-1.38655,-5.24645
1692514864138,4.04295,2.50305,5.0020504,1.9217,-2.508,-2.6444
1692514864165,4.3330503,0.19995001,8.88405,1.9347625,-2.8941,-1.6753
1692514864195,4.6920004,0.94200003,16.984951,1.5378,-2.710675,-0.66316247
1692514864228,-0.68805003,2.32395,17.650051,1.141525,-2.2048125,-0.3029125
1692514864256,-0.44400004,-2.1319501,27.37095,0.3257375,-0.63827497,0.34265
1692514864281,0.69405,-0.63900006,20.02395,0.1573,0.2398,0.4719
1692514864307,0.402,0.423,9.885,0.1084875,1.015025,0.6433625
1692514864338,-0.786,-1.8430501,2.364,-6.875E-4,1.6724125,0.3075875
1692514864365,-1.3770001,-5.5030503,1.69395,-0.0606375,1.55485,1.0973876
1692514864392,-1.43505,-8.095051,8.02005,-0.0834625,1.35135,1.7732
1692514864418,-1.7410501,-8.63595,9.229051,-0.2341625,1.19405,2.599025
1692514864445,-3.45,-7.8799505,2.436,-1.2419,0.9890375,5.3442125
1692514864475,-2.91405,-6.228,-2.4870002,-2.5097876,0.5005,7.0692873
1692514864504,-2.59095,-4.9879503,-2.9179502,-3.002175,0.1997875,7.3654623
1692514864530,-5.1670504,-3.93705,0.67905,-3.4826,-0.1331,7.5174
1692514864558,-4.39605,-2.5729501,8.19705,-4.47425,-0.7217375,7.3409877
1692514864586,-1.7050501,-3.4470003,19.05705,-4.6376,-0.74415,6.9650626
1692514864613,-1.4830501,0.35595003,18.813002,-2.658425,-0.3900875,5.479925
1692514864645,-1.47105,0.966,19.459951,-0.400675,-0.18645,3.465825
1692514864671,-0.77895004,1.2390001,18.355951,1.9039625,0.1835625,0.76945
1692514864696,-1.251,1.96695,13.35795,1.3173875,0.2519,-5.2811
1692514864724,-1.57605,2.11995,12.304951,0.87395,0.122099996,-7.37605
1692514864751,2.4490502,0.82305,16.24695,1.1633875,0.22605,-8.65535
1692514864779,3.9430501,1.0189501,8.961,1.6885,0.3477375,-8.776487
1692514864811,3.3679502,2.2780502,3.6469502,1.3332,0.0826375,-7.9850373
1692514864839,3.14295,2.8960502,9.339001,1.252075,-0.510125,-5.7759624
1692514864864,4.7970004,1.9090501,13.915951,1.1763124,-0.4225375,-4.645025
1692514864897,5.6329503,-0.26295,11.464951,1.1655875,-1.0098,-3.175425
1692514864923,1.52295,0.46095002,9.424951,1.0566875,-1.2849375,-2.5086875
1692514864951,0.96300006,0.23595001,16.390951,0.821425,-1.4433374,-1.8206375
1692514864979,1.1730001,-0.43305,20.39295,0.297825,-1.1853875,-0.800525
1692514865010,2.47305,-0.67005,16.173,0.1288375,-0.75734997,-0.530475
1692514865035,0.89595,-0.63405,12.457951,-0.0730125,0.04675,0.0056375
1692514865062,-0.12105001,-1.3660501,9.460951,-0.1287,0.23333749,0.4158
1692514865094,-4.6639504,-2.14695,2.77095,-0.145475,0.3471875,1.389025
1692514865119,-3.22005,-6.31395,8.98995,-0.1549625,0.43725,1.876325
1692514865149,1.3740001,-8.743951,13.33905,-0.2352625,0.652575,2.4046
1692514865175,1.0339501,-7.66905,7.9129505,-0.4794625,0.9108,3.2550375
1692514865205,-1.9570501,-6.50295,3.52005,-1.536975,0.53405,6.1681123
1692514865234,-3.52905,-4.6410003,1.3369501,-2.0191875,-0.0510125,6.4486127
1692514865262,-3.3400502,-3.3079503,-1.1179501,-2.4789875,-0.67485,6.2519875
1692514865290,-3.52395,-2.7160501,-0.90000004,-2.5760624,-0.787325,6.4106627
1692514865319,-2.08605,-2.6110501,7.8430505,-1.1647625,-0.172425,7.2840624
1692514865420,-1.0999501,-2.2999501,20.460001,0.7866375,-0.0823625,2.0037875
1692514865450,0.37905002,-2.83395,15.472051,0.7000125,0.1772375,-1.4828
1692514865484,1.7479501,-5.0929503,15.852001,1.111,0.8569,-9.169462
1692514865521,1.8840001,-2.0730002,15.505051,1.2764125,0.85635,-9.220613
1692514865533,2.394,-0.031050002,11.2900505,0.8848125,0.4576,-7.650775
1692514865566,3.07395,2.11305,4.9420505,0.6216375,0.177925,-6.4981127
1692514865597,3.1890001,5.0209503,1.6720501,0.5636125,0.061325,-6.182275
1692514865628,4.47195,4.7650504,7.1899505,0.6864,-0.1684375,-5.489
1692514865657,5.3430004,1.713,8.928,1.506175,-0.7704125,-4.700025
1692514865688,3.7540503,0.33195,9.23595,1.863125,-1.1342375,-4.1426
1692514865718,0.83805007,1.641,13.85805,1.746525,-1.5236375,-2.5306876
1692514865744,0.58005005,3.4440002,10.656,1.3608375,-1.379675,-1.816925
1692514865780,0.864,0.531,20.02905,0.7679375,-0.4772625,-1.1991374
1692514865805,-0.3,-0.77805007,15.027,0.6675625,0.028875,-1.0437624
1692514865840,-0.97800004,-4.10505,13.959001,0.348975,0.7726125,-0.0449625
1692514865864,-2.3730001,-4.31505,9.0400505,0.054449998,0.9942625,0.7132125
1692514865895,-1.46595,-4.1790004,5.23395,-0.602525,0.24145,2.2919874
1692514865924,-0.01995,-5.9809504,6.9979506,-0.9029625,-0.0900625,3.116575
1692514865956,-0.69000006,-6.26595,6.78,-1.3347125,0.0622875,4.847975
1692514865986,-3.2659502,-4.335,4.74795,-1.392325,-0.02805,5.6555123
1692514866020,-3.9240003,-3.0229502,3.4249501,-1.8734375,-0.3592875,6.1766376
1692514866046,-2.2099502,-4.56195,5.51205,-2.01575,-0.306625,6.06485
1692514866074,-2.59095,-4.6459503,9.033,-2.0417376,-0.1698125,6.051375
1692514866104,-2.8639503,-3.897,10.809001,-2.0417376,-0.1698125,6.051375
1692514866130,0.22095,1.38495,8.853001,-1.5907375,-0.0889625,4.97915
1692514866160,1.8720001,-1.2709501,15.177001,-0.0012375,0.362175,2.093575
1692514866194,-1.23405,-1.692,16.27095,1.7686625,0.7117,-2.1055374
1692514866222,-2.7799501,-0.38505003,11.785951,2.13235,0.5014625,-3.9578
1692514866252,0.68295,-0.78000003,12.987,2.0461376,0.2182125,-4.6149125
1692514866279,2.9899502,1.14795,10.699051,1.5747875,0.2355375,-4.0398874
1692514866309,3.732,3.3360002,8.13,1.442375,0.27981248,-3.90225
1692514866338,1.9660501,4.39905,4.3560004,1.4430625,-0.091575,-4.122525
1692514866365,2.87295,3.5160003,6.7249503,1.4397625,-0.1379125,-4.1823373
1692514866390,3.4639502,2.18205,8.241,1.3376,-0.153175,-4.171475
1692514866422,2.39595,0.63795,6.1369505,1.2771,-0.367125,-3.7663999
1692514866448,2.8579502,0.342,9.825001,1.30185,-0.7117,-3.16525
1692514866479,3.4350002,2.1319501,11.950951,1.1248875,-0.914375,-2.3244374
1692514866507,1.7119501,1.74195,13.549951,0.60555,-0.9142375,-0.6293375
1692514866536,-1.4440501,1.074,17.59305,0.4142875,-0.568975,0.4283125
1692514866563,-1.3630501,-0.84000003,15.526951,0.41593748,-0.40713748,0.7657375
1692514866598,-0.441,-2.69295,14.18595,0.23925,-0.0276375,1.3354
1692514866625,-0.25695002,-2.4769502,10.18395,0.01265,0.5698,1.7238375
1692514866655,-0.432,-2.5900502,4.39905,-0.543675,0.96236247,2.618275
1692514866682,-1.9810501,-3.04005,1.4790001,-0.751575,0.877525,2.762925
1692514866719,-2.39505,-5.2969503,3.3310502,-1.0209374,0.6546375,2.45685
1692514866741,-1.7890501,-4.4089503,5.1859503,-1.2230625,0.6655,2.5014
1692514866770,-2.02605,-4.89195,1.7370001,-1.5475625,0.727375,2.92105
1692514866799,-4.2780004,-4.143,0.57105005,-2.349875,0.58341247,4.2244124
1692514866829,-4.11795,-3.69495,8.53005,-2.679325,0.3784,4.7141876
1692514866856,-4.8,-4.737,12.280951,-2.9547374,0.2102375,5.1898
1692514866885,-2.5140002,-3.6840003,20.343,-2.8150375,0.1661,5.3827124
1692514866911,-2.5770001,-3.6520503,21.01995,-1.9845375,0.3487,4.21025
1692514866945,-1.7389501,-2.1349502,23.37795,0.5853375,0.9592,-0.3700125
1692514866973,0.97905004,-0.43995002,18.93795,1.617825,1.171775,-2.6384876
1692514867003,1.9920001,2.59605,10.02105,1.24025,0.78815,-5.554175
1692514867031,2.98005,5.38005,3.8119502,1.690425,0.65793747,-6.0823126
1692514867061,3.3589501,5.2699504,1.4640001,2.0002124,0.1211375,-5.7707376
1692514867094,2.6910002,4.8900003,2.6590502,2.1434875,-0.157575,-5.4555874
1692514867121,1.9699501,4.0420504,8.097,2.5283499,-0.803825,-4.905725
1692514867150,3.3130503,1.4239501,10.066951,2.658425,-1.12475,-4.5626626
1692514867177,3.9190502,0.13800001,7.2349505,2.3951125,-1.4707,-3.54365
1692514867204,2.18805,0.99705005,11.845051,1.9135875,-1.4867874,-2.8425374
1692514867233,-1.30095,3.2740502,16.678051,1.3292125,-1.4471875,-2.08725
1692514867263,-1.0849501,-0.40695003,22.05195,0.80685,-1.323575,-1.40855
1692514867289,0.28500003,-4.3390503,26.394001,0.154,-0.4719,-0.6776
1692514867319,-0.432,-1.623,12.978001,-0.1442375,0.60775,0.0526625
1692514867350,0.25605002,-3.6360002,8.78895,-0.1170125,0.7244875,0.695475
1692514867378,-0.21405001,-5.06505,7.5370502,-0.02365,0.6381375,1.3146375
1692514867403,-1.94895,-6.16305,7.7160006,-0.5696625,0.385,2.3167374
1692514867431,-1.488,-6.7309504,4.6330504,-0.8097375,0.2743125,2.973025
1692514867465,-1.21695,-6.3570004,-2.259,-1.481975,0.0636625,4.572425
1692514867496,-1.2580501,-5.6940002,1.725,-2.271775,-0.2717,5.6758623
1692514867523,-1.5330001,-4.56405,-0.40695003,-2.75165,-0.5735125,6.1065125
1692514867551,-4.22805,-4.5550504,-1.761,-3.2063625,-0.9081875,6.3171625
1692514867580,-6.4729505,-4.63395,7.4170504,-3.667125,-1.133275,5.7528625
1692514867607,-4.28595,-1.8139501,12.85095,-3.7943125,-0.9788625,5.60065
1692514867635,-5.8699503,1.8330001,10.186951,-3.685,-0.69245,5.5917125
1692514867662,-5.8440003,2.7469501,17.716951,-1.373625,0.2146375,4.3734627
1692514867694,-4.0009503,-0.0139500005,26.42505,0.5795625,0.7748125,2.9756374
1692514867722,-1.6309501,-1.2400501,19.914001,4.9323997,2.052325,-2.1690624
1692514867752,-3.1339502,0.624,16.70895,6.518325,2.1967,-5.5259876
1692514867783,0.59895,1.677,12.963,5.6072497,0.9922,-6.8688126
1692514867813,4.431,1.9789501,5.8159504,4.7478747,0.44288749,-6.389625
1692514867841,4.9890003,2.0359502,4.48995,4.7478747,0.44288749,-6.389625
1692514867871,5.0220003,2.7880502,3.1249502,2.698575,-0.7082625,-3.8308876
1692514867899,3.8560503,3.1570501,7.0320005,2.05535,-1.8211875,-2.4300375
1692514867929,2.8540502,2.5560002,7.6399503,1.928575,-2.3269124,-1.9453499
1692514867956,2.40405,2.3040001,5.1670504,1.8583125,-2.623775,-1.6207125
1692514867985,2.60505,3.9270003,14.407051,1.6094375,-2.4332,-1.3222
1692514868014,0.68700004,4.6069503,16.20405,1.41405,-2.101275,-1.253725
1692514868043,-0.94695,0.99705005,28.048052,1.0525625,-1.2672,-1.20725
1692514868080,0.82095003,-2.80005,27.04305,0.869825,-0.73535,-1.16655
1692514868110,0.043050002,-0.624,8.44905,0.09515,0.42405,-0.2809125
1692514868136,-0.92700005,-0.92100006,5.5290003,-0.04015,0.804925,1.496825
1692514868170,-0.40995002,-3.41805,2.16105,0.0198,0.8017625,2.181575
1692514868195,-1.61205,-5.3830504,1.2559501,-0.031075,0.69629997,3.0779374
1692514868223,-3.1300502,-6.6520505,0.813,-0.31033748,0.667425,3.5979624
1692514868252,-4.4050503,-7.62795,-0.036000002,-0.7412625,0.653675,4.3654876
1692514868282,-3.1609502,-6.8290505,2.3740501,-2.1428,0.6562875,6.428262
1692514868312,-3.52905,-6.6280503,3.24705,-3.067625,0.5412,7.6217623
1692514868339,-3.22305,-5.6130004,4.5760503,-4.5925,-0.034649998,8.386125
1692514868369,-1.9609501,-3.5970001,12.748051,-4.7818375,-0.2244,7.6219
1692514868399,-3.2370002,-0.23700002,14.18595,-3.798025,-0.1467125,5.1874623
1692514868428,-3.79695,1.029,17.542051,-2.352075,0.0097624995,3.6152875
1692514868455,-4.61595,-2.84295,23.881052,-0.5341875,0.1458875,2.651275
1692514868482,1.4959501,-3.219,26.635952,1.669525,0.3268375,0.832425
1692514868514,2.1430502,1.0210501,12.07995,0.2866875,0.4742375,-4.786925
1692514868548,2.97795,3.3070502,8.394,0.46805,0.4063125,-6.56315
1692514868573,4.953,2.7139502,8.797951,1.0951875,0.2363625,-7.4795876
1692514868598,5.7400503,2.56305,7.7520003,1.52515,-0.0829125,-7.267425
1692514868628,5.6680503,1.6390501,9.859051,1.6322625,-0.4499,-6.5792375
1692514868655,5.664,1.299,8.937,1.64395,-0.909975,-5.9376626
1692514868685,5.7070503,1.6800001,6.34005,1.4073125,-1.7155875,-3.6273875
1692514868715,3.00195,0.528,7.7590504,1.0175,-2.03005,-2.1165376
1692514868739,2.5780501,1.368,12.714001,0.879725,-2.0216625,-1.6368
1692514868769,2.7199502,2.592,7.8190503,0.7816875,-1.8645,-1.1606375
1692514868799,-0.915,-0.78195006,21.49695,0.6389625,-1.0588875,-0.4948625
1692514868828,0.89295006,-4.122,26.652,0.606375,-0.5473875,-0.284625
1692514868863,1.8889501,-0.34005,9.80805,0.3257375,0.246675,0.6395125
1692514868892,0.29505002,-1.90005,4.6810503,0.086899996,0.1368125,1.427525
1692514868920,-2.9950502,-2.805,6.66795,-0.1082125,0.355025,2.5950375
1692514868948,-4.6330504,-3.6550503,6.07905,-0.125675,0.348975,2.8892875
1692514868977,-3.1969502,-4.6069503,2.079,-0.3650625,0.502425,3.667125
1692514869006,-2.016,-5.08395,1.7010001,-0.4961,0.49101248,4.269375
1692514869033,-2.18205,-4.63905,3.5320501,-0.4888125,0.3570875,4.983275
1692514869063,-4.6810503,-3.9180002,4.32495,-0.5737875,0.1887875,6.728975
1692514869092,-4.24305,-3.8509502,6.6540003,-1.1622875,-0.1065625,7.2620625
1692514869119,-3.0979502,-2.83095,8.65905,-1.594175,-0.7613375,8.500113
1692514869149,-1.866,2.1030002,10.57005,-2.0405,-0.858,8.382137
1692514869179,-1.84695,2.32605,13.416,-1.3877875,-0.7046875,6.6028876
1692514869209,-2.97195,-0.88095003,20.19705,-0.371525,-0.572,4.8437123
1692514869236,-1.9210501,-2.49105,22.135952,2.2264,-0.099,0.06985
1692514869266,1.932,-1.7809501,12.56805,3.2080126,0.1780625,-3.1554875
1692514869298,4.06995,-1.8379501,15.067051,3.297525,0.27513748,-7.60155
1692514869320,5.1610503,-0.17400001,14.380051,3.297525,0.27513748,-7.60155
1692514869354,7.1719503,2.7970502,7.15605,2.219525,-0.1431375,-8.702513
1692514869382,6.762,3.6139503,7.005,1.5599375,-0.40301248,-8.199813
1692514869410,6.3820505,1.9879501,14.196001,1.3157375,-0.4027375,-7.6747
1692514869439,5.556,-0.93600005,10.18395,0.900625,-0.3333,-6.6028876
1692514869466,3.05205,-0.82800007,3.3739502,0.74085,-0.2921875,-5.5798874
1692514869495,1.056,0.18405001,3.0540001,0.5687,-0.4714875,-4.447025
1692514869522,4.3570504,2.2039502,15.144001,0.1115125,-0.7913125,-2.4699125
1692514869550,3.7030501,2.3760002,13.564051,0.002475,-0.6859875,-1.7923125
1692514869582,1.60905,0.21495001,19.00995,0.203225,-0.2371875,-0.8966375
1692514869602,-0.52005005,-1.2870001,12.613951,0.3707,-0.007425,-0.5528875
1692514869635,-4.51095,-1.2760501,6.8710504,0.40865,0.54285,0.2919125
1692514869664,-1.332,-3.561,8.113951,0.27513748,0.8746375,0.80602497
1692514869694,0.12495001,-3.8700001,5.1379504,0.1071125,1.216325,1.298825
1692514869723,-2.4780002,-3.9090002,2.32305,-0.3168,1.58675,2.4798124
1692514869751,-0.74805003,-6.08895,6.1770005,-0.6094,1.42505,3.2445874
1692514869782,-0.171,-5.7990003,7.0150504,-1.2641749,0.8866,4.5287
1692514869810,-2.53095,-4.3369503,3.17595,-1.6281375,0.6061,5.22555
1692514869840,-5.71005,-2.982,2.7139502,-2.2242,-0.23705,6.4513626
1692514869874,-5.7910504,-3.6739502,10.78695,-2.4580874,-1.032075,8.018863
1692514869892,-6.5449505,-3.35805,11.94795,-2.4580874,-1.032075,8.018863
1692514869929,-6.7099504,-5.50005,21.625952,-2.7770875,-1.8506125,10.87735
1692514869962,-4.45095,-3.2740502,22.045052,-1.9394375,-1.604075,9.44625
1692514869987,-2.39205,-1.077,16.288052,-1.0701625,-1.2260875,7.425275
1692514870016,2.7529502,3.0580502,10.75395,-0.0026125,-0.70675,4.7730374
1692514870044,4.53195,4.866,11.790001,3.5563,1.657425,-6.4076376
1692514870072,5.4580503,4.9950004,12.58695,5.8458123,3.243075,-14.4375
1692514870100,5.4870005,4.66905,9.727051,4.3868,2.01135,-16.0567
1692514870131,4.539,3.9630003,10.26105,4.123075,0.6216375,-12.597062
1692514870160,4.87395,1.5769501,8.21205,3.3389125,-1.1276375,-6.80735
1692514870187,4.09095,0.96405005,6.2970004,2.64935,-1.512225,-4.92855
1692514870215,0.76605004,0.31005,11.173051,1.3138125,-1.701975,-1.8924125
1692514870244,0.201,1.8210001,17.27205,1.0715375,-1.602425,-0.861575
1692514870274,-1.404,8.63595,8.80305,0.5974375,-0.7876,0.373175
1692514870303,-5.004,6.3810005,19.60605,0.498025,-0.1892,0.5955125
1692514870332,-3.048,-3.0319502,28.491001,0.67705,0.3378375,0.5231875
1692514870360,-2.70105,-3.0370502,15.996,1.0362,1.3024,-0.0138875
1692514870386,-1.88205,-2.23095,5.29395,0.5379,1.4265625,0.38995
1692514870413,-0.67605,-3.01305,3.6420002,-0.2058375,1.2040875,1.7149
1692514870445,-2.028,-3.8149502,1.845,-1.155825,0.9158875,3.5300374
1692514870464,-3.0240002,-4.236,1.608,-1.349975,0.814,3.9633
1692514870498,-5.8770003,-4.0350003,1.0170001,-0.93555,0.7258625,4.2759748
1692514870532,-6.294,-2.3359501,0.20700002,-1.2458875,0.85305,4.96485
1692514870561,-5.9209504,-2.4150002,2.946,-1.536425,1.0032,6.442425
1692514870592,-5.79405,-0.48105,7.1200504,-1.456125,0.897875,7.0104375
1692514870619,-4.5610504,1.8880501,6.6540003,-2.7473874,1.269675,7.6553125
1692514870643,-3.5719502,5.952,8.6980505,-2.8084376,1.2574375,7.0002623
1692514870671,-5.6239505,3.9300003,13.747951,-2.1604,1.083775,6.1606874
1692514870698,-7.6440005,2.388,16.660952,-0.909425,0.8284375,4.7136374
1692514870725,-8.214001,-0.42600003,19.95495,2.6607625,0.1439625,0.6763625
1692514870757,-1.8940501,-0.49500003,18.411001,4.8610373,-0.6593125,-3.8130124
1692514870784,2.05605,4.0279503,12.115951,4.55455,-0.497475,-4.79325
1692514870809,3.7800002,6.35895,6.78,3.879425,-0.2459875,-5.1121125
1692514870837,4.42605,6.6919503,3.489,2.904275,-1.0626,-5.1013875
1692514870867,1.4820001,6.4500003,4.70295,2.6367,-1.03235,-5.0703125
1692514870894,1.2930001,4.68795,10.681951,2.3505626,-0.79873747,-5.0208125
1692514870924,2.18595,2.2009501,9.14505,1.9809625,-0.3524125,-4.2576876
1692514870955,0.762,4.0350003,6.5389504,1.9402624,-1.06865,-2.91665
1692514870984,-1.8180001,6.4429502,13.67205,1.4564,-1.2579875,-2.250875
1692514871013,-4.21605,3.4099503,16.056002,1.0615,-1.2722875,-1.7183375
1692514871038,-5.322,-0.31095,24.65895,0.7525375,-0.747175,-1.129425
1692514871073,-4.3650002,-0.162,10.917001,0.4481125,-0.1956625,-0.83545
1692514871102,-3.9820502,0.10005,4.629,-0.8311875,0.85305,0.0814
1692514871129,-3.0600002,-4.026,8.17095,-1.3013,1.0956,0.4329875
1692514871157,-0.57105005,-5.46,13.897051,-1.47565,1.270775,0.6644
1692514871189,-0.537,-5.8350005,9.745951,-1.618375,1.2595,0.7953
1692514871216,-1.7149501,-4.93095,4.03305,-1.95635,1.079925,0.9774875
1692514871242,-0.85305005,-4.203,0.72495,-2.5872,0.355025,0.95535
1692514871274,-1.50405,-2.9269502,-0.98595005,-2.7137,0.0790625,0.7456625
1692514871301,-2.8570502,-2.8980002,-0.94305,-2.7137,0.0790625,0.7456625
1692514871331,-5.04195,-3.6739502,5.9710503,-2.940575,0.080025,1.7617875
1692514871359,-4.67595,-4.16895,11.178,-3.827725,-0.35915,5.141125
1692514871386,-2.18205,-2.49405,11.190001,-4.321075,-0.9103875,7.113425
1692514871413,-1.1050501,-3.9439502,16.726051,-3.6408625,-1.2183875,8.34185
1692514871442,-1.1910001,-4.29405,20.202002,-1.7589,-0.9317,6.3936124
1692514871479,-2.80395,-2.355,16.678051,-0.417175,-0.604725,2.78355
1692514871505,-2.21295,0.483,16.539001,1.9130375,0.4915625,-4.3511877
1692514871533,2.0730002,2.57505,10.392,2.75055,1.35685,-7.5250998
1692514871560,3.9210002,3.6760502,6.6010504,3.091275,1.6643,-8.756
1692514871588,1.5630001,6.8310003,4.08795,3.2877624,1.59445,-9.294863
1692514871626,4.3330503,4.3699503,5.66295,2.8587625,0.89375,-7.9952126
1692514871646,3.8370001,4.25505,7.9339504,2.8587625,0.89375,-7.9952126
1692514871677,4.67805,2.6560502,9.84405,1.2934625,0.55935,-4.98025
1692514871706,3.2580001,0.49005002,7.4550004,1.297175,-0.276925,-3.9092624
1692514871734,2.7870002,-1.8280501,21.21405,1.317525,-0.7836125,-2.9436
1692514871759,1.8870001,-1.45305,18.004051,0.8146875,-1.0692,-1.2145375
1692514871787,2.2410002,0.28905,11.029051,0.678975,-0.86185,-0.4395875
1692514871815,1.0009501,-2.16405,17.37705,0.45319998,-0.5149375,0.1898875
1692514871844,0.23505001,-3.0040503,18.514051,-0.1192125,0.0105875,0.836275
1692514871873,-1.3560001,-1.4119501,7.9440002,-0.091025,0.1887875,1.106325
1692514871901,-2.0670002,-0.76305,-1.6300501,-0.058575,0.5251125,2.0037875
1692514871930,-1.5640501,-5.6580005,1.8760501,-0.106837496,0.614075,2.4341624
1692514871959,-0.453,-9.333,11.38605,-0.2976875,0.68282497,3.4318626
1692514871987,-1.8510001,-8.442,10.9789505,-0.6029375,0.6039,4.6732125
1692514872015,-2.457,-7.3219504,5.36805,-1.859825,-0.1777875,7.645
1692514872040,-1.6480501,-6.46005,1.8090001,-2.3417625,-0.5468375,7.8247123
1692514872069,-2.22195,-5.4019504,0.18795002,-2.5653374,-0.6917625,7.1922126
1692514872094,-2.7250502,-3.5350502,6.4549503,-2.8714125,-0.8031375,6.1268625
1692514872121,-3.0529501,-1.3279501,8.09895,-2.9827874,-0.8562125,5.6167374
1692514872149,-2.265,-0.19605,12.82005,-2.8215,-0.81125,5.0752625
1692514872180,0.058050003,-2.32605,23.97405,-1.169575,-0.38775,3.6597
1692514872203,-0.087000005,0.36600003,18.538052,0.1211375,-0.095837496,2.5807376
1692514872234,1.6540501,2.0359502,8.35305,2.4393876,0.41965,-1.0734625
1692514872260,0.28500003,2.493,10.02105,2.9264126,0.526075,-2.8920374
1692514872288,-0.126,2.7180002,14.269951,3.0174375,0.551925,-4.2306
1692514872315,1.9660501,2.48895,13.24995,2.8968499,0.5434,-6.3399873
1692514872343,2.29605,3.7140002,8.608951,2.7907,0.4411,-6.96685
1692514872371,2.3029501,3.97005,4.0230002,2.6530626,0.2508,-7.5915127
1692514872399,3.0570002,3.3430502,3.93195,1.95195,-0.0968,-7.3871875
1692514872427,2.904,0.873,7.7209506,1.5970625,-0.258775,-6.7425876
1692514872451,2.1450002,-0.47400004,8.266951,1.6666375,-0.648725,-6.1507874
1692514872512,2.7820501,3.5850003,10.111951,1.0264375,-1.12805,-2.5108874
1692514872520,2.12595,2.4139502,13.188001,0.645425,-1.010075,-1.4867874
1692514872543,1.9200001,-0.72300005,22.461,0.4162125,-0.862675,-0.78223747
1692514872603,1.7329501,-0.70095,16.374,-0.00495,-0.0642125,0.93885
1692514872617,2.0659502,-0.87795,14.212951,-0.2959,0.2930125,1.710775
1692514872636,2.1790502,-1.113,8.18505,-0.4830375,0.4720375,2.2490876
1692514872659,1.48695,-0.51405,-0.47805002,-0.5289625,0.4629625,2.4486
1692514872685,-2.15295,-2.319,0.99300003,-0.4844125,0.3312375,2.4314125
1692514872712,-1.2430501,-6.735,10.720051,-0.4076875,0.1577125,2.359775
1692514872739,0.10095,-8.31795,13.1640005,-0.44825,0.077,2.6118126
1692514872767,0.80700004,-6.984,8.956051,-0.7541875,0.22055,3.333275
1692514872797,-2.4160502,-3.9090002,1.9740001,-0.8078125,0.1111,5.1833377
1692514872833,-4.7790003,-3.0199502,-0.112050004,-1.32715,-0.415525,5.5154
1692514872866,-3.6870003,-2.15895,5.091,-1.2067,-0.492525,5.8856874
1692514872902,-3.2730002,-1.761,9.8539505,-0.5753,-0.3898125,8.0223
1692514872931,2.71005,-4.29405,19.378052,-0.395175,-0.3480125,9.023575
1692514872955,2.02095,-2.8600502,19.761002,0.0804375,-0.3168,7.362575
1692514872980,-0.351,0.11895001,15.0720005,0.7940625,-0.252725,4.3400497
1692514873006,-1.7890501,1.8900001,12.109051,1.4877499,-0.061875,0.6073375
1692514873038,-2.1670501,2.4120002,11.0119505,1.8745375,0.1313125,-2.0967374
1692514873063,0.36900002,2.592,14.86095,2.1731875,0.6576625,-4.4154
1692514873089,1.8889501,3.0889502,13.389001,2.3315876,1.0657625,-5.9802876
1692514873117,1.4940001,4.15005,8.059051,2.3566124,1.2057375,-10.507063
1692514873146,1.91295,2.6490002,3.8839502,1.956075,0.7145875,-11.57145
1692514873175,4.09095,0.63405,4.176,1.6966125,0.3826625,-11.152488
1692514873204,4.1530504,-1.21605,6.1699505,1.6253875,-0.3867875,-8.1521
1692514873230,1.6060501,-0.69405,7.1970005,1.4524125,-0.749925,-6.2598248
1692514873258,2.4079502,-1.9120501,13.00905,0.7937875,-1.283425,-1.45915
1692514873285,5.07,-0.82095003,17.463001,0.47547498,-1.2942874,0.1728375
1692514873314,3.5119503,3.0700502,12.0060005,0.1192125,-0.7678,2.07735
1692514873341,-1.605,5.5290003,9.30105,0.1452,-0.572825,2.575375
1692514873376,-1.94895,0.25095,19.866001,0.590425,-0.23705,2.1861124
1692514873407,-0.20895001,-0.72,15.769051,0.8735375,0.193325,1.7593125
1692514873430,0.09105001,0.28905,8.736,1.012825,0.4888125,1.9514
1692514873454,1.0849501,0.44700003,2.1030002,0.9222125,0.773025,2.991175
1692514873479,-0.01995,-0.51000005,2.331,0.443025,1.066725,4.792425
1692514873511,-0.70005006,-3.6739502,5.9689503,0.3059375,0.825,4.5420375
1692514873540,-2.4400501,-5.031,9.583051,0.0449625,0.5357,3.8317125
1692514873569,-1.99995,-5.3590503,8.415,-0.31075,0.5592125,4.22455
1692514873592,-2.63205,-3.7669501,3.1900501,-1.42835,0.70015,5.96695
1692514873620,-3.1609502,-2.1730502,1.44,-1.91345,0.6837875,6.4372
1692514873648,-6.366,0.684,2.28795,-2.228875,0.6315375,6.48395
1692514873676,-6.0330005,-0.40695003,10.993051,-2.36665,0.6615125,6.5055375
1692514873703,-4.0459504,-4.2840004,17.278952,-2.199175,0.8171625,6.8003373
1692514873732,-2.3160002,-5.52405,17.90595,-1.934075,0.9766625,7.5004873
1692514873759,-3.7140002,-4.8520503,19.432951,-1.0000376,0.683375,5.5625625
1692514873787,-2.8900502,-3.255,21.46305,-0.5108125,0.31295,2.913625
1692514873816,-1.0489501,-0.14805001,16.79805,0.0961125,-0.097075,-0.4745125
1692514873848,1.13505,2.87895,10.30095,0.40425,-0.1582625,-1.28865
1692514873873,1.7479501,3.4440002,6.77295,0.7621625,-0.20185,-1.8436
1692514873907,2.19495,1.845,5.38005,1.519925,-0.3317875,-2.7477999
1692514873929,3.01605,0.54495,5.44005,1.8082625,-0.434225,-3.179
1692514873958,2.84205,0.25305,4.2840004,1.9789,-0.7137625,-4.1069875
1692514873982,1.8960001,0.41805002,2.62995,1.828475,-0.9134125,-4.6391125
1692514874014,1.2,0.23895001,2.53395,1.2056,-1.3178,-4.6083126
1692514874043,3.8899503,-1.0189501,14.422951,0.916025,-1.4004375,-3.9103625
1692514874070,4.5529504,0.80595005,20.194052,0.6934125,-1.3941125,-2.9668374
1692514874095,0.51000005,4.40805,14.404051,0.3685,-1.1099,-0.9449
1692514874122,-4.1059504,6.5719504,16.747952,0.3801875,-0.871475,-0.1733875
1692514874151,-1.8420001,0.94995004,22.131,0.2996125,-0.770275,0.6578
1692514874180,-1.4760001,0.74100006,16.66905,-0.0862125,-0.41745,4.352425
1692514874206,-1.1209501,0.13605,12.255,-0.1733875,-0.3117125,6.2844377
1692514874233,-0.09705,-0.26295,8.52795,-0.1931875,-0.23485,6.5360622
1692514874263,0.15795001,-0.55305004,5.136,-0.273625,0.1711875,4.1988373
1692514874295,-1.34895,-0.66795003,2.6850002,-0.3344,0.22165,2.3744874
1692514874323,-3.3619502,-1.8690001,1.5259501,-0.3619,0.18287499,1.95635
1692514874348,-3.6010501,-3.45405,2.4430501,-0.3969625,0.2107875,1.828475
1692514874377,-2.9550002,-4.5810003,2.7850502,-0.5402375,0.63085,2.2066
1692514874408,-2.53605,-4.8439503,0.186,-0.8404,0.9719875,2.41395
1692514874431,-4.2400503,-4.7250004,-0.246,-1.4641,1.3454375,2.3648624
1692514874463,-4.9609504,-5.0020504,8.583,-2.75,1.7194375,1.6982625
1692514874493,-3.1270502,-1.12695,12.429001,-3.5704625,2.0893126,1.2441
1692514874522,-2.02605,0.837,9.48495,-3.2148874,1.9210125,1.1429
1692514874550,-1.488,-4.7059503,23.517,-2.183225,1.2970375,1.0707124
1692514874581,0.04605,-3.1690502,22.662,0.082225,-0.28105,0.8820625
1692514874610,2.2020001,-1.24695,15.670051,0.660825,-0.9106625,0.6741625
1692514874646,-0.42495003,-2.87895,16.40805,0.79983747,-1.6775,0.3400375
1692514874676,1.0030501,-4.64295,21.781052,0.60885,-1.7392375,0.5619625
1692514874707,2.5399501,-1.14405,13.405951,0.4940375,-1.6242875,0.7310875
1692514874732,2.3749502,1.6530001,5.4349504,0.3498,-1.5019125,0.8666625
1692514874761,2.90895,3.14895,1.8040501,0.231,-1.395075,1.117875
1692514874790,3.117,3.147,1.881,0.231,-1.395075,1.117875
1692514874819,2.5210502,1.7680501,5.81295,0.8311875,-1.50095,1.6561875
1692514874847,-5.004,6.1009502,6.43095,0.7250375,-1.4405875,1.87605
1692514874876,-4.5750003,6.663,7.04895,0.8542875,-1.28095,2.827
1692514874911,-0.93900007,7.52295,16.12005,1.2018875,-0.5586625,3.9122875
1692514874938,-6.339,8.413051,15.382951,2.0868375,0.5757125,4.88565
1692514874966,-7.254,-0.0019500001,27.70605,2.7953749,1.4977875,3.8990874
1692514874994,-0.93900007,-3.6139503,20.281052,2.5262876,1.2134374,2.398
1692514875030,3.0949502,-3.7189503,10.8810005,1.02465,1.0712625,-0.014025
1692514875051,2.8270502,-2.56605,6.405,0.1230625,0.637175,-1.09835
1692514875080,1.7860501,-2.57505,4.5040503,-1.0283625,-0.444125,-2.119425
1692514875111,0.90495,-3.2719502,3.5680501,-0.8603375,-0.6425375,-2.1388125
1692514875139,-1.1020501,-4.05,2.14905,-0.9040625,-0.85195,-1.8501999
1692514875167,-1.55505,-5.4739504,0.78000003,-1.1251625,-0.8460375,-1.724525
1692514875196,-0.83400005,-7.5880504,1.5480001,-1.7461125,-0.3994375,-1.491325
1692514875226,-1.677,-5.99595,3.6810002,-2.2592626,-0.0372625,-1.3759625
1692514875256,-2.4880502,-3.4939501,1.335,-3.4945624,0.61985,-1.1721874
1692514875283,-1.8390001,0.591,1.55805,-3.7882624,0.842325,-0.9420125
1692514875316,-2.7900002,0.303,9.97095,-3.1040626,1.092575,-0.1049125
1692514875342,-5.0209503,-3.9900002,24.426,-2.1824,1.1292875,0.4019125
1692514875372,-6.1980004,-6.30495,30.226051,-0.8900375,1.002375,0.9191875
1692514875401,-2.8210502,-4.5280504,29.266052,1.4132249,0.158675,1.6115
1692514875427,-1.2409501,1.7659501,15.949951,1.647525,-0.2525875,1.6302
1692514875457,-0.17295001,2.1079502,12.195001,1.3294874,-0.7808625,1.6080625
1692514875488,1.60905,4.6530004,11.40495,1.2420375,-0.922625,1.76715
1692514875517,0.85200006,8.33895,7.08405,1.231725,-0.9997625,2.0186374
1692514875545,2.56905,7.1610003,5.3710504,1.4202375,-1.120625,2.7319875
1692514875576,4.254,4.9180503,10.573951,2.041875,-0.868725,4.0459375
1692514875600,3.3919501,4.08795,9.52095,2.3368125,-0.42185,4.7273874
1692514875630,2.29605,3.5059502,5.88,2.4338875,-0.10615,5.1143126
1692514875661,0.35700002,3.252,10.75395,2.0827124,-0.193875,4.818275
1692514875687,0.50100005,1.0210501,23.09505,1.5538875,-0.02475,4.2887626
1692514875716,-2.5860002,-0.65805006,23.232,1.0899625,0.015675,3.5450249
1692514875751,-0.48000002,-3.3100502,20.854952,0.1852125,0.091025,1.429175
1692514875780,1.4770501,-4.56405,17.928001,-1.0976624,0.357225,-0.63195
1692514875808,0.55605,-5.1600003,14.686951,-1.469875,0.388575,-1.29855
1692514875835,-0.92295,-2.9299502,7.6009502,-1.567775,0.1093125,-2.1888626
1692514875863,1.6690501,-2.83905,3.0559502,-1.4062124,0.02805,-2.5058
1692514875892,0.60405004,-2.5180502,1.07595,-1.48005,0.02915,-2.7022874
1692514875919,-1.6020001,-3.4729502,-1.0030501,-1.3949375,0.0413875,-2.909225
1692514875950,-1.8390001,-5.1199503,-1.7830501,-1.3894374,0.0353375,-3.0314624
1692514875979,-2.6200502,-5.7780004,-1.7260501,-1.7612375,0.4448125,-3.2814374
1692514876006,-2.196,-5.6650505,0.13605,-2.2391875,0.9086,-3.3845625
1692514876034,-1.7719501,-5.5530005,-0.00705,-2.885575,1.4771625,-3.4062874
1692514876065,-1.5520501,-3.9970503,2.15805,-4.0819626,2.4435124,-2.815725
1692514876095,-6.0090003,-0.162,8.83905,-4.1680374,2.4360874,-1.7623374
1692514876123,-5.3100004,0.363,21.03,-3.3946,2.0950875,-1.1045375
1692514876151,-5.46105,-1.7209501,28.729952,-1.9163375,1.65935,-0.1617
1692514876179,-3.04305,-0.531,23.104952,1.907125,0.3922875,1.9661125
1692514876206,-0.76005006,-1.503,19.26795,2.994475,0.038775,2.229975
1692514876237,-0.50895,-2.26395,21.67605,2.84955,-0.1219625,2.1421125
1692514876266,-0.22800002,0.33,15.079051,2.2930875,-0.634975,2.1168125
1692514876293,1.57305,3.0990002,10.099951,1.7336,-0.95315,2.0893126
1692514876322,5.0389504,3.0610502,2.93895,1.0153,-1.22925,2.3694
1692514876356,6.71505,2.4379501,3.9919503,0.943525,-1.447325,3.2190125
1692514876384,5.0890503,3.4129503,7.1710505,1.005125,-1.7150375,3.750175
1692514876410,3.6990001,2.93595,5.09805,1.10935,-2.0823,4.340875
1692514876436,4.7250004,0.84900004,5.95695,1.5835875,-2.4563,5.3554873
1692514876470,4.2990003,-0.57900006,18.85605,1.8227,-2.3181124,5.3926125
1692514876493,1.2760501,0.025950002,20.00505,1.8497875,-2.11035,5.036625
1692514876524,0.16305001,-2.22105,25.221,0.9257875,-1.485275,3.2993126
1692514876553,2.16405,-5.0410504,23.265001,-0.3048375,-0.236775,0.7646375
1692514876578,0.59895,-2.7520502,17.15895,-0.73095,0.30827498,-0.3117125
1692514876609,-2.28495,-2.4169502,6.93795,-0.8443875,0.615725,-1.1323125
1692514876636,-0.030000001,-4.3699503,3.2929502,-1.076625,0.817025,-2.1946375
1692514876662,-0.07005,-5.043,3.6880503,-1.1594,0.872025,-2.60975
1692514876689,-2.40405,-5.223,2.66805,-1.2634875,0.9117625,-3.0358624
1692514876719,-4.42695,-5.1220503,-0.354,-1.74295,0.994125,-3.9290624
1692514876741,-3.3349502,-5.74905,0.042000003,-2.0442126,1.2115124,-4.274875
1692514876772,-2.7510002,-6.07695,1.3060501,-2.3148124,1.630475,-4.4276376
1692514876802,-3.4650002,-4.677,2.08395,-2.757975,2.6786375,-4.118125
1692514876830,-4.4820004,-3.9280503,3.18,-2.5702875,2.9931,-3.717725
1692514876858,-3.65595,-2.18295,8.146951,-2.3189375,3.071475,-2.552825
1692514876886,-4.4820004,-0.651,11.482051,-2.0216625,2.9203625,-1.7414374
1692514876915,-4.29495,-1.7400001,18.957,-0.6210875,2.05975,-0.0842875
1692514876943,-3.6660001,-1.1850001,23.328001,0.280775,1.374175,0.5577
1692514876972,-0.90105003,-0.54495,21.23805,1.1067375,0.6092625,1.042525
1692514877001,1.245,0.19800001,16.945951,1.9899,-0.7777,1.6542625
1692514877029,1.18005,0.76005006,11.745001,1.9922374,-1.258125,1.8310875
1692514877057,1.2930001,1.88505,8.238,1.5984375,-1.762475,2.0494375
1692514877087,4.20405,2.25195,3.8700001,1.3880625,-1.7876375,2.1429374
1692514877115,5.4889503,3.31395,3.3670502,1.1446875,-1.7095375,2.4528625
1692514877143,3.7699502,4.5540004,6.096,1.130525,-1.8283374,2.726625
1692514877174,4.44105,4.5810003,10.14795,1.2309,-2.06745,3.1180875
1692514877204,4.88805,2.7499502,8.905951,1.8812749,-2.3467126,4.1210127
1692514877232,3.7920003,1.7350501,10.503,1.9212875,-2.0079124,4.445375
1692514877262,1.9339501,2.592,16.86705,1.8489625,-1.4306875,4.136825
1692514877290,-1.368,0.97095007,18.36795,1.5662625,-1.16985,3.49855
1692514877319,1.4440501,-6.0529504,27.655052,0.6106375,-0.3128125,1.528725
1692514877348,1.0320001,-5.60295,23.17695,0.0105875,0.1566125,0.4664
1692514877381,0.094050005,-4.3510504,12.457951,-0.70042497,0.4789125,-0.4860625
1692514877409,-1.84695,-3.8200502,5.05905,-1.8517125,0.6213625,-1.8662875
1692514877438,-1.83,-5.0479503,0.86805004,-2.0420125,0.6384125,-2.6151125
1692514877466,-2.70795,-6.16095,0.95400006,-2.013825,0.729025,-2.9018
1692514877494,-2.7540002,-7.5760503,-0.186,-2.20605,1.121725,-3.636875
1692514877521,-3.5340002,-6.453,-0.53805,-2.498375,1.4900875,-4.1459
1692514877548,-3.4140003,-5.5789504,2.39805,-2.877875,1.982475,-4.5766873
1692514877577,-2.46195,-5.0170503,3.5130002,-3.4582624,2.9475875,-4.3836374
1692514877606,-0.58695,-3.1189501,5.12895,-3.421275,3.1491625,-3.698475
1692514877634,-3.8839502,0.26505002,7.6420503,-2.6466,2.68895,-2.165075
1692514877664,-5.1000004,-0.30105,16.234951,-1.98825,2.1740124,-1.5197875
1692514877697,-1.8510001,-4.44,28.989002,-0.004125,1.072775,0.2160125
1692514877725,-0.13995,0.18795002,22.837051,1.1386375,0.4679125,1.1847
1692514877753,-0.50595003,1.8040501,16.057951,1.989625,-0.260975,1.8198125
1692514877778,-0.89100003,0.31305,19.306051,2.3647249,-0.9846375,2.0970125
1692514877809,3.0949502,-0.37095,18.667051,2.21925,-1.7131125,2.430175
1692514877838,-0.39405003,5.3970003,5.67705,1.7197125,-1.703625,2.7066875
1692514877866,2.69295,5.9500504,-1.8930001,1.4628625,-1.3550625,2.8039
1692514877893,5.38605,3.1230001,-2.7240002,1.3371875,-0.7827875,2.9904876
1692514877924,4.97895,1.84695,-0.99300003,1.6039375,-0.6774625,3.5168376
1692514877952,2.9520001,1.8040501,5.4760504,1.8382375,-0.92565,3.7367
1692514877982,2.3170502,1.3590001,6.29895,2.080925,-1.8211875,4.0368624
1692514878010,3.07395,4.83405,2.28795,2.028675,-2.0515,3.94405
1692514878039,1.575,1.4760001,17.57295,1.6729625,-1.74625,3.0633626
1692514878068,-2.0020502,-5.92395,34.258953,1.5445375,-1.4634125,2.5403125
1692514878097,1.212,-7.4029503,27.969002,-0.014712499,-0.130075,0.307725
1692514878130,0.9979501,-3.6360002,13.52595,-1.41515,0.7192625,-1.2420375
1692514878158,-0.822,-2.5489502,8.563951,-2.6808374,1.2155,-2.736525
1692514878187,-1.33395,-3.8250003,7.3410006,-2.5411375,1.0313874,-2.7867124
1692514878218,-1.5520501,-3.6480002,4.37505,-1.923075,0.8069875,-2.8312626
1692514878246,-2.016,-3.6739502,0.16005,-1.7191625,0.86625,-3.0094626
1692514878277,-2.016,-3.6739502,0.16005,-1.7191625,0.86625,-3.0094626
1692514878303,-1.31805,-5.26305,-0.72705,-1.75615,1.4007125,-3.7312
1692514878331,-3.58905,-3.82695,-0.79905003,-2.0062625,1.687675,-3.9202626
1692514878364,-5.313,-2.2740002,-0.684,-2.7132876,2.3399749,-3.9257624
1692514878398,-4.9729505,-1.3110001,6.4429502,-1.775125,3.083575,-1.9999375
1692514878426,-6.1770005,-0.56205004,10.950001,-1.9141375,3.3864875,-1.0813
1692514878454,-3.6490502,-3.79605,22.777052,-1.5483875,3.3521125,-0.07315
1692514878482,-3.11505,-5.1940503,27.945002,0.4609,1.6764,1.373625
1692514878511,-1.88205,-1.70595,23.184002,1.368125,0.3645125,1.642025
1692514878547,0.079050004,1.1770501,17.37195,1.8288875,-1.5115374,1.654675
1692514878572,1.4170501,2.8620002,12.349951,1.6759875,-1.8481375,1.6988125
1692514878599,3.4810503,3.7720501,5.9329505,1.393425,-1.475925,2.1300125
1692514878629,2.844,3.9870002,4.9300504,1.3330625,-1.12585,2.4652374
1692514878656,2.523,3.6180003,4.58295,0.7437375,-0.6969875,3.142975
1692514878684,3.04005,3.5470502,3.1560001,0.80396247,-0.738375,3.4557874
1692514878715,4.2709503,3.7480502,2.1060002,1.1048125,-1.00155,3.74275
1692514878748,5.1540003,2.9320502,4.059,1.6127375,-1.2310375,4.042775
1692514878769,1.9939501,2.70195,9.703051,1.84525,-1.3699125,4.0530877
1692514878805,-2.09805,0.57105005,20.95605,2.1154375,-1.69345,3.828275
1692514878831,2.09205,-2.4120002,25.063051,1.848,-1.4938,3.13885
1692514878859,2.1379502,-3.4350002,22.890001,0.1144,-0.3111625,0.4079625
1692514878888,0.77805007,-3.52305,18.157051,-0.8388875,0.0616,-0.7671125
1692514878918,-1.5979501,-3.7890003,14.086051,-1.8616124,0.15675,-2.0213876
1692514878945,-2.33205,-3.3360002,6.0700502,-1.967075,0.207625,-2.3812249
1692514878974,-1.8610501,-3.5040002,1.797,-1.9404,0.3540625,-2.7347374
1692514879005,-1.75995,-5.53095,0.102000006,-1.761925,0.7854,-3.4166
1692514879033,-1.6860001,-7.26,2.08695,-1.8129375,1.156375,-3.8971624
1692514879062,-3.3310502,-5.3760004,0.92805004,-2.0714376,1.3655125,-4.179175
1692514879090,-3.5029502,-4.0740004,1.416,-1.6663625,1.2725625,-4.4314876
1692514879120,-3.31395,-3.8820002,3.288,-0.7522625,1.1136125,-4.1186748
1692514879151,-4.26195,-3.17805,17.182951,-1.357675,1.700325,-3.4645875
1692514879178,-2.469,-0.837,14.94795,-1.3263249,2.07295,-1.766325
1692514879206,-1.1380501,3.66405,11.89605,-0.6611,1.7040375,-0.8441125
1692514879232,-3.3040502,3.52305,19.591051,0.2668875,1.0286375,0.0240625
1692514879259,-2.56695,1.55505,20.577002,1.9023125,-0.2633125,1.4317875
1692514879289,-0.64500004,1.7590501,13.06095,2.4002,-0.6230125,1.975325
1692514879319,-4.43895,5.2200003,11.91705,2.4149125,-0.8540125,2.348775
1692514879343,-2.6239502,6.1720505,10.002001,2.1252,-0.80808747,2.331725
1692514879375,1.4479501,3.8869503,5.5930505,1.89585,-0.6336,2.4107876
1692514879410,3.0280502,1.6870501,1.7299501,1.7807624,-0.1241625,2.7710376
1692514879436,0.62295,1.9260001,4.51095,1.7213625,-0.105875,2.8392375
1692514879465,3.5089502,1.2919501,5.1340504,1.3976874,-0.616275,2.76925
1692514879492,4.263,1.0170001,4.2000003,1.2082125,-0.83875,2.7127376
1692514879523,1.33395,0.85095006,9.892051,0.8320125,-1.0968375,2.5686374
1692514879552,2.2339501,4.18095,11.022,0.6076125,-1.3079,2.4864125
1692514879581,1.48905,4.473,11.77095,0.1577125,-1.3957624,1.8715125
1692514879607,0.81195,1.43805,19.704,0.143275,-1.1342375,1.4342625
1692514879639,-0.39405003,1.131,16.38405,0.2712875,-0.5781875,0.600325
1692514879666,-0.51795,0.58095,12.927001,0.02695,-0.3887125,-0.0449625
1692514879695,-1.72905,-0.37095,12.508051,-0.29645,-0.23265,-1.37445
1692514879726,-1.15005,-0.78705,9.150001,-0.43065,-0.1164625,-1.7655
1692514879753,-1.284,-1.09395,5.3830504,-0.627275,0.061049998,-1.9949875
1692514879783,-1.2390001,-3.4990501,3.4030502,-0.8320125,0.29975,-2.2163625
1692514879812,-0.99705005,-4.572,3.45795,-0.8804125,0.364925,-2.262425
1692514879842,-1.677,-3.5710502,2.69895,-1.208625,0.4624125,-2.5146
1692514879866,-2.601,-2.7210002,0.09705,-1.5530624,0.5344625,-2.7627876
1692514879896,-2.39505,-0.354,4.32705,-2.09055,0.8666625,-2.9591374
1692514879921,-4.5610504,-1.9150501,6.7039504,-2.1208,1.1320375,-2.726075
1692514879951,-2.799,-4.39905,15.18,-1.97615,1.419,-2.2782376
1692514879983,-2.7870002,-6.1060505,17.518051,-1.2397,1.6808,-1.1009625
1692514880011,-3.084,-6.01305,18.291,-1.2397,1.6808,-1.1009625
1692514880038,-3.5340002,-1.1220001,16.731,-0.55385,0.5352875,-0.4104375
1692514880065,-0.564,-1.26795,15.285001,-0.3669875,0.2479125,-0.094325
1692514880094,0.96000004,0.56700003,15.60105,0.1678875,-0.106975,0.747175
1692514880124,2.5830002,6.3469505,8.644951,0.34375,-0.3669875,1.0608125
1692514880154,3.732,7.2760506,3.7450502,0.6527125,-0.7008375,1.864225
1692514880182,5.0719504,5.301,6.5599504,0.9868375,-0.2520375,2.5903625
1692514880207,3.9810002,5.2510505,8.431951,0.62315,0.0935,3.46555
1692514880240,-0.123,6.8929505,5.0230503,-0.97405,0.4723125,4.8833127
1692514880270,2.3389502,3.83205,9.83205,-0.6106375,0.2979625,5.1448374
1692514880299,2.69805,1.9549501,17.323952,1.1713625,0.0867625,4.4930873
1692514880326,0.192,0.60495,20.13705,1.4223,0.1513875,3.74
1692514880356,0.22095,-1.13205,24.208952,1.1319,0.0933625,2.859725
1692514880386,-1.248,-2.67105,19.786951,-0.3806,-0.038775,0.8633625
1692514880414,-2.73495,-3.7909503,15.12705,-1.0679625,0.0240625,-0.1104125
1692514880444,-1.2070501,-6.76695,12.22395,-1.8062,0.2476375,-1.6383125
1692514880471,0.27795002,-6.8620505,7.39095,-1.9267875,0.38005,-2.1866624
1692514880503,-1.08105,-5.64405,0.291,-2.1096625,0.60005,-3.0958126
1692514880531,-1.3770001,-6.4860005,-1.6060501,-2.212925,0.66055,-3.4551
1692514880559,-0.372,-6.5220003,0.86595005,-2.44915,0.858,-3.970175
1692514880587,-1.0999501,-5.3970003,-0.321,-2.678775,1.0852875,-4.2328
1692514880616,-3.7489502,-4.9950004,-1.9390501,-3.2627375,1.672275,-4.5351624
1692514880646,-2.9479501,-5.60295,3.6349502,-3.4441,1.9681749,-4.3335876
1692514880675,-3.45495,-3.7480502,7.6729503,-3.4967625,2.5548875,-3.0930624
1692514880705,-5.2720504,-3.0660002,11.74995,-3.1637375,2.580875,-2.2059126
1692514880732,-5.9760003,-5.6650505,26.253002,-2.4404874,2.287175,-1.2882375
1692514880763,-4.18305,-2.0010002,31.333952,-0.25905,1.1438625,0.4989875
1692514880787,-1.50195,1.9789501,21.484951,0.9125875,0.362725,1.30075
1692514880817,0.88095003,5.21295,8.65905,1.8095,-0.44275,1.9272
1692514880846,1.4460001,5.2170005,6.9600005,2.4088626,-1.4839,2.6989875
1692514880874,2.8129501,2.9340003,9.283951,1.7865375,-1.2703625,3.015925
1692514880904,3.1930501,2.6899502,9.660001,1.5362875,-1.298,3.6702874
1692514880936,4.2319503,3.42,6.8980503,1.6088874,-1.636525,4.1806874
1692514880963,4.914,3.82695,7.7160006,1.539175,-1.7423999,4.3960123
1692514880994,2.808,4.4610004,5.787,1.5796,-1.8143125,4.8302374
1692514881021,0.52500004,4.45095,7.7430005,1.5796,-1.8143125,4.8302374
1692514881050,0.91695005,0.33405003,21.361952,1.268575,-1.1869,4.6963124
1692514881079,2.901,-0.75105006,18.105001,1.3541,-0.70785,2.94195
1692514881107,-0.70995003,-1.218,24.406952,0.7777,-0.383625,1.749825
1692514881135,-2.25105,-2.9970002,21.903002,-0.357225,-0.029975,-0.205975
1692514881166,-2.8900502,-1.40205,13.819951,-0.350075,0.0946,-1.019975
1692514881191,0.34005,-2.2999501,5.60505,-0.2695,0.1808125,-1.7633
1692514881220,1.5990001,-4.026,1.026,-0.5894625,0.466125,-2.6794624
1692514881247,-1.2790501,-4.7920504,0.47595003,-0.7110125,0.4816625,-2.869625
1692514881283,-2.90895,-6.7519503,-1.18005,-1.110725,0.3113,-3.3572
1692514881310,-0.72195005,-9.933001,-2.5729501,-1.4911875,0.41635,-3.821675
1692514881340,-0.94200003,-10.812,2.48895,-1.6841,0.7555625,-5.0147624
1692514881366,-2.7469501,-9.49005,4.98,-1.8860875,0.964975,-5.6123376
1692514881395,-5.013,-6.1249504,4.07595,-3.381675,1.86615,-5.8854127
1692514881425,-4.053,-2.9920502,7.6900506,-4.3847375,2.548425,-4.2516375
1692514881454,-5.94,-1.4430001,13.416,-2.8758125,2.1407375,-1.2967625
1692514881484,-6.7440004,-1.1560501,20.721,-1.7582124,1.7403375,-0.0815375
1692514881512,-1.9300501,-3.1879501,24.535952,-0.4684625,1.1548625,0.9073625
1692514881543,2.0299501,-1.9189501,19.761002,1.9602,-0.4791875,2.2738376
1692514881570,1.8870001,-0.711,14.380051,2.5095124,-1.2606,2.5113
1692514881599,0.66795003,-0.70605004,15.208051,2.533575,-1.876875,2.4993374
1692514881629,1.89795,3.2689502,9.993,1.914,-2.497825,2.445025
1692514881656,4.6459503,3.85995,4.3219504,1.4553,-2.3579874,2.8589
1692514881686,4.644,3.63,6.2509503,1.43165,-2.221725,3.20375
1692514881711,3.9070501,3.5490003,10.342051,1.5244625,-2.1731875,3.5668874
1692514881740,5.3430004,3.3820503,11.869051,1.682175,-2.220075,3.8839624
1692514881769,4.4550004,2.50305,6.4879503,2.0097,-2.297075,4.13105
1692514881799,2.631,0.66495,11.20905,2.0913749,-2.2573376,4.000975
1692514881829,2.265,-1.5270001,17.79105,1.9856375,-2.0812,3.375625
1692514881863,1.4130001,-0.43800002,17.604,1.0747,-1.335125,2.0373375
1692514881891,0.78300005,-2.97495,20.26905,0.376475,-0.8017625,1.1937749
1692514881920,1.3909501,-3.7840502,15.772951,-0.57805,0.0433125,-0.221925
1692514881949,-0.025050001,-3.6139503,11.818951,-0.8564875,0.3334375,-0.80025
1692514881976,-1.6720501,-4.1719503,6.6390004,-1.295525,0.6235625,-1.7934124
1692514882006,-0.93000007,-5.4019504,2.5480502,-1.441,0.6906625,-2.2262626
1692514882033,-1.24605,-5.5030503,-0.52905005,-1.5613124,0.7888375,-2.6412375
1692514882068,-2.6749501,-6.939,-0.96900004,-1.9589624,1.1180125,-3.475175
1692514882100,-2.5240502,-7.3030505,0.411,-2.30615,1.3600125,-3.9188874
1692514882126,-2.9640002,-6.024,1.62495,-3.2583375,2.232725,-4.6569877
1692514882151,-3.903,-5.4690003,-0.60105,-3.7159374,2.1173625,-3.981175
1692514882181,-1.1719501,-6.4840503,8.02305,-4.0385127,2.62405,-2.67795
1692514882208,-3.59205,-5.7319503,12.85305,-3.857425,2.849825,-2.0681374
1692514882239,-4.49595,-3.4699502,22.618952,-2.4468124,2.167825,-0.86185
1692514882266,-2.6749501,-5.62995,30.21705,-1.1259875,1.35245,-0.2044625
1692514882294,-1.81305,-2.1349502,26.473051,1.477025,-0.4054875,1.238875
1692514882324,1.52505,0.45405003,19.060051,2.2075624,-1.1154,1.78695
1692514882355,2.0010002,1.9549501,14.48595,2.112,-1.539175,2.46125
1692514882382,2.63595,3.1300502,10.206,1.7127,-1.4403125,2.6767125
1692514882413,5.9770503,4.578,-0.462,1.7188874,-1.68135,2.8512
1692514882441,6.7909503,4.7790003,0.933,1.7149,-1.9118,3.15425
1692514882468,1.7860501,5.6719503,4.77705,1.7865375,-2.0711625,3.3420749
1692514882498,1.5829501,5.964,4.044,1.9688625,-2.3348875,3.6345375
1692514882523,4.4170504,3.6739502,3.9919503,2.7402375,-2.5276625,4.3610873
1692514882555,4.1410503,0.102000006,13.747951,3.3856626,-1.7653625,4.0343876
1692514882581,2.937,2.0989501,15.703951,3.2151625,-1.4988875,3.557675
1692514882611,0.43395,4.47795,12.40095,2.5546124,-1.334025,2.9805875
1692514882642,-0.42195,-1.2280501,27.576002,0.889625,-0.71775,1.5068625
1692514882671,0.40005,-3.21,21.295052,0.3999875,-0.228525,0.668525
1692514882698,-0.62595004,-2.19495,11.496,-0.8146875,0.6348375,-1.1917125
1692514882725,-2.9260502,-3.0250502,8.092051,-1.4372874,0.793375,-1.9454875
1692514882755,-0.83205,-5.3569503,6.0529504,-1.8191249,0.8349,-2.7600374
1692514882784,-0.83400005,-6.01305,2.7139502,-1.7975374,0.9010375,-3.0371
1692514882813,-2.2680001,-5.82105,1.3399501,-2.0218,1.041975,-3.705625
1692514882841,-2.016,-6.558,-0.09105001,-1.599125,0.890725,-4.081
1692514882872,-1.5829501,-5.49795,-0.19605,-0.86735,0.599225,-4.3935375
1692514882900,-3.6730502,-5.6970005,0.86100006,0.0059125,0.21505,-4.482225
1692514882934,-4.5589504,-5.7520504,7.5610504,-0.4640625,0.107525,-3.44685
1692514882962,-4.743,-3.5730002,11.635051,-2.0746,0.50655,-1.2024375
1692514882990,-5.74095,0.23895001,14.466001,-2.03995,1.1988626,-0.7880125
1692514883018,-3.24705,-1.3570501,20.404951,-0.4052125,1.03565,0.5671875
1692514883045,-1.5259501,-0.92100006,21.67605,0.60115,0.54175,1.2090375
1692514883074,-0.81000006,-1.1370001,17.31495,1.3927375,-0.0521125,1.703625
1692514883101,-2.6440501,-0.11505,19.88805,1.961025,-0.540375,2.168375
1692514883135,2.466,1.7629501,11.40495,1.6358374,-1.379125,2.4484625
1692514883161,3.5839503,2.86695,5.61,1.41955,-1.48005,2.6807
1692514883188,4.005,3.4939501,3.693,1.2412125,-1.5384874,2.961475
1692514883219,3.07395,3.3460503,5.00895,1.121725,-1.793,3.5816
1692514883254,3.7440002,2.3790002,7.6470003,1.2128875,-1.9300874,3.9227374
1692514883282,6.9420004,1.6459501,6.9030004,1.558975,-2.0337625,4.4823623
1692514883309,5.95095,0.20505,10.4740505,1.6783249,-2.0290875,4.542725
1692514883343,0.43095002,1.4929501,23.194052,1.54715,-0.9838125,4.1205997
1692514883374,-0.351,-0.28695002,20.601002,1.2648625,-0.5075125,3.5638626
1692514883397,1.64205,-3.0900002,24.118052,0.362725,0.0022,1.480875
1692514883429,-0.126,-1.89495,16.941,-0.080575,0.1997875,0.3922875
1692514883463,-0.9990001,-1.31595,10.675051,-0.7937875,0.50545,-1.1251625
1692514883490,-0.9990001,-1.31595,10.675051,-0.7937875,0.50545,-1.1251625
1692514883518,-1.3369501,-4.3320003,1.1719501,-1.060125,0.69795,-2.5356374
1692514883546,-2.163,-6.0820503,0.64095,-1.117325,0.774675,-2.9511626
1692514883574,-2.8930502,-8.01795,1.08105,-1.2826,0.8751875,-3.43255
1692514883603,-2.53095,-8.49495,1.72695,-2.0374749,1.346675,-4.701675
1692514883630,-2.63595,-7.5109506,1.62705,-1.356575,1.248225,-5.3161626
1692514883660,-3.4290001,-6.8220005,0.021000002,0.011275,0.776325,-5.61495
1692514883686,-4.03905,-4.90695,6.3180003,-1.5708,0.2693625,-2.734325
1692514883715,-4.7449503,-1.16295,14.158051,-2.28195,0.1353,-2.532475
1692514883743,-4.54395,3.28305,11.680051,-1.164625,0.90805,-1.1952875
1692514883772,-4.80495,1.0690501,17.973001,-0.4010875,0.7668375,-0.2198625
1692514883800,-1.2360001,-1.8760501,23.57895,1.8189875,-0.2314125,1.719025
1692514883831,1.1230501,-1.9579501,19.58205,2.508275,-0.6906625,2.3225124
1692514883859,-0.975,-0.024,15.976951,2.5906374,-1.654675,2.503325
1692514883888,-0.21900001,0.38505003,15.12495,2.5906374,-1.654675,2.503325
1692514883918,5.6470504,3.31695,3.62805,1.447325,-2.13455,2.598475
1692514883945,4.97895,3.9180002,3.9460502,1.2285625,-1.7199875,2.904275
1692514883977,2.9590502,3.4840503,10.122001,1.1488125,-1.035925,3.290925
1692514884010,4.72305,2.59905,9.16695,1.4592875,-1.63295,4.2499876
1692514884037,3.07095,1.9450501,9.562051,1.910975,-1.8393375,4.5709124
1692514884066,2.3700001,2.12505,12.954,1.9245875,-1.655225,4.2494373
1692514884095,1.8720001,2.7469501,12.781051,1.5888125,-1.1825,3.14325
1692514884126,-0.59205,0.507,20.84505,1.348875,-0.89925,2.48875
1692514884157,-0.079950005,-2.70195,23.257952,1.0929875,-0.596475,1.8086749
1692514884185,-1.7580001,-2.6520002,13.303051,0.295075,0.072325,0.291775
1692514884213,-1.8970501,-3.1279502,6.2419505,-0.2674375,0.3920125,-0.5165875
1692514884241,-1.07805,-4.2840004,5.9430003,-0.760375,0.621225,-1.226225
1692514884271,-0.13305001,-6.2140503,6.73005,-1.2705,0.8305,-2.226125
1692514884299,-0.47505003,-8.30595,5.28,-1.6506875,0.8757375,-3.0468626
1692514884327,-1.368,-8.90205,3.2689502,-1.9591,0.8798625,-3.5277
1692514884354,-1.6980001,-8.32005,0.79200006,-1.6027,0.7310875,-4.04525
1692514884383,-4.176,-6.084,-1.8690001,-0.9285375,0.6969875,-4.8884
1692514884413,-7.25895,-3.3100502,3.693,-1.9754624,1.4014,-5.0293374
1692514884442,-5.6790004,-2.7600002,15.442951,-3.1334875,2.80665,-4.0808625
1692514884471,-2.4450002,-1.9270501,18.46095,-3.0438375,3.2797875,-2.847625
1692514884499,-2.8230002,0.39405003,18.390001,-1.200375,2.2188375,-0.851125
1692514884529,-0.81495005,0.28395,18.445051,0.320375,1.75175,-0.497475
1692514884554,1.19505,0.64305,13.485001,1.4070375,1.392325,-0.159225
1692514884585,0.24000001,1.81095,9.29895,2.2136126,0.921525,-0.2443375
1692514884618,2.0350502,2.15805,9.306001,1.992375,0.887425,1.0352376
1692514884649,4.5199504,2.778,9.495001,1.816375,0.5113625,1.45145
1692514884677,4.8040504,4.22205,5.72205,1.6237375,-0.738375,2.2632499
1692514884706,2.877,5.8060503,5.1379504,1.6330875,-1.2330999,2.740375
1692514884731,3.00705,5.682,9.19095,1.76495,-1.6358374,3.31705
1692514884758,3.8160002,4.36095,9.378,1.435225,-1.50315,4.3632874
1692514884788,3.4710002,2.80005,11.69505,1.04995,-1.0663126,4.4313498
1692514884819,3.25095,3.4990501,15.484051,1.7202625,-0.80575,3.5905375
1692514884843,0.86895007,2.1679502,16.044,1.46685,-0.6809,2.90785
1692514884874,0.55605,-2.5780501,21.279001,0.57255,-0.3612125,1.353825
1692514884902,2.8300502,-4.3440003,19.67505,0.069575,-0.1530375,0.539825
1692514884931,1.5180001,-2.7640502,10.33695,-0.53295,0.048675,-0.29479998
1692514884960,-3.7570503,-1.3879501,0.51600003,-1.32605,0.1953875,-1.7257625
1692514884990,-3.21105,-6.1800003,4.3819504,-1.318075,0.176275,-2.160675
1692514885020,-1.64505,-9.196051,8.04405,-1.4884375,0.3102,-2.8752625
1692514885047,-2.8609502,-9.057,5.7319503,-2.0106626,0.707025,-3.424025
1692514885078,-3.6349502,-8.12895,2.328,-3.19715,1.5734125,-4.429975
1692514885104,-3.213,-7.7239504,0.84195006,-3.5347126,1.99155,-4.4823623
1692514885136,-3.0289502,-6.5989504,-1.8210001,-3.6858249,2.386175,-4.2359624
1692514885164,-5.1930003,-4.5430503,3.3619502,-3.77355,2.9816875,-3.3881376
1692514885194,-4.3980002,-2.33295,10.990951,-3.7712126,3.1658,-2.901525
1692514885222,-3.49305,-2.49405,12.793051,-3.581875,3.2415624,-2.2614625
1692514885252,-2.8969502,-0.84705,19.858952,-1.7353874,2.4206874,-1.088725
1692514885280,-2.43105,1.7160001,16.386002,1.088725,1.5065875,-0.9510875
1692514885308,-3.8239503,1.7010001,13.722001,2.0065374,1.548525,-0.5581125
1692514885337,-3.35505,0.64605004,14.8279505,2.4826999,1.396175,-0.9153375
1692514885364,1.9920001,1.0360501,16.549051,1.3882,0.96029997,0.6958875
1692514885394,4.491,3.6180003,11.173051,1.3336124,-0.014162499,1.9754624
1692514885419,4.69395,5.4760504,7.056,1.1710875,-0.530475,2.4396625
1692514885450,3.1930501,6.2110505,5.99805,1.0795125,-1.102475,2.992275
1692514885480,2.973,4.70505,8.767051,1.407725,-1.8501999,4.365075
1692514885508,2.8219502,2.05995,10.09095,1.776775,-1.8679374,4.819925
1692514885542,0.87600005,0.69795,13.8820505,2.1286376,-1.4991624,4.503675
1692514885571,0.52500004,1.014,15.76605,1.851575,-1.2863125,3.833775
1692514885598,-1.2430501,-0.78000003,19.40205,0.7495125,-0.8245875,2.009425
1692514885625,-1.9519501,-3.7150502,22.212002,0.2233,-0.547525,1.0514625
1692514885651,-1.9420501,-2.52495,16.47495,-0.2319625,-0.2539625,0.1265
1692514885682,-1.176,-1.9270501,6.2250004,-0.9986625,0.2902625,-1.58785
1692514885703,-0.58005005,-2.97705,-0.93105006,-1.1941875,0.4681875,-2.2020626
1692514885735,-2.088,-5.67,3.492,-1.200925,0.58134997,-2.9024875
1692514885768,-2.526,-7.5850506,8.37495,-1.2258124,0.599775,-3.28185
1692514885796,-3.1339502,-7.9230003,5.99805,-1.3893,0.616825,-4.4985876
1692514885824,-2.09805,-6.94605,0.064050004,-1.8964,0.594275,-5.104825
1692514885858,-2.9280002,-6.29505,-1.8790501,-2.5408626,1.4812875,-5.382025
1692514885885,-5.36805,-6.2899504,3.3979502,-1.92335,1.453925,-5.0831
1692514885912,-3.3090003,-5.9479504,18.892052,-1.5692875,0.9719875,-3.9347
1692514885940,-2.98095,-2.17995,12.98505,-0.8581375,1.5893625,-2.0988
1692514885970,-2.11695,4.0009503,13.942051,-0.66605,1.4047,-1.2353
1692514885995,-1.6860001,2.6800501,17.98995,1.0428,-0.2118875,0.5449125
1692514886026,1.3480501,0.45600003,17.209951,1.79575,-0.8636375,1.390125
1692514886054,0.08400001,1.194,8.712001,2.5867875,-1.57795,2.6081
1692514886084,-2.73705,1.5169501,12.264001,2.3120625,-1.4647875,2.8153124
1692514886115,0.915,2.73,12.456,1.7439125,-1.0814375,2.8389626
1692514886142,3.0330002,4.5210004,5.8969502,1.140975,-0.6804875,2.858075
1692514886171,3.52605,4.12095,5.5669503,1.14125,-0.6513375,3.022525
1692514886201,4.572,3.1210501,7.9219503,1.304875,-0.5808,3.7536125
1692514886228,4.5150003,4.4560504,8.293051,1.4683625,-0.5231875,4.1426
1692514886258,1.9609501,4.1449504,6.5460005,0.1923625,-0.0254375,4.477275
1692514886283,2.013,3.31905,13.818001,-0.2866875,0.224125,4.3847375
1692514886313,2.9160001,1.7710501,15.73305,-0.5119125,0.3356375,4.0660124
1692514886344,-2.055,-0.72,21.223951,-0.0204875,0.071775,2.677675
1692514886371,-2.7919502,-5.95695,28.443,-0.16775,0.0328625,1.7447375
1692514886400,-0.23805001,-3.801,14.76105,-1.1668249,0.3856875,-0.4679125
1692514886429,0.82905006,-2.1679502,4.95195,-1.7105,0.6831,-1.5582875
1692514886459,-0.55395,-2.4100502,-1.21305,-1.7956125,0.71995,-2.7594874
1692514886487,-2.8540502,-5.11695,-1.00995,-1.1479875,0.4893625,-2.8997376
1692514886518,-2.3830502,-7.3290005,1.6390501,-0.8925125,0.3683625,-2.9453876
1692514886546,-2.59605,-9.57705,4.056,-1.1356125,0.386375,-3.5209625
1692514886577,-2.3110502,-8.48505,4.5280504,-0.839025,0.22687499,-4.8467374
1692514886606,-4.33395,-6.7980003,3.1920002,-1.371975,0.6879125,-5.1372747
1692514886634,-4.85295,-4.7650504,2.77605,-2.7410624,1.9652874,-4.15635
1692514886659,-4.401,-3.5400002,11.938951,-2.8312626,2.258025,-3.214475
1692514886686,-4.4599504,-2.42205,14.854051,-2.6393125,2.3975875,-2.2149875
1692514886713,-3.7090502,-0.097950004,20.62005,-2.0750124,2.2468874,-1.224025
1692514886753,-3.2590501,-1.62705,24.35205,0.095699996,0.828025,0.57928747
1692514886780,-0.80295,-2.11095,21.43395,1.8759125,-0.780175,1.8239375
1692514886811,-1.19505,0.55005,14.967001,2.1564126,-1.25895,2.14665
1692514886839,-0.71400005,1.12905,13.19295,1.818575,-1.63185,2.419725
1692514886870,1.11105,2.3140502,4.93695,1.364275,-1.566125,2.5680876
1692514886900,4.1530504,2.46705,-2.60595,0.5852,-1.030975,3.0091875
1692514886926,7.7959504,1.0000501,-1.6369501,0.625075,-1.063425,3.182025
1692514886957,9.57705,1.143,3.2380502,0.6628875,-0.6919,3.276075
1692514886984,9.56295,2.12505,5.0950503,0.788975,-0.4461875,3.6444376
1692514887017,5.3479505,3.3379502,6.012,1.1743875,-0.906675,5.386425
1692514887045,4.41195,1.2580501,17.064001,1.7363499,-1.4333,6.3529124
1692514887073,-0.62805,4.39605,16.803001,2.6015,-1.9765625,5.4274
1692514887097,-2.2410002,0.54705,25.863,2.046275,-1.2634875,3.6075876
1692514887131,-3.5800502,-5.4859505,30.232952,1.1286,-0.2822875,1.533125
1692514887146,-3.6010501,-4.3180504,24.47895,0.1461625,0.735075,-0.454025
1692514887179,-2.45895,-1.9620001,6.591,-0.78155,1.59115,-2.1484375
1692514887214,-2.9980502,-2.4720001,-4.086,-1.8676625,2.2614625,-4.0044127
1692514887241,-2.742,-7.07805,5.4019504,-1.7309875,1.958,-4.1762877
1692514887268,-1.2390001,-8.91405,8.70495,-1.533125,1.6281375,-4.244075
1692514887294,-1.8270001,-8.68095,6.807,-1.5923874,1.5065875,-4.522925
1692514887322,-1.78005,-6.9289503,0.44400004,-2.456025,1.962675,-5.2350373
1692514887350,-1.3300501,-5.8450503,-1.98405,-2.7863,2.095775,-5.21015
1692514887377,-2.457,-5.82105,-1.1200501,-3.1185,2.2551374,-4.4529376
1692514887408,-3.8239503,-4.0069504,6.5719504,-3.268925,2.4154625,-4.0382376
1692514887433,-6.56895,-1.3780501,9.435,-3.4260874,2.6398625,-3.6075876
1692514887461,-2.33505,-0.23700002,15.687,-2.875675,2.6323,-2.09605
1692514887487,-0.52500004,-3.1999502,22.89405,-1.7326375,2.0700624,-0.9937125
1692514887517,-5.1139503,-0.021000002,25.188002,1.2002375,0.0477125,0.97377497
1692514887541,-3.4290001,0.076050006,24.400051,2.2015126,-0.93953747,1.6278625
1692514887573,1.2570001,1.50705,16.88895,2.6750624,-1.516075,2.1535249
1692514887600,3.8830502,5.5410004,7.9339504,2.5394876,-1.5929375,2.825075
1692514887629,4.3570504,6.42105,3.7090502,2.2611876,-1.295525,2.97055
1692514887662,1.9890001,5.859,2.63895,1.97065,-0.9175375,3.4651375
1692514887689,2.3800502,3.903,2.1700501,2.08945,-1.3047374,3.928375
1692514887719,5.13495,1.3090501,4.57305,2.56025,-1.4700125,4.7004375
1692514887746,6.492,-0.54495,3.8080502,2.6445374,-1.1012375,4.7257376
1692514887776,4.20405,-0.26505002,8.27595,2.4948,-0.602525,4.5456123
1692514887803,-0.22800002,2.505,13.66005,1.605175,-0.0367125,4.0090876
1692514887830,-0.702,0.26700002,21.58695,1.0489875,-0.21573749,3.54805
1692514887855,1.2379501,-3.59295,30.430052,0.0213125,-0.02585,1.4826624
1692514887884,1.24695,-4.65105,27.37305,0.0213125,-0.02585,1.4826624
1692514887914,-1.49205,-1.524,14.944951,-1.027675,0.9730875,-0.9398125
1692514887940,-0.669,-2.3359501,7.18305,-1.6336375,1.12475,-2.1729126
1692514887969,-0.27600002,-4.4880004,1.3920001,-1.59445,1.0707124,-2.3673375
1692514888001,-2.1360002,-6.1249504,0.62205005,-1.3932875,0.7847125,-2.604525
1692514888025,-2.77305,-7.7910004,0.028050002,-1.4834875,0.4907375,-2.9420874
1692514888054,-0.99000007,-9.45495,1.11,-2.259125,0.8845375,-4.2640123
1692514888084,-1.77495,-7.353,-1.2900001,-2.8697624,1.466575,-5.0098124
1692514888112,-4.69995,-4.2769504,-4.038,-3.5193124,2.1059499,-5.542075
1692514888140,-8.938951,-3.2959502,5.433,-4.476725,2.425225,-4.64255
1692514888169,-3.7060502,-3.528,20.841002,-4.6033626,2.33145,-3.200725
1692514888197,-6.1069503,-2.90295,23.593052,-3.321175,2.6203375,-0.49445
1692514888230,-8.022,-4.13805,33.292053,-1.705825,1.6242875,0.69313747
1692514888254,-3.8209503,-3.6499503,28.705952,0.2776125,0.507375,1.47345
1692514888291,0.71595,0.73395,12.12495,1.9333875,-1.0723625,2.3753126
1692514888316,2.0760002,3.3030002,4.71,1.4977875,-1.0704376,2.672175
1692514888352,5.2110004,2.0770502,1.0639501,1.29305,-1.013925,2.7399626
1692514888379,5.38605,1.50705,2.97,1.1380875,-0.6001875,2.85395
1692514888415,3.31605,1.6890001,7.08405,1.00485,-1.2585375,3.1735
1692514888441,4.0459504,3.1249502,4.95195,0.9906875,-2.34685,3.67345
1692514888466,4.563,3.86505,6.6460505,1.10605,-2.1164,4.0528126
1692514888493,4.21605,2.9959502,11.40705,1.35685,-1.822425,4.431625
1692514888522,4.30905,1.3279501,18.63405,2.0581,-2.040775,4.6982374
1692514888549,1.8940501,4.42005,10.960051,2.1615,-1.8561125,4.2656627
1692514888580,-1.3729501,0.033,25.659,1.52405,-1.1232375,2.4661999
1692514888606,0.13695,-3.6520503,22.73895,1.083775,-0.6909375,1.492975
1692514888635,0.855,-4.2840004,17.583,0.61861247,-0.220275,0.51507497
1692514888670,-1.26195,-3.348,5.5020003,-0.5842375,0.532125,-1.38985
1692514888699,-1.7509501,-3.3990002,3.0580502,-1.123925,0.6601375,-2.1088376
1692514888726,-2.4450002,-7.08195,3.5299501,-1.5761625,0.59785,-2.9965374
1692514888754,-2.1670501,-9.403951,4.5280504,-1.676125,0.6224625,-3.3935
1692514888781,-1.8199501,-8.80095,2.6490002,-2.3529,1.254825,-4.5005126
1692514888811,-0.80505,-6.0720005,-0.735,-2.8573875,1.7065125,-5.0974
1692514888844,-2.253,-4.071,-0.72300005,-3.678675,2.49205,-5.404025
1692514888869,-3.6420002,-4.90395,4.47795,-3.8182375,2.1520126,-4.9688373
1692514888904,-4.4700003,-4.04505,12.987,-3.571425,2.089175,-3.3462
1692514888928,-5.1210003,-2.5540502,13.468051,-2.9770124,2.1126876,-2.27535
1692514888956,-4.10895,2.0700002,19.47405,-1.937925,1.85405,-1.1504625
1692514888983,-4.49595,0.18795002,25.039051,0.58753747,0.76669997,0.8955375
1692514889011,-0.85995007,-3.3289502,27.88005,1.6424375,0.1296625,1.7881875
1692514889039,-0.034950003,-2.32905,24.68205,2.589125,-0.9444875,2.9847126
1692514889070,1.3600501,1.93095,7.9200006,2.2671,-0.9263375,3.1207
1692514889101,3.0349503,2.592,2.3710501,1.3457125,-1.2304875,3.04315
1692514889126,4.881,2.39295,3.31395,0.958925,-1.1937749,3.0157876
1692514889160,5.9680505,2.5080001,4.3369503,0.6092625,-0.797775,2.9656
1692514889188,6.6829505,2.73,5.5260005,0.671,-1.003475,3.0149624
1692514889216,7.1599503,2.697,5.643,0.8977375,-1.5703875,3.1926124
1692514889246,5.37405,1.6560001,4.32705,1.4730375,-2.544025,3.8339124
1692514889273,2.04705,1.74405,7.293,1.77815,-2.8197124,4.114
1692514889302,-0.71205,5.42595,16.411951,2.051225,-2.7259374,3.8988125
1692514889330,-0.81195,3.5779502,21.343052,1.8708249,-2.2108624,3.1015875
1692514889363,1.4749501,-3.0540001,32.884953,1.1191125,-0.2875125,0.4873
1692514889393,0.63000005,-1.79295,20.39505,-0.049225,0.67925,-1.66155
1692514889420,-0.95895004,-0.27705002,10.06005,-0.030524999,0.74965,-2.426325
1692514889451,-3.0960002,-0.32805002,6.7759504,-0.0144375,0.5434,-3.0006626
1692514889480,-2.12895,-2.08005,4.4490004,-0.7126625,0.4065875,-3.4804
1692514889508,-3.8790002,-2.76195,0.648,-0.7073,0.56993747,-3.516425
1692514889538,-4.10895,-4.4380503,-1.6489501,-0.731225,0.95617497,-3.6108875
1692514889566,-1.03005,-8.02995,-0.45705003,-0.85635,1.1856625,-3.6760626
1692514889595,0.73005,-9.352051,1.08405,-1.56585,1.7791125,-3.8863
1692514889624,-1.5160501,-8.24295,-2.6850002,-2.3315876,1.9757375,-4.1812377
1692514889657,-3.9580503,-7.03695,0.08505,-3.310175,1.7474875,-4.0569377
1692514889685,-2.0050502,-4.72695,12.465,-5.0215,1.42395,-2.86275
1692514889712,-6.7630506,-0.63405,9.910951,-5.141675,1.9300874,-2.4954875
1692514889743,-6.1789503,0.80595005,22.216951,-2.63395,1.494625,-0.97295
1692514889766,-7.0020003,-1.7370001,26.980051,-0.6974,0.8921,-0.0191125
1692514889796,-5.82495,-2.43195,32.100002,2.2815375,-0.1461625,1.865875
1692514889827,-0.94200003,-0.55695003,22.261951,2.8472126,-0.3047,1.7479
1692514889858,-1.7820001,2.32605,12.54705,2.41615,-0.34347498,1.85075
1692514889889,2.358,3.9180002,8.913,1.9393,-0.7876,2.1223125
1692514889916,6.16905,4.92105,4.992,1.533125,-1.049125,2.4495625
1692514889945,6.5539503,4.71,2.49105,1.134925,-1.317525,3.3202124
1692514889974,5.3310003,3.528,5.4040504,1.2577125,-1.925275,4.4191127
1692514890013,6.5350504,-0.67200005,9.861,1.4661624,-1.4262875,5.0703125
1692514890050,4.3110003,-1.0170001,10.858951,1.743775,-1.5599375,5.7083125
1692514890085,1.44105,0.49500003,11.106001,1.08075,-1.87935,4.8956876
1692514890098,0.120000005,1.53795,12.805051,0.6125625,-1.728375,4.1658373
1692514890121,-1.8700501,2.4480002,16.056002,0.253275,-1.3737625,3.273875
1692514890152,-2.38995,-0.88995004,23.328001,0.02255,-0.837375,2.244275
1692514890179,-0.504,-2.0389502,18.59505,-0.272525,0.4802875,0.07535
1692514890204,-0.82905006,-1.3660501,14.706,-0.4673625,0.9813375,-0.8657
1692514890231,-0.966,-1.7569501,11.938951,-0.6645375,1.21825,-1.5932125
1692514890262,-1.593,-1.4100001,8.03205,-0.8375125,0.84425,-2.4674375
1692514890292,-1.6189501,-1.8210001,4.143,-0.82156247,0.797225,-2.7435374
1692514890317,-2.1409502,-1.9099501,0.15195,-0.7524,0.779625,-3.1838124
1692514890349,-1.4250001,-4.8349504,-2.1319501,-0.736175,0.8188125,-3.3416624
1692514890377,-1.79595,-7.3170004,2.3089502,-0.88261247,0.7099125,-3.612125
1692514890404,-2.0689502,-4.842,1.62495,-1.203125,0.69685,-3.8916626
1692514890434,-1.9710001,-2.74305,-1.2420001,-1.203125,0.69685,-3.8916626
1692514890464,-2.80395,-4.3560004,0.22905001,-2.796475,1.5445375,-3.5760999
1692514890494,-2.96895,-1.46895,14.404051,-3.0441124,1.0437624,-1.8019375
1692514890523,-4.3170004,-3.01605,10.593,-3.069275,1.7694875,-0.997425
1692514890549,-4.551,-3.798,21.160952,-2.1701624,1.6066875,-0.512325
1692514890579,-8.29695,-2.013,25.09695,0.491425,0.2517625,0.6853
1692514890603,-4.93905,-1.4430001,22.47105,1.3022625,-0.233475,1.052425
1692514890634,-0.51105005,-0.23895001,13.399051,1.7169625,-0.5102625,1.27545
1692514890667,-4.28805,4.22895,15.76605,1.734975,-0.7841625,1.52515
1692514890694,-1.674,5.2840505,11.91705,1.3748626,-0.6604125,1.87605
1692514890719,4.053,2.46495,11.869051,1.355475,-0.7704125,2.278375
1692514890748,8.76795,1.0639501,10.215,1.4216125,-0.78925,2.8051374
1692514890776,9.288,2.3380501,7.728,1.26995,-1.2359875,3.7335374
1692514890805,7.34595,4.104,6.9930005,1.0346875,-1.8585875,4.1727123
1692514890837,6.67605,0.67395,8.071051,1.0176375,-3.0245874,5.445275
1692514890876,3.2320502,-0.42105,14.62695,0.66934997,-2.5509,5.9129124
1692514890912,-1.983,-0.076050006,16.45305,-0.088825,-1.2249875,5.0433626
1692514890923,-1.5280501,-2.66595,23.236952,-0.1408,-1.1188375,3.7444
1692514890957,0.80895007,-5.5939503,20.86005,-0.7547375,-0.5141125,0.7172
1692514890982,-0.74295,-3.52305,12.07005,-1.1231,-0.1104125,-0.53735
1692514891009,-2.4139502,-2.5510502,10.368,-1.4749625,0.37015,-1.4751
1692514891040,-1.4130001,-3.9090002,7.767,-1.75615,0.9343125,-2.562175
1692514891067,-1.3270501,-4.45905,5.361,-1.692075,1.065075,-2.931225
1692514891097,-3.6469502,-5.7520504,2.50305,-1.5750625,1.296075,-3.4414876
1692514891125,-3.42405,-8.10705,1.9810501,-1.6366625,1.4111625,-3.592325
1692514891153,-1.7200501,-7.3069506,1.81095,-1.286725,1.235025,-3.7255626
1692514891181,-0.93495005,-5.8549504,-0.23400001,0.050049998,0.5058625,-3.833225
1692514891210,-3.5359502,-4.5019503,-3.9949503,-0.366025,0.329725,-2.89795
1692514891242,-5.7769504,-1.0309501,7.8499503,-2.031425,0.1249875,-0.4049375
1692514891271,-0.11400001,-3.8890502,15.055051,-2.425225,0.067925,-0.146575
1692514891296,0.38295,-1.7830501,16.539001,-0.99495,0.5501375,0.3356375
1692514891324,-2.89995,-1.4260501,22.705051,0.25575,0.0812625,0.7189875
1692514891354,-0.69795,-0.26295,23.590952,2.1164,-1.29195,1.0355124
1692514891383,2.1000001,2.66595,16.38795,2.502225,-1.5904624,1.2881
1692514891411,-0.48000002,4.48995,9.17205,2.6321626,-1.656325,1.593075
1692514891441,-1.3410001,3.7360501,6.4090505,2.4630375,-1.63405,2.1451375
1692514891463,0.14595,3.93195,9.804001,2.3505626,-1.526525,2.5012624
1692514891499,2.7840002,4.6480503,8.607,2.2303874,-0.996875,3.2946374
1692514891527,3.5430002,4.66695,4.5589504,1.93435,-0.770275,3.65145
1692514891553,0.82905006,7.7260504,3.11805,1.1526625,-0.544775,4.2835374
1692514891582,0.67995006,6.7759504,4.12605,1.1526625,-0.544775,4.2835374
1692514891612,5.44605,2.946,13.179001,1.1625625,-0.4362875,4.2648373
1692514891642,5.52495,-2.4870002,14.365951,2.0428374,-0.3469125,3.3356125
1692514891671,-4.3309503,-2.9580002,24.622952,1.7554625,-0.495825,2.7743375
1692514891699,-1.7530501,-3.7170002,21.87195,-0.2739,-0.760925,1.3985125
1692514891727,1.30005,-3.1690502,12.666,-1.3558875,-0.401775,0.3526875
1692514891755,-0.18105,-3.8220003,7.0720506,-2.28745,0.4569125,-1.348325
1692514891786,-1.2049501,-5.44005,10.08405,-2.2429,0.50888747,-1.6919374
1692514891812,-0.89895004,-6.0030003,10.467001,-2.1225874,0.425425,-1.8932375
1692514891842,-0.43395,-6.333,5.1600003,-2.0739124,0.4657125,-2.4690876
1692514891873,-1.5499501,-7.18305,0.55695003,-2.226675,0.76147497,-3.1889
1692514891904,-3.4360502,-6.9409504,0.84900004,-2.354825,0.9213875,-3.5145
1692514891931,-4.9819503,-6.3640504,5.50005,-2.5711124,1.1694375,-3.8608625
1692514891962,-5.3580003,-7.8580503,5.37795,-3.0633626,2.1371624,-4.191825
1692514891994,-4.3429503,-6.8620505,8.96805,-2.7828624,2.9407125,-2.9902124
1692514892021,-2.5189502,-3.5400002,13.99995,-2.38205,2.930125,-2.2209
1692514892052,-2.3850002,-0.97395,13.618951,-1.287825,2.1242375,-1.0901
1692514892082,-2.775,1.07595,13.485001,-0.4791875,1.3935624,-0.570625
1692514892113,-0.05595,1.7179501,14.599951,0.391875,0.6142125,-0.014712499
1692514892144,-3.69705,3.1920002,16.198952,1.6948249,-0.5407875,1.127225
1692514892171,-4.1850004,3.9750001,16.66905,1.6948249,-0.5407875,1.127225
1692514892206,1.14705,3.10905,6.768,1.154725,-0.494175,2.6516874
1692514892231,3.3970501,2.604,4.059,1.4235375,-0.3922875,3.0789
1692514892267,2.8609502,5.57595,5.6580005,1.512225,-0.413325,3.4599125
1692514892290,1.2760501,6.84,10.82295,1.468775,-0.2234375,3.5094125
1692514892315,3.6169503,2.9220002,7.7310004,0.87505,-0.267025,3.82085
1692514892349,6.18795,-0.25095,8.587951,1.4738625,-0.5897375,3.906375
1692514892376,3.351,1.4239501,15.736951,1.5965124,-1.0494,3.312375
1692514892406,-1.5780001,4.8679504,14.236951,1.0723625,-1.3773375,2.8172374
1692514892433,0.64695,0.92295,17.961,0.168025,-1.2599125,1.453375
1692514892464,0.06705,-1.2420001,14.802001,0.0474375,-0.737825,0.6287875
1692514892490,1.2790501,-5.0740504,13.984951,-0.058849998,-0.2607,-0.1115125
1692514892519,0.99600005,-4.914,6.3690004,-0.7759125,0.049775,-1.2896125
1692514892547,-2.289,-3.4699502,-0.45705003,-1.303775,0.011275,-1.8060625
1692514892576,-3.8500502,-4.8780003,4.1740503,-2.1027875,-0.035475,-2.6013625
1692514892603,-1.7359501,-7.9870505,7.0459504,-2.300925,0.1692625,-2.9046874
1692514892638,-0.846,-8.404051,7.6039505,-2.7168624,1.1196625,-3.5943875
1692514892662,-1.5589501,-7.8679504,6.2110505,-3.0274749,1.5280375,-3.9298875
1692514892697,-4.37895,-6.3310504,2.42595,-3.2839124,1.7381375,-4.09695
1692514892724,-3.38595,-4.4710503,10.58205,-3.3023374,1.923625,-3.5822875
1692514892753,-4.86705,-0.15795001,10.069051,-2.680425,2.07955,-2.2031624
1692514892781,-4.5750003,0.84405005,14.071051,-1.999525,1.9545625,-1.3919125
1692514892809,-2.7850502,-0.49500003,18.583052,-1.0877625,1.6743375,-0.575025
1692514892836,-0.72405005,-1.9579501,17.383951,-0.1013375,1.2929125,0.212025
1692514892863,0.61095005,0.0,15.1699505,1.3622125,0.2916375,1.356025
1692514892891,0.22095,2.292,14.0449505,1.6115,-0.2574,1.5642
1692514892919,2.00895,6.0529504,10.258051,1.54495,-1.10825,1.7105
1692514892948,3.52395,5.9670005,6.4120502,1.561725,-1.34805,2.007775
1692514892978,5.75505,4.6789503,4.1400003,1.9474125,-1.6281375,3.28075
1692514893016,0.010050001,6.201,6.9619503,0.298375,-0.848375,4.5744877
1692514893041,-2.1430502,6.2730002,10.651051,0.345675,-0.8155125,4.95715
1692514893071,3.3949502,0.21195,12.85305,1.1735625,-0.9400875,4.9929
1692514893099,4.66305,-1.7830501,20.33805,1.799325,-0.20047499,3.6641
1692514893134,-1.674,1.02405,15.474001,0.5548125,-0.085525,2.03335
1692514893160,-3.1390502,-0.48795003,21.74295,-0.2816,-0.2564375,1.3745875
1692514893186,-0.26895002,-3.17805,19.900051,-0.830775,-0.2303125,0.6699
1692514893219,-1.07295,-1.98405,12.078001,-1.158025,0.3042875,-0.897325
1692514893245,-1.07295,-2.25195,7.4700003,-1.2307625,0.47685,-1.60215
1692514893273,-0.24795002,-3.66405,4.30095,-1.285075,0.50325,-2.16535
1692514893303,-1.1400001,-4.9950004,1.57395,-1.2681625,0.3141875,-2.867425
1692514893339,-3.31905,-6.9480004,0.32700002,-1.4447125,0.4338125,-3.4485
1692514893368,-2.77005,-8.01105,2.01,-1.7254875,0.6259,-3.8586624
1692514893398,-2.05995,-8.071051,2.292,-2.14445,1.0131,-4.307325
1692514893423,-4.20405,-7.0729504,0.17205001,-3.205675,1.509475,-3.58655
1692514893449,-3.6319501,-6.1200004,7.1920505,-3.629725,0.87175,-1.88705
1692514893477,-0.73605,-5.019,10.897051,-3.8581126,0.9497125,-1.3908125
1692514893506,-2.5450501,0.70305,8.32695,-3.3727374,1.4672625,-0.9697875
1692514893536,-6.3349504,0.63105005,21.327002,-1.3817375,0.647075,-0.2739
1692514893565,-2.35605,-2.9250002,26.896952,-0.12485,0.3026375,-0.3388
1692514893593,3.2749503,-4.0020003,24.115051,1.1913,0.1659625,-0.7671125
1692514893623,2.12595,1.0530001,13.875001,2.6741,-0.836825,0.6733375
1692514893649,1.161,4.2670503,9.82995,2.5034626,-1.4073125,1.0767624
1692514893680,1.5079501,5.9430003,4.16895,1.6146625,-1.6416125,1.6413375
1692514893711,1.9150501,5.8639503,4.5469503,1.1682,-1.0399125,2.1916125
1692514893739,2.2380002,5.55495,8.398951,0.7668375,-0.5863,3.4423125
1692514893767,3.7200003,5.3920503,7.8790503,1.399475,-0.7258625,3.91545
1692514893800,5.2210503,3.4249501,6.012,2.2243376,-0.787875,4.4567876
1692514893826,3.5070002,0.744,12.286051,2.398275,-0.8166125,4.5563374
1692514893853,-0.11100001,0.19800001,24.99105,2.391675,-0.9004875,4.521275
1692514893883,-2.3850002,-2.2380002,19.953001,1.4568125,-0.92125,3.5523124
1692514893912,-2.3730001,-2.3140502,17.820002,1.4568125,-0.92125,3.5523124
1692514893942,-1.62405,-3.2980502,15.784951,-0.922075,0.3873375,0.01375
1692514893970,-1.54305,-4.04295,9.009001,-0.733425,0.43395,-0.8782125
1692514893996,-2.1030002,-4.78905,5.124,-0.903925,-0.1043625,-2.0966
1692514894024,-1.404,-5.826,3.38895,-1.1254375,-0.07095,-2.554475
1692514894052,-1.6480501,-6.3619504,1.7629501,-1.2978625,0.201025,-3.0184
1692514894086,-3.99795,-7.4770503,0.31305,-1.71215,0.7261375,-4.05955
1692514894110,-5.37195,-8.20695,1.7730001,-1.99265,1.0542125,-4.5342
1692514894142,-3.20895,-8.02305,5.727,-2.68785,2.0739124,-4.9083376
1692514894170,-2.8969502,-6.6610503,2.3830502,-2.171125,2.6466,-3.9300249
1692514894198,-3.012,-4.87095,7.2330003,-0.9152,2.483525,-1.8203624
1692514894226,-2.7510002,-2.18295,12.642,-1.329075,1.5426124,-1.5685999
1692514894254,-1.69095,-0.27,14.916,-1.310925,1.0869375,-1.2159125
1692514894283,-3.7380002,-0.34695002,23.739,-0.02915,0.2773375,-0.22
1692514894314,-1.014,-0.23700002,20.97195,1.8359,-0.9513625,1.0572375
1692514894342,0.735,1.1839501,15.286951,2.4179375,-1.4070375,1.6724125
1692514894372,0.01905,5.94,12.817051,2.6131876,-1.66595,2.108975
1692514894399,0.13395001,7.7710505,5.6599503,2.36115,-1.780625,2.552
1692514894428,1.5780001,6.9409504,2.26395,2.3150876,-1.7120125,2.9030375
1692514894458,3.7129502,5.0500503,2.9310002,2.42385,-1.536425,3.420175
1692514894488,5.98005,2.5800002,9.220051,2.7907,-1.0368875,4.28615
1692514894517,4.40205,1.641,10.408951,2.7003624,-1.1501875,4.4594
1692514894545,2.535,1.5289501,9.555,2.3117876,-1.4680874,4.3762126
1692514894579,2.7960002,-0.21300001,18.487951,1.2376375,-1.7193,3.6807375
1692514894608,1.4170501,2.6110501,14.758051,0.726,-1.5211625,3.00905
1692514894633,-2.739,3.8220003,17.61195,0.23375,-1.2145375,2.18405
1692514894667,-0.62100005,-2.9340003,21.444,-0.39765,-0.4937625,0.4720375
1692514894697,-2.32995,-1.71405,13.227,-0.616,0.2932875,-1.1316249
1692514894725,-2.4190502,-1.797,11.776051,-0.616,0.2932875,-1.1316249
1692514894752,-2.01405,-3.1570501,2.02905,-1.1001375,0.6738875,-2.5216124
1692514894779,-4.13205,-6.096,1.416,-1.2057375,0.661925,-3.28735
1692514894810,-5.20695,-7.6740003,1.5619501,-1.13465,0.5176875,-3.54035
1692514894838,-2.4709501,-8.598001,3.006,-1.4455374,0.7392,-4.2101126
1692514894868,0.08400001,-5.9100003,4.9950004,-1.8302625,1.083775,-4.4829125
1692514894899,-0.147,-4.8180003,-0.14595,-2.9451125,2.071025,-4.422
1692514894927,-2.5930502,-3.59295,-0.90195006,-3.087425,1.9416375,-4.1969123
1692514894959,-5.8300505,-1.6470001,8.748,-2.792625,1.4707,-3.457025
1692514894985,-4.2829504,-2.28795,16.24695,-2.5601125,1.4712499,-2.7949624
1692514895015,-4.044,-4.13805,18.291,-2.047375,1.464375,-1.8269625
1692514895043,-8.271001,-1.8240001,26.659952,0.0895125,0.5498625,0.3700125
1692514895071,-6.3679504,-2.0059502,27.358952,0.384725,0.1601875,1.2021625
1692514895106,0.28305,0.24795002,11.983951,0.247225,-0.161425,2.4525876
1692514895134,1.50405,2.32605,8.181001,0.557975,-0.5451875,2.876225
1692514895162,3.2719502,3.1420503,8.917951,0.52648747,-1.1826375,3.3477125
1692514895189,6.9990005,3.04605,9.375,0.49513748,-1.4364625,3.5574
1692514895215,6.9559503,3.3360002,11.059951,0.7082625,-0.898425,4.224275
1692514895246,2.8180501,5.019,10.548,0.9010375,-1.172875,4.6987877
1692514895277,2.0059502,3.456,8.01105,1.4315125,-2.3326874,5.5342374
1692514895306,1.57305,0.58305,8.467951,1.716,-2.25225,5.4382625
1692514895336,-0.98205006,1.04805,13.960951,1.869725,-1.8654625,4.868875
1692514895363,-2.16,5.328,10.6390505,1.470425,-1.013925,2.877325
1692514895391,-2.25795,-0.37995002,21.760052,1.0399125,-0.60995,1.7056875
1692514895419,-1.38705,-7.5730505,32.10495,0.70015,-0.1876875,0.601975
1692514895451,-1.00395,-5.1460505,14.14605,0.4395875,0.193875,-1.2923625
1692514895481,-0.01305,-2.7450001,0.44895002,0.095699996,0.1923625,-3.167725
1692514895508,-0.32700002,-2.91,-3.009,-0.7445625,0.2871,-3.8336375
1692514895540,-3.9820502,-2.8860002,-0.56700003,-1.1446875,0.3474625,-4.1889377
1692514895566,-4.70205,-5.1480002,2.4460502,-1.3649625,0.601975,-4.586175
1692514895596,-2.94495,-6.90105,2.7900002,-1.6154875,1.6273125,-4.6869626
1692514895624,-0.717,-7.9849505,1.4500501,-1.84965,2.2741125,-4.4463377
1692514895651,-0.40305,-8.265,0.933,-2.200825,2.7190626,-4.1496124
1692514895680,-2.42595,-8.856,5.92605,-3.1040626,2.7341876,-3.7780874
1692514895717,-7.3279505,-3.86505,14.160001,-3.6201,2.1198375,-3.319525
1692514895746,-5.53305,-1.4260501,15.354001,-3.130325,1.7139375,-2.5491126
1692514895774,-7.6060505,-2.87895,27.52605,-0.622875,0.82335,-0.0911625
1692514895801,-6.4729505,-2.38395,31.095001,0.6364875,0.3268375,0.9904125
1692514895834,0.21795002,-0.342,22.045052,1.5698375,-0.229075,1.7609625
1692514895926,2.7600002,6.7590003,1.32105,1.8203624,-1.7972625,2.867425
1692514895955,3.9880502,5.20095,1.95,1.8280625,-1.1276375,3.5099626
1692514895987,4.4050503,2.9149501,5.10195,1.9569,-0.8831625,3.8644376
1692514896012,3.7920003,1.96695,5.9280005,2.1544874,-0.9469625,4.22345
1692514896043,4.5079503,1.2390001,4.0729504,1.0412875,-0.1997875,4.668675
1692514896072,3.9240003,0.51900005,8.941951,1.1853875,-0.2451625,4.5892
1692514896100,1.8510001,3.90105,16.771051,1.03235,0.1441,3.9363499
1692514896128,-1.00395,5.289,20.170052,0.8173,0.1375,3.34565
1692514896157,-3.0889502,0.47295,31.372952,0.3515875,-0.0320375,1.4007125
1692514896186,-2.63205,-2.9200501,27.624,0.1676125,0.2135375,0.27335
1692514896213,-0.96105003,-2.283,13.72395,-0.18865,0.4115375,-0.8108375
1692514896242,-2.5099502,-3.1230001,7.8889503,-1.0861125,0.706475,-2.4561625
1692514896269,-2.505,-3.4320002,4.143,-1.3443375,0.73535,-2.900425
1692514896299,-2.66805,-3.6810002,-0.097950004,-1.41185,0.6851625,-3.3862126
1692514896329,-5.2530003,-4.083,-1.005,-1.4133625,0.44494998,-3.5721126
1692514896357,-5.5210505,-5.5150504,-1.4460001,-1.5305125,0.82115,-3.881075
1692514896385,-3.4810503,-6.02895,-0.84495,-1.6781875,1.426975,-3.9441874
1692514896414,-2.97405,-5.15595,-1.3879501,-1.9295375,2.18185,-3.8856125
1692514896442,-4.39095,-4.1620502,-1.24905,-2.7308874,3.42485,-3.4491875
1692514896471,-5.28105,-3.3600001,8.79105,-3.1334875,3.671525,-3.0965
1692514896503,-3.8449502,-2.4510002,13.97595,-3.292575,3.570325,-1.926925
1692514896530,-3.8430002,-0.35595003,15.240001,-2.5568125,2.9653249,-1.2007875
1692514896557,-8.680051,0.10005,25.045952,-1.2654124,1.8794875,-0.5693875
1692514896583,-9.670951,-0.615,31.909052,1.2126125,-0.463925,0.39833748
1692514896618,-0.64005005,2.1340501,19.91205,2.321,-1.64175,1.4532375
1692514896644,1.3050001,2.4409502,13.82505,1.8271,-1.390675,1.8360375
1692514896674,2.94495,1.6200001,9.93,1.225125,-0.705925,2.0964625
1692514896702,4.125,2.505,4.32705,0.92509997,-0.2662,2.6101625
1692514896727,4.3159504,3.2260501,1.23405,0.76353747,-0.8358625,2.889975
1692514896761,5.07705,1.9410001,4.3099504,0.5819,-1.5186875,3.504875
1692514896785,4.5199504,2.094,5.92395,0.6193,-1.7406125,3.9280999
1692514896817,3.2029502,2.9170501,4.8439503,0.89925,-2.0868375,4.9949627
1692514896844,2.2740002,2.63205,7.7790003,1.0927125,-2.1346874,5.458475
1692514896875,2.112,2.7970502,13.440001,1.3143625,-1.6445,5.652625
1692514896905,0.80205005,6.7110004,17.608952,1.5959625,-0.9519125,4.89445
1692514896934,-0.47700003,6.84,19.000051,1.5959625,-0.9519125,4.89445
1692514896964,-3.0030003,-2.214,31.774952,1.1103125,0.124437496,2.064975
1692514896989,-3.20895,-0.88095003,17.14995,0.716375,0.6037625,0.9493
1692514897022,-4.2780004,-0.69105005,8.50395,-0.424875,1.1925375,-0.8793125
1692514897040,-3.31605,-2.013,5.9550004,-0.5622375,1.1092125,-1.39865
1692514897076,-1.8510001,-4.16895,2.7930002,-0.2330625,0.78705,-2.045175
1692514897104,-3.3450003,-4.9279504,0.39705002,-0.295075,0.7605125,-2.3277376
1692514897134,-3.83295,-5.09595,-0.84195006,-0.8617125,0.8683125,-2.9715126
1692514897168,-3.864,-5.67495,-0.873,-1.1829125,1.078825,-3.354175
1692514897199,-3.3259501,-5.7520504,-0.67200005,-1.1262625,1.1842875,-3.9854374
1692514897221,-4.4440503,-5.8159504,-1.21605,-1.6699375,1.961575,-4.132425
1692514897249,-5.688,-5.136,0.58605003,-2.14995,2.6532,-4.1276126
1692514897277,-5.5260005,-2.4120002,5.505,-2.79235,3.689675,-3.537875
1692514897307,-7.0579505,-0.98295003,11.302051,-2.756875,3.822775,-2.8194375
1692514897334,-4.67595,-7.5589504,33.40995,-1.496825,2.6918375,-0.7220125
1692514897362,-2.42295,-5.4360003,29.014952,-0.424325,1.3110625,0.227975
1692514897392,-1.6570501,-3.657,25.465052,0.2286625,-0.5346,0.8207375
1692514897422,-1.42305,0.16005,21.19005,0.6037625,-3.3507376,1.6121875
1692514897453,3.7489502,3.039,16.84995,0.6419875,-3.6878874,2.7831376
1692514897481,6.15705,5.5360503,10.656,0.65381247,-3.4775126,3.4318626
1692514897507,6.6240005,6.3090005,4.2910504,0.708125,-2.602325,4.0739875
1692514897536,3.5380502,5.9329505,3.0300002,1.0720875,-1.2527624,5.3915124
1692514897567,1.7839501,3.9420002,4.18095,1.4179,-1.817475,5.896825
1692514897591,0.68295,3.04905,3.5299501,1.816375,-2.057275,6.05
1692514897627,0.18900001,2.24895,7.089,2.320725,-1.704175,5.0777373
1692514897652,-1.8319501,3.3670502,12.549001,2.285525,-1.3193125,4.2150626
1692514897682,-0.59205,3.2260501,16.927052,2.0953624,-0.9218,3.3367126
1692514897719,-6.3970504,-1.1890501,30.343052,1.020525,0.2160125,1.165175
1692514897740,-5.4250503,-2.5129502,25.459951,0.8383375,0.55495,0.5836875
1692514897771,-1.7200501,-2.2999501,16.96095,0.47753748,0.848925,0.042075
1692514897798,-1.0639501,-1.1920501,7.9489503,-0.7398875,1.0839125,-0.8053375
1692514897826,-0.573,-1.2919501,3.255,-0.5919375,0.869,-1.0283625
1692514897855,-0.13005,-2.50095,1.0500001,-0.4538875,0.443575,-1.3267375
1692514897887,-0.17595,-3.42,-1.55805,-0.481525,0.3306875,-1.5478375
1692514897907,-0.23805001,-4.31505,-2.3689501,-0.5245625,0.2550625,-1.854875
1692514897939,-3.2370002,-7.0270505,0.006,-0.8685875,0.25355,-3.0357249
1692514897968,-4.69005,-7.68795,3.7210503,-1.2298,0.5058625,-4.367825
1692514897999,-2.63895,-7.9510503,4.78905,-1.801525,1.605175,-9.050662
1692514898028,-1.143,-6.7980003,2.9650502,-1.5818,1.276,-10.521362
1692514898057,-3.0580502,-4.677,4.8580503,-1.7681125,2.70655,-8.90395
1692514898085,-5.7580504,-2.0080502,9.403951,-1.7672875,2.83415,-7.4292626
1692514898114,-6.4759502,-5.15595,21.693,-1.6185125,2.5389376,-6.0165873
1692514898140,-9.16905,-5.36595,36.576,-1.004575,1.3633125,-1.4114375
1692514898169,-3.4020002,-2.2999501,26.37495,-0.9326625,1.3523124,1.15555
1692514898193,-0.36195,-0.56895,19.84695,-0.622875,1.5181375,3.8163126
1692514898230,0.24195,0.38205,13.8820505,-0.31185,-1.3821499,7.7600875
1692514898254,2.937,0.99495006,9.83205,-0.6204,-2.9093626,9.261038
1692514898283,4.8949504,2.8909502,6.5719504,-0.644875,-2.8928626,9.2724495
1692514898311,6.8869505,2.8620002,7.1299505,-0.58575,-2.7725499,9.059463
1692514898339,7.7629504,2.52705,8.05395,-0.2061125,-3.012625,8.603787
1692514898371,5.74305,3.7600503,7.1850004,0.1615625,-3.1955,8.236663
1692514898401,2.334,4.6260004,7.0720506,0.5685625,-2.7754376,6.7494626
1692514898426,-2.0640001,4.3819504,11.13405,0.1518,-2.18955,5.776925
1692514898453,-0.95595,2.19195,14.872951,0.3389375,-1.9218374,4.4226875
1692514898481,-0.46305,3.1039503,12.68805,1.20065,-0.737,2.2661376
1692514898512,-7.0410004,3.9889503,21.19005,1.2104125,-0.084975,1.5247375
1692514898538,-4.82205,-3.48495,27.873001,0.5809375,0.923725,0.7412625
1692514898568,-2.09505,-3.183,19.65105,0.3927,1.37445,0.4697
1692514898607,0.85695004,-1.55595,5.05905,-0.4327125,1.8671125,0.68585
1692514898634,0.048,-1.5480001,1.404,-0.91987497,1.6971625,1.4366
1692514898659,-0.66195005,-2.3140502,-1.0890001,-1.1972125,0.935825,3.216675
1692514898686,-1.6980001,-3.4680002,-2.52705,-0.9068125,0.6139375,3.8988125
1692514898712,-2.253,-6.23505,-2.94405,-0.4367,0.4191,4.5692625
