@ HyperIMU - ianovir
@ Date:Thu Aug 17 09:24:25 GMT+03:00 2023, Sampling Rate:100ms

bma4xy_accelerometer.x,bma4xy_accelerometer.y,bma4xy_accelerometer.z,oem_pseudo_gyro.x,oem_pseudo_gyro.y,oem_pseudo_gyro.z
-0.702,-0.273,10.30395,0.0207625,0.023375,-0.155375
-0.46800002,-0.45705003,9.969001,0.0191125,0.1236125,-0.4873
-0.67605,-0.36795002,9.84405,0.0270875,0.0906125,-0.4362875
-0.68295,-0.31995,9.70995,-0.011275,0.0672375,-0.1243
-0.76905006,-0.22500001,9.741,-0.0284625,0.012375,0.1401125
-0.85095006,-0.105000004,9.342,0.036025,0.0735625,-0.14093749
-0.39600003,-0.84000003,10.713,-0.0243375,-0.0457875,-0.039325
-0.10605001,-0.483,9.981001,-0.164725,-0.1969,0.1329625
-0.61905,-0.507,10.146001,0.0210375,-0.04895,-0.049225
-0.597,-0.45195,10.543051,0.0045375,0.104499996,0.036849998
-0.48195,-0.17895001,9.19995,-0.0202125,0.018424999,0.10395
-0.573,-0.23400001,9.583051,0.046475,-0.074525,-0.02695
-0.55605,-0.14805001,9.86295,0.0603625,0.0132,-0.133375
-0.46800002,-0.24405001,9.672001,0.025575,-0.0226875,0.0094875
-0.49905002,-0.17895001,9.68595,0.0198,0.003575,-0.07095
-0.48195,-0.22905001,9.835051,0.0202125,0.0155375,0.0114124995
-0.29295,-0.25305,9.688951,-0.008525,-0.015125,0.23375
-0.38205,-0.23400001,9.92595,0.0268125,-0.0345125,-0.0504625
-0.609,-0.097950004,9.744,-0.01925,-0.052249998,-0.0202125
-0.34800002,-0.29205,9.889951,-0.003575,0.019524999,0.1639
-0.42495003,-0.24405001,9.66705,-0.0144375,-0.0015125,-0.0092124995
-0.43695003,-0.37305,10.048051,0.0059125,0.0176,-0.3180375
-0.42000002,-0.402,9.909,-0.03795,-0.015262499,-0.1390125
-0.573,-0.23700002,9.555,-0.0518375,-0.014025,0.2297625
-0.50100005,-0.27705002,9.780001,-0.0070125,0.033825,0.074525
-0.564,-0.31800002,9.76095,0.022824999,0.035475,-0.251075
-0.504,-0.34695002,9.835051,-5.5E-4,0.02805,-0.049225
-0.47700003,-0.39000002,9.835051,-0.0213125,0.01045,0.036575
-0.51105005,-0.35205,9.801001,-0.0122375,0.0045375,0.0287375
-0.45795003,-0.75105006,10.11495,-0.0292875,4.125E-4,0.103675
-0.55200005,-0.58605003,9.693001,-0.1287,-0.0077,0.108075
-0.564,-0.68205005,9.82005,-0.0826375,-0.02035,0.034649998
-0.564,-0.648,9.727051,-0.029975,0.0143,-0.2462625
-0.50895,-0.68205005,9.757951,-0.0358875,0.006875,-0.071775
-0.55605,-0.75105006,9.99705,-0.016775,0.0088,-0.07755
-0.49395,-0.68205005,9.703051,-0.01595,0.005225,0.01705
-0.46500003,-0.60105,9.603001,-0.0053625,-0.0064625,0.05335
-0.49905002,-0.79200006,10.498051,0.018424999,-0.005225,0.0419375
-0.34095,-0.44700003,9.13095,0.0149875,0.0045375,0.02035
-0.54,-0.36600003,9.81105,0.0900625,-0.007975,0.0732875
-0.47505003,-0.31305,9.682051,0.0702625,-0.02145,0.061049998
-0.504,-0.36600003,9.84,0.0605,-0.005225,-0.041249998
-0.50595003,-0.32805002,9.672001,0.032725,0.00715,-0.03355
-0.52005005,-0.32505003,9.76095,0.027224999,0.0088,0.0829125
-0.49905002,-0.39000002,9.816001,0.0099,4.125E-4,0.0682
-0.48900002,-0.28695002,9.813001,0.0026125,0.0022,0.026124999
-0.50595003,-0.30405003,9.910951,0.02365,-0.021175,-0.028875
-0.46305,-0.30795002,9.813001,0.0187,-0.00935,-0.18205
-0.39405003,-0.22905001,9.604951,0.00605,-0.009625,0.0199375
-0.41505003,-0.28905,9.865951,0.0078375,-0.015675,0.2206875
-0.38205,-0.33705002,9.913951,0.004675,-0.042625,0.0614625
-0.38895002,-0.27705002,9.75105,0.0133375,-0.018424999,-0.070675
-0.30705002,-0.15300001,9.543,0.0144375,-0.0059125,-0.2850375
-0.35805002,-0.23700002,9.93,0.0254375,-0.04235,-0.1038125
-0.303,-0.18405001,9.624001,0.0011,-0.0191125,0.0198
-0.324,-0.294,9.885,-0.00495,-0.037675,0.278575
-0.32205,-0.29895002,9.7890005,-0.0207625,-0.0108624995,0.24695
-0.252,-0.20805001,9.703051,-0.01375,-0.001375,0.0567875
-0.252,-0.26805001,9.801001,0.0075625,-0.0213125,-0.154
-0.16395001,-0.33705002,9.76305,-0.0031625,-0.006875,-0.0485375
-0.29805002,-0.33705002,9.918,-0.0022,-0.00275,-0.0941875
-0.252,-0.36105,9.89505,-0.00715,-6.875E-4,-0.0394625
-0.22395001,-0.30105,9.804001,-0.0215875,-0.0081124995,0.14465
-0.24495001,-0.33705002,9.8230505,-0.0100375,-1.375E-4,0.0166375
-0.19005,-0.30105,9.703051,-0.0160875,-0.014162499,0.23595
-0.22800002,-0.31095,9.95205,0.0031625,-0.009625,-0.01375
-0.33600003,-0.31800002,9.87495,0.01485,0.0055,-0.037675
-0.23805001,-0.30600002,9.691051,0.002475,0.014025,0.00495
-0.23805001,-0.37605003,9.95205,0.003025,0.0034375,-0.1720125
-0.252,-0.31305,9.708,-0.006875,-0.004125,-0.0490875
-0.18795002,-0.38700002,9.90705,-0.014575,-0.018975,0.1810875
-0.22095,-0.44505003,9.898951,-0.018424999,-0.03575,-0.0265375
-0.21405001,-0.47400004,9.68595,-0.02805,-0.011275,0.1111
-0.324,-0.411,9.916051,-0.02695,-0.002475,-0.117425
-0.11400001,-0.42105,9.86295,-0.0314875,-9.625E-4,-0.170775
0.015000001,-0.61200005,9.957001,5.5E-4,-0.004675,-0.062425
0.0049500004,-0.61005,9.98595,-0.035475,-0.0611875,0.08415
-0.09195001,-0.55305004,9.86295,-0.0389125,-0.0457875,0.0037125
-0.075,-0.48105,9.691051,-0.0094875,-0.011,0.125125
-0.03705,-0.50205004,9.636001,0.0048125,-0.005775,0.076175
-0.07305,-0.45000002,9.58605,-0.0020625,-0.001925,0.131175
-0.07005,-0.61695004,10.08405,0.0103124995,0.043449998,-0.30085
0.003,-0.62895006,9.904051,-0.0081124995,0.013062499,-0.0969375
-0.075,-0.55695003,9.81105,-0.0034375,1.375E-4,-0.0627
-0.06795,-0.60300004,9.792001,-0.002475,0.01045,-0.0235125
-0.08505,-0.54105,9.889951,0.0020625,-0.0078375,0.091437496
-0.15705001,-0.57195,9.708,0.0138875,0.0033,0.070125
-0.049050003,-0.63195,9.885,-0.0099,0.0097624995,-0.0427625
-0.06795,-0.648,9.705001,-0.01705,0.0017875,-0.2619375
-0.063,-0.65295005,9.33195,-0.032449998,-0.015262499,0.1648625
-0.19995001,-0.71505004,9.61695,-0.0188375,0.0187,-0.120725
-0.22605,-0.77295005,9.721951,-0.051975,0.00715,0.266475
-0.291,-0.86595005,9.79905,-0.0592625,0.0196625,-0.0031625
-0.25500003,-0.84195006,9.61005,-0.0606375,0.031625,0.072875
-0.20505,-0.90195006,9.7890005,-0.038225,0.0301125,-0.027224999
-0.18105,-0.684,9.732,-0.0171875,0.0240625,0.0048125
0.112950005,-0.63195,9.595051,0.045649998,0.00385,-0.18493749
0.108,-0.32505003,9.531,0.0873125,-0.1496,0.28105
0.21105,-0.36600003,9.87495,0.1266375,-0.132825,0.1513875
0.20595,-0.37095,9.966001,0.0875875,-0.0873125,0.1027125
0.17295001,-0.41595003,9.837001,0.0545875,-0.0350625,0.0270875
0.19695,-0.39000002,9.7560005,0.0086624995,0.0034375,-0.3128125
0.21300001,-0.39495003,9.780001,-0.0022,-0.0034375,-0.040975
0.3,-0.38700002,9.65505,-0.0138875,-0.0154,-0.148775
0.24705002,-0.33705002,9.528001,-0.0048125,-0.0086624995,-0.0746625
0.22500001,-0.43305,9.703051,1.375E-4,6.875E-4,-0.0174625
0.3,-0.34395,9.588,-0.00275,6.875E-4,0.2176625
0.18195,-0.33495003,9.693001,0.032725,-0.015125,-0.0378125
0.39105,-0.19095,9.571051,0.024475,-0.02365,-0.20047499
0.40695003,-0.31605002,9.84195,0.0257125,-0.0655875,0.141625
0.32295,-0.282,9.897,0.0155375,-0.0202125,-0.032449998
0.441,-0.31800002,9.8539505,0.0193875,0.0022,0.1456125
0.37905002,-0.29895002,10.036051,0.0154,-0.00715,0.1007875
0.35205,-0.32295,10.00905,-0.006325,-0.0066,-0.1359875
0.34305,-0.26505002,9.72,-0.0,0.0103124995,0.0012375
0.312,-0.37305,9.724951,0.003575,0.0165,0.100375
0.075,-0.25605002,9.82995,0.009075,0.037675,0.0606375
0.12495001,-0.41895002,10.029,0.013612499,0.0785125,-0.0906125
-0.11595,-0.19800001,9.769951,0.0191125,0.0779625,0.1035375
-0.37695003,-0.025950002,9.741,0.027224999,0.1040875,0.040975
-0.26700002,-0.009000001,9.684,0.038775,0.1122,-0.0484
-0.25995,-0.048,9.769951,0.047849998,0.0471625,-0.1810875
-0.20205002,-0.112050004,9.768001,0.0281875,0.0325875,-0.242
-0.279,-0.15795001,9.90705,0.0031625,0.007425,0.078375
-0.31005,-0.15300001,9.93,-0.00935,0.020075,0.1632125
-0.23295002,-0.13095,9.733951,-0.00715,0.03575,0.069299996
-0.26205,-0.08595,9.804001,-2.75E-4,-0.0067375,-0.0374
-0.15900001,-0.14805001,9.78195,-0.0055,-0.0114124995,0.11825
-0.20205002,-0.15,9.877951,-0.0026125,-0.02145,-0.0576125
-0.19695,-0.12900001,9.95895,-2.75E-4,-0.0048125,-0.276375
-0.13695,-0.112050004,9.682051,-1.375E-4,-0.0072875,-0.009075
-0.10605001,-0.162,9.922951,-0.0037125,-0.00825,0.060225
-0.16395001,-0.094950005,9.78195,-0.0028875,-0.0237875,0.234025
-0.11595,-0.11895001,9.82005,-5.5E-4,2.75E-4,0.129525
-0.25695002,-0.12195001,9.835051,0.00165,-0.0078375,-0.16555
-0.14895001,-0.12195001,9.591001,-0.0012375,0.0092124995,-0.2239875
-0.21195,-0.08595,9.78705,-0.0039875,0.0048125,-0.088275
-0.231,-0.30795002,9.885,-0.00275,0.017324999,0.1043625
-0.18795002,-0.19605,9.523951,-0.05335,0.02695,0.053075
-0.11595,-0.36105,9.96405,-0.0328625,-0.002475,-0.0510125
-0.70995003,-0.25800002,9.92595,-0.012375,0.006875,-0.0826375
-0.31500003,-0.342,9.784051,-0.0015125,0.1249875,-0.2864125
-0.34095,-0.28500003,9.954,-0.006875,0.011,-0.118525
-0.23295002,-0.048,9.387,-0.0191125,-0.0506,-0.1808125
0.087000005,-0.16005,9.648001,0.070125,-0.0389125,-0.406725
-0.21195,0.15,10.696051,0.0556875,-0.106425,-0.344575
0.52695,0.0139500005,12.09,0.1447875,-0.072325,-0.8801375
0.63495004,0.08805001,9.351001,0.053075,-0.18095,-0.8602
1.0540501,0.25095,7.7880006,0.041525,-0.2322375,-0.4767125
0.54795,-1.335,6.9259505,-0.120725,-0.3081375,-0.13475
-1.77495,-0.69105005,11.236951,-0.768075,0.0099,1.5389
0.31605002,-2.19495,17.064001,-0.0242,0.501325,0.0320375
-0.97800004,1.83,6.4120502,-0.0264,0.013062499,-0.18975
1.04595,0.564,4.96395,0.5498625,-0.0474375,-1.0880375
0.48600003,-0.16005,12.943951,0.187,-1.08075,-0.088
2.3800502,0.23895001,10.1959505,0.1749,0.2770625,0.2982375
-1.5310501,-0.99495006,1.9759501,-0.0952875,-0.2305875,1.2016125
-1.26705,-2.05605,4.4710503,-0.88467497,0.5489,2.0813375
0.15105,-1.9290001,13.53495,-0.864875,0.1835625,2.22035
2.9560502,-0.624,11.194051,0.49774998,0.5071,-1.8931
3.0499501,-1.149,7.1130004,0.70235,-0.0686125,-2.9368625
3.18405,-0.55695003,16.19205,0.500225,-0.8130375,-1.6017375
4.1290503,-5.40705,16.21095,0.280225,0.1973125,-0.625625
-1.9759501,-5.53095,-0.048,-0.40645,-0.2190375,2.845425
-1.4299501,-3.14505,5.7340503,-1.8640875,-0.61861247,6.523412
-0.46500003,0.88005006,13.285951,0.7907625,0.489775,1.6691124
2.14995,4.00605,5.61,2.0268874,0.6540875,-3.738075
3.318,0.82305,6.10995,1.5555375,-0.145475,-4.7642374
-2.0640001,3.1350002,14.754001,0.8188125,-1.5541625,-1.9205999
1.2739501,-4.737,16.82205,-0.0911625,0.7412625,-0.1788875
-2.979,-3.4369502,-1.58895,-1.001275,0.3969625,2.6896374
-1.7010001,-3.8509502,5.2770004,-2.291025,0.2322375,6.521075
-4.5589504,-1.539,20.06295,-0.6791125,0.1093125,2.892725
3.18405,3.1680002,1.09605,2.338325,0.4928,-4.5981374
3.56205,5.21505,0.86100006,1.5060375,-1.63185,-4.0089498
-6.0469503,-4.5090003,29.865002,1.25675,-2.343275,-2.4281125
1.7260501,-4.9279504,13.05195,-0.7874625,1.7012875,1.4526875
-3.5410502,-4.41405,0.86295,-1.2485,0.1343375,3.59535
-0.78900003,-1.06005,8.84595,-2.6818,0.368225,5.79095
-1.31505,-5.256,23.626951,1.8800375,0.628925,0.2127125
1.338,2.91,2.4460502,1.61425,-0.1511125,-4.21025
4.6540504,2.52705,-0.615,1.105775,-1.0888625,-3.4804
1.9440001,-3.55905,27.612001,1.428075,-1.890625,-2.514325
-2.09805,-4.131,10.57695,-0.87229997,0.86817497,2.0263374
-2.97405,-4.54005,-0.43500003,-1.163525,0.6109125,3.9532626
-4.57305,0.23595001,13.176001,-3.578575,-0.122375,6.643175
-2.1030002,-3.21705,20.865002,1.53725,0.4090625,2.1643875
2.9230502,3.7669501,2.637,2.50305,-0.2454375,-5.6563373
5.9610004,1.3560001,4.0090504,2.293775,-1.539725,-5.968325
-1.4989501,-0.57405,27.72195,1.1517,-2.4514875,-1.6966125
0.16995001,-6.57,14.689051,-0.1632125,1.5423375,-0.012375
-3.7879503,-3.3390002,0.47595003,-1.4157,0.88783747,4.8118124
-6.42105,4.08495,12.802951,-3.168825,0.5938625,6.4992123
-0.04695,-3.10695,18.588001,2.305325,-0.023924999,0.818125
3.6480002,2.0050502,12.492001,1.2560625,-1.1061875,-4.9806623
3.4110003,2.4820502,6.4480505,1.1363,-1.6637499,-4.7865124
-1.3369501,-1.524,19.588951,0.378125,-0.42185,-1.057375
-4.4599504,-3.2719502,2.01195,-0.7392,1.1020625,2.499475
-2.538,-4.09305,-0.49500003,-1.663475,1.1133375,5.082275
-6.3180003,5.754,11.52,-3.0349,0.1557875,4.782525
0.86700004,-2.9320502,18.65295,2.9679375,-0.245025,-1.505075
6.6670504,-0.31605002,12.066001,1.538625,-1.006225,-5.6727
5.4030004,-0.45405003,17.125952,1.271875,-2.4902625,-4.2692375
-1.27695,-2.7190502,14.325001,-0.282975,0.095425,0.3867875
-2.18205,-4.21005,1.8880501,-0.812625,1.177,2.692525
-5.5609503,-1.536,-0.15495001,-1.92555,0.802725,4.9737873
-5.23605,-0.11505,11.362051,-2.9929626,0.6769125,6.1193
-2.091,-1.4599501,18.543001,2.5365999,-0.1216875,-3.1713
3.0499501,3.4009502,-2.436,2.1019626,-0.2209625,-4.6646876
5.7190504,2.3449502,5.3160005,1.3426875,-2.137575,-3.58655
0.9289501,-3.1020002,30.489002,0.7183,-1.1988626,-1.5775375
-1.2790501,-6.321,12.027,-0.7602375,1.05985,1.92445
-3.5389502,-2.058,-2.7960002,-1.4895375,0.64968747,3.7068624
-5.511,-0.96195006,11.508,-2.83305,0.4257,6.3679
-1.23105,-2.29305,17.24805,1.2893375,-0.0922625,-0.302775
4.9620004,-0.53595,7.2019506,1.8673875,-0.3465,-6.0806623
3.459,-0.67200005,10.30605,1.0454125,-1.146475,-4.1287127
1.8390001,-4.63905,17.42295,0.6106375,-0.9059875,-1.572175
-1.26705,-3.4350002,5.8710003,-0.634975,0.17173749,2.4506624
-2.43105,-3.1230001,2.3710501,-0.9282625,0.4195125,3.0911374
-5.7670503,-1.1010001,13.97805,-0.9326625,0.11495,3.0204625
2.2669501,-1.5679501,17.566051,1.0456874,0.4631,-0.1848
4.10505,2.3860502,6.29505,1.54825,-0.1711875,-5.1002874
4.89795,-2.0370002,12.68595,1.2428625,-1.8528125,-3.9626124
1.2280501,-4.7320504,30.535051,0.3114375,-1.6581125,-0.433125
-1.0999501,-3.1020002,2.97705,-0.4690125,0.997975,2.676025
-4.0939503,-4.40595,4.224,-1.3919125,0.2176625,4.5618377
-3.7450502,-0.54795,17.59995,-2.349325,0.0504625,5.1055126
1.18005,-0.28005,15.627001,2.8785625,0.23773749,-2.365275
4.5270004,1.266,7.5750003,2.0491624,-0.1452,-6.403375
3.828,1.6650001,11.24205,1.1911625,-1.7755375,-4.1421876
-0.12105001,-3.3049502,17.980051,-0.4879875,-0.14093749,1.3014375
-3.63,-3.41805,-1.539,-0.6105,0.8204625,2.247025
-3.04305,-5.15805,3.6690001,-1.7705874,0.7104625,6.4209747
-2.7270002,-5.7559505,23.61495,-1.0932626,0.004675,1.914825
4.23705,2.3449502,4.81005,2.21705,0.5352875,-3.74385
5.37405,2.25195,2.493,1.7276875,-0.5603125,-6.28265
0.78105,-2.5800002,16.48905,0.8052,-1.631575,-2.9876
0.864,-6.01695,11.7619505,-0.3436125,0.7524,0.8881125
-2.6839502,-2.322,-1.041,-0.9857375,0.1915375,3.10695
-0.79605,-2.298,3.1900501,-1.3552,0.2281125,4.3676877
-4.341,-2.39595,17.157001,-0.7227,-0.02475,3.6207874
-0.01995,5.6389503,7.14405,2.0117624,0.758725,-2.5069
3.5760002,2.23305,-0.055050004,2.3711874,-0.697125,-6.2720623
0.72300005,-5.9100003,21.666,0.9838125,-1.9166125,-1.4348125
2.2020001,-5.0070004,16.527,-0.16005,0.4654375,1.8419499
-5.2120504,-2.4769502,-2.76705,-0.617925,0.2132625,2.399925
-4.077,-5.49795,7.0530005,-2.2528,0.600875,6.7155
-0.13305001,-2.3689501,16.812,1.255375,0.3040125,0.6268625
3.3040502,-0.67005,11.41695,2.02345,0.42515,-4.9300623
3.6079502,3.9750001,1.3399501,1.3179375,-0.584925,-4.9322624
1.82895,-3.6499503,24.112951,1.4595625,-1.9691374,-3.1227624
0.031050002,-6.9220505,11.950951,-0.3878875,0.634975,1.4251875
-5.30805,-3.351,-3.4510503,-1.131075,0.5427125,4.07935
-4.7070003,-1.4290501,12.829051,-3.9037626,0.1373625,8.018312
-1.251,0.70095,13.14795,1.8984625,0.3487,-0.17985
4.39305,4.39905,2.568,2.858625,0.1830125,-5.5004125
5.175,1.6489501,3.97005,1.8715125,-1.576575,-4.79325
-0.49395,-1.8930001,26.920952,0.5682875,-1.472075,-0.7071625
-1.32,-4.26,7.6330504,-0.17985,1.1847,1.3743125
-2.6149502,-3.5760002,-1.4070001,-1.1642125,0.8713375,4.2447624
-5.1000004,-1.0510501,11.280001,-3.8869874,0.2365,6.6045375
0.74700004,-5.0599504,20.362051,1.549625,0.19195,0.3939375
3.7219503,3.6109502,1.3230001,1.726725,-0.1709125,-5.203275
4.8310504,-0.30405003,6.2080503,1.5720375,-1.4135,-4.8580127
-1.1520001,-1.16805,20.04405,0.4236375,-1.58345,-0.9719875
0.61305004,-5.4210005,11.271001,-0.0045375,1.21165,1.396175
-4.02495,-2.16405,-2.8579502,-0.8966375,0.5069625,3.4907124
-3.0270002,-2.2999501,12.8550005,-2.4550624,0.52648747,6.8651
-1.2529501,-3.4609501,20.07195,1.3655125,-0.1098625,-0.7737125
4.01205,2.3140502,-0.093,1.5852375,0.0716375,-4.8838625
4.9240503,0.88005006,4.57095,1.004575,-1.1895125,-4.5967627
-0.40800002,-2.76705,21.81705,0.89155,-1.51635,-2.1044376
-1.6309501,-5.46705,9.44205,-0.5984,1.2912625,2.278925
-3.52005,-2.463,-2.559,-1.541375,0.6353875,4.129675
-2.4739501,-7.5210004,18.154951,-2.4498374,0.4624125,6.6243377
-0.07005,-1.1179501,15.316051,0.7192625,0.0202125,-1.3508
3.6910503,0.99300003,8.83395,2.3794374,0.40535,-5.9472876
4.275,-0.85905004,13.404,1.5544375,-1.6306125,-4.452525
-0.13695,-5.5069504,19.194,0.5427125,-0.8492,-0.7508875
-1.1839501,-5.235,10.033051,-0.8636375,0.8415,3.272775
-2.703,-0.62895006,-2.9509501,-1.260325,0.2800875,3.104475
-1.863,0.45900002,7.1730003,-2.104575,-0.1794375,5.4412875
1.5180001,-4.9570503,15.15795,1.08515,-0.37125,1.211925
2.4180002,1.7830501,2.1100502,0.670175,0.0474375,-5.087225
3.4660501,0.52605003,3.8820002,0.392425,-0.8067125,-4.0524
0.71595,-6.23295,23.746952,0.6917625,-0.6611,-2.062775
-1.7839501,-3.0990002,15.3810005,-0.508475,0.9933,1.8682125
-1.2030001,-4.3819504,-0.14295001,-0.5176875,0.9359625,1.54
-3.6469502,-4.6069503,17.647951,-2.9766,-0.2569875,5.3194623
-3.6180003,-0.35595003,15.211051,0.0543125,0.226325,1.8291625
3.04695,1.0309501,5.14095,2.792625,0.878075,-4.9174123
5.2450504,0.98805004,3.08505,1.5873,-1.14785,-4.1273375
1.7760001,1.23,18.025951,0.5982625,-2.300375,-1.35135
0.78795004,-8.413051,15.196051,0.506275,1.07855,-0.3881625
-3.66105,-3.17805,-5.1919503,-1.22705,0.77935,3.7851
-3.9820502,1.1770501,11.37405,-3.483975,-0.005775,6.9581876
-0.78900003,-5.0340004,21.717001,1.2555125,-0.0121,2.3716
4.27995,1.9090501,4.48995,1.913175,-0.433675,-5.1165123
4.5150003,1.35195,2.2420502,1.560075,-1.3541,-4.231975
3.2680502,-3.4800003,31.654951,0.9053,-2.015475,-2.152425
-1.557,-5.17995,6.3450003,-0.243375,1.0228626,0.90543747
-4.2829504,-5.78805,-1.43595,-1.4562625,0.6765,4.638425
-6.4900503,1.5409501,14.241001,-4.594425,0.485925,7.128275
-0.38895002,-1.0530001,17.334002,2.3623874,-0.49995,0.1632125
5.24205,1.05495,2.3790002,2.9196749,-0.459525,-6.38715
4.0480504,1.8139501,2.6560502,1.133,-1.895575,-4.7980623
-0.09,-3.6160502,25.267052,0.6813125,-0.81014997,-1.769075
-1.1380501,-5.682,9.28695,-0.7665625,1.2722875,2.006675
-2.4400501,-3.0300002,-1.6800001,-1.5123625,0.43175,3.6023624
-3.7140002,0.08295,15.718051,-2.747525,-0.2938375,4.23335
0.48105,-2.5129502,19.44495,3.0377874,0.521675,-3.3594
3.0240002,-0.09105001,6.1699505,1.942875,0.08965,-4.573525
3.2680502,-0.648,11.710951,1.3105125,-1.081025,-3.3988626
0.16605,-1.8930001,19.998001,0.5632,-0.786775,-1.5032874
-1.57095,-5.4360003,3.4009502,-0.86707497,0.5962,2.816825
-2.09505,-3.4729502,-0.71505004,-1.94425,0.1659625,5.666375
-2.7180002,0.60195005,11.623051,-3.0184,-0.3051125,4.894725
0.522,-3.3990002,20.18205,2.2235124,0.0675125,-3.2797875
4.09095,0.112050004,13.569,1.5158,0.00495,-4.9116373
3.07605,-0.92595005,11.995951,0.965525,-1.0082875,-3.5780249
-1.1740501,-3.3960001,13.486951,0.423225,-0.265925,-0.71445
-0.93195003,-5.1010504,7.1610003,0.256575,0.2509375,3.3930874
-4.0129504,-3.4249501,2.1679502,-1.07635,-0.0419375,4.3080125
-2.02395,1.2970501,12.918,-2.7541249,-0.0265375,6.0064125
-0.18795002,-0.46905002,14.244,2.3500125,-0.099,0.0658625
3.186,1.5499501,5.2699504,2.5601125,-0.3570875,-4.8841376
2.8609502,-0.63405,1.5499501,1.2453375,-0.8320125,-3.7296875
0.75000006,-3.9420002,16.458,0.3034625,-0.7624375,-0.7748125
-0.48000002,-2.6419501,11.653951,-0.2875125,0.342375,3.0193624
-0.22395001,-3.4009502,4.9900503,-0.5102625,0.195525,2.9304
-2.77305,-4.13805,9.258,-1.2067,0.0237875,4.0684876
-2.088,-9.724951,29.503052,-0.75322497,0.2635875,4.7036
2.1040502,-0.15,14.28705,0.63414997,-0.339625,-0.36519998
2.559,-1.9890001,10.069051,1.5096124,-0.843975,-3.48975
0.058050003,-0.25605002,11.04405,0.15345,-0.9345875,-0.948475
-0.90795004,-0.49005002,11.5990505,-0.0185625,-0.4015,1.8266875
-2.22705,-0.92595005,7.1470504,0.148775,-0.0108624995,1.4183125
-0.78405005,-4.5019503,3.8940003,-0.4318875,0.709225,2.226125
-1.4130001,-10.180051,24.472052,-1.6700749,0.8586875,1.7664624
-1.4089501,-8.068951,23.526001,-1.0764875,-0.209825,0.3839
5.35995,0.40395,1.6129501,-0.0391875,-1.48445,0.0378125
0.58005005,1.33305,2.01705,0.4327125,-2.1283624,-0.8573125
0.15795001,2.6160002,22.858952,0.83105,-0.968825,4.563075
1.3410001,-0.69600004,12.429001,0.6859875,1.1996875,2.41725
-2.184,-2.93895,-1.7710501,-0.242825,0.4621375,-0.68488747
-2.6869502,-6.0870004,6.1369505,-2.24235,2.14445,-2.03885
-0.09,-3.798,20.479052,-1.0000376,1.0938125,-0.2063875
2.229,0.91605,12.85095,1.0407375,-1.823525,1.4949
5.06295,0.35595003,12.973051,1.22045,-1.79685,4.3110375
2.2120502,-0.10305001,16.927052,1.666225,-1.2739375,5.956225
-2.6149502,-1.7850001,9.757951,-0.2509375,-0.1115125,0.669625
-4.0800004,-0.72300005,-4.99305,-1.8209125,1.4972374,-5.104825
-0.81705004,-3.6739502,4.566,-0.8152375,1.36785,-4.21685
-2.60295,-6.144,24.687,-0.1013375,0.4411,-0.041249998
2.01795,2.5770001,4.1449504,0.7458,-1.301025,2.16205
3.282,1.368,5.5090504,1.0445875,-1.9859124,3.944325
3.696,0.99495006,4.70295,1.0885875,-2.3205874,4.6344376
0.28305,-6.3810005,13.984951,-0.644325,0.5897375,-2.2543125
-1.5499501,-2.259,-1.917,-1.635425,1.25015,-5.3876624
-1.7719501,-2.427,4.69605,-1.691525,2.1990376,-4.0981874
-5.78595,-4.15005,19.15995,-0.3548875,1.305425,-0.1463
1.42005,1.98405,5.3590503,0.5203,-0.8218375,1.261975
3.3709502,3.7429502,2.83995,0.592625,-1.417625,3.129225
-3.04605,-1.24905,21.147001,-1.0349625,0.0727375,6.5245123
0.08205,-5.5339503,12.372001,-1.6104,1.0076,-3.00795
-1.2529501,-3.8149502,0.13800001,-1.972575,1.192675,-5.491475
-2.811,-2.1079502,6.3349504,-2.5793624,2.5301375,-5.3893123
-2.8969502,-1.3950001,16.45095,0.3839,0.3598375,0.8674875
3.28005,1.6990501,6.1050005,1.2788875,-1.26665,3.031875
3.6670501,2.9940002,3.2020502,1.149225,-2.367475,4.747325
-2.232,-3.3750002,28.708952,1.85515,-1.2340626,5.16615
-0.85095006,-6.0649505,5.7300005,-1.507,1.679975,-4.066975
-2.49495,-4.4809504,0.67200005,-2.2259874,1.712425,-5.850075
-3.7060502,-2.97705,10.656,-1.9443874,2.5367374,-2.672175
-2.59095,-2.55795,19.27005,0.8111125,-0.5201625,1.3985125
2.3700001,2.7450001,1.4140501,1.0423875,-1.4487,2.99585
4.017,0.6,6.675,1.5613124,-2.47555,6.326925
0.9480001,-3.7240503,22.653002,-0.1907125,-0.0979,3.0834374
-1.42305,-4.224,3.9390001,-1.5951375,1.0740125,-4.675275
-3.18195,-3.86505,-0.38295,-2.097425,2.0112126,-6.5866623
-1.3080001,-2.9269502,12.085051,-2.28085,3.278825,-2.6862
-0.18300001,-3.17805,26.44695,1.10935,-0.984225,1.0881749
2.25,2.22495,2.6779501,0.9145125,-1.753675,2.7847874
6.73395,0.65505004,9.67695,1.4499375,-1.8789375,5.74475
-0.54195005,-4.143,14.919001,0.4651625,-1.2197624,1.76495
-1.6789501,-3.3649502,1.2940501,-1.1015126,0.6364875,-4.86035
-4.01805,-3.9900002,2.57505,-2.336675,2.1845999,-5.4011374
-0.030000001,-6.8550005,22.192951,-1.0338625,2.2229624,0.077275
3.0859501,-0.60105,15.77805,0.8817875,-1.0264375,1.2098625
3.0310502,1.04505,5.48295,1.234475,-2.242075,4.4143
1.554,0.67395,16.567951,1.58565,-1.685475,5.24095
-0.034950003,-3.4969501,13.387051,-0.2314125,0.07095,-1.4678125
-1.47105,-6.2470503,0.47805002,-1.5552624,0.82774997,-4.9399624
-4.99905,-2.77605,11.053051,-3.0046499,2.534675,-5.127925
-0.85305005,-1.93095,15.703951,0.105875,0.8657,1.5321625
3.8209503,2.6749501,5.8660502,0.6425375,-0.5586625,2.514325
4.62195,0.56205004,6.04995,0.927025,-2.4959,6.2022123
-1.64505,-2.76705,20.51505,0.810975,-1.86945,4.835325
-0.372,-3.7360501,7.6420503,-1.219625,0.8210125,-4.5139875
-1.8730501,-4.54995,2.7829502,-1.3008875,1.6284125,-5.781875
-5.04195,-2.9490001,11.347051,-2.0992124,2.81985,-2.9112875
-3.20895,-2.7120001,17.13495,0.4312,0.133375,0.97515
2.8630502,3.2760003,5.36805,0.692175,-2.008325,2.776675
2.56395,0.79605,6.3829503,1.3497,-2.130975,6.6661377
-2.3110502,-3.9400501,19.83105,0.485375,-0.03355,3.0003874
-0.59505004,-3.7890003,5.8560004,-1.429175,1.530925,-4.5464373
-2.6239502,-2.7810001,2.187,-1.4656125,1.3847625,-5.2864623
-3.2040002,-2.9610002,13.593,-1.203675,2.157925,-1.44705
0.79305005,-2.01795,21.628052,0.72985,-0.433675,1.273525
1.6710001,2.4460502,5.61495,0.8754625,-1.8211875,3.104475
4.5220504,4.18305,7.3500004,0.4261125,-0.7035875,4.5266376
0.85695004,-3.0640502,17.43495,-0.0119624995,-0.0837375,2.9822376
-2.5240502,-5.4810004,4.3650002,-2.1060874,0.4332625,-4.719825
-5.0539503,-6.135,6.43305,-2.46015,2.0989375,-5.6243
-0.50100005,-1.28505,18.768002,-1.0286375,1.662375,-0.663575
2.3719501,-0.39495003,12.063001,1.110175,-1.48115,1.9883875
3.9430501,1.404,7.7040005,0.8589625,-1.4570875,3.1972876
0.23295002,0.16905001,15.438001,0.121275,-0.667975,5.4423876
-0.030000001,-4.95195,12.231001,-0.392975,0.198825,-0.645425
-1.7050501,-3.6190503,-0.73200005,-1.78585,0.9384375,-5.079525
-4.90605,-4.32,11.757001,-2.2053626,2.504425,-4.5205874
1.281,-0.060000002,15.972001,-0.022275,1.0294625,0.6043125
3.213,2.3160002,3.7879503,1.02025,-1.3140875,2.5108874
3.45195,1.99995,4.07595,0.6100875,-0.976525,4.8939
0.15795001,-1.6390501,22.392,1.2816375,-1.3396626,4.87685
-0.70995003,-3.14505,2.1390002,-0.86817497,0.627,-3.817825
-1.21905,-5.9740505,0.16695,-1.8836125,1.650825,-6.59945
-5.23395,-1.09605,16.20705,-3.069825,3.2011375,-3.868975
-3.9460502,-2.52705,18.660002,1.2967625,-1.2271875,1.9283
2.77905,3.5490003,4.044,0.755425,-1.761375,2.6357374
2.8200002,0.15705001,7.635,1.6348749,-2.3810875,6.6716375
-0.74100006,-1.419,21.58695,0.6785625,-0.995775,2.3936
-1.9110001,-3.2430003,6.3180003,-1.0296,0.6193,-5.1024876
-1.04505,-4.41405,0.93795,-0.3537875,0.5229125,-6.521487
-6.02295,-0.74205005,18.339,-1.9947125,2.1522875,-1.0363375
-0.81705004,-3.9199502,23.848951,1.2133,-1.1066,1.9848125
4.96995,0.0,6.1459503,0.421575,-1.144825,1.6700749
6.8269506,1.3729501,10.500001,0.967175,-3.3968,4.883175
1.50405,-3.82695,19.486052,-0.37895,-0.32505,1.2474
-4.88205,-3.4780502,-2.1660001,-2.9473126,1.7576625,-7.190425
-7.5360003,-1.7040001,-0.75900006,-3.4142625,2.816,-5.5339622
-2.0070002,-4.34205,26.691002,-0.592075,2.1954625,1.22595
3.52905,0.29895002,11.785951,1.373075,-2.02675,1.497375
4.9290004,1.88505,6.0049505,0.874775,-2.585,3.4925
0.23505001,1.6720501,18.052052,2.6211624,-2.417525,8.597875
0.11505,-1.66305,9.483001,-0.8210125,0.702075,-2.9891124
-1.5090001,-5.8830004,-1.47195,-1.1985875,0.837375,-5.5677876
-1.7080501,-5.622,10.93305,-3.095675,3.1857374,-5.0076127
-1.6690501,-2.4120002,21.23595,0.1931875,0.4233625,1.0030625
2.1349502,3.34995,7.1040006,0.8976,-1.6273125,2.503875
4.21995,2.1420002,3.9919503,0.94105,-0.8534625,5.7432375
-0.39600003,0.10695001,19.414051,0.566775,-0.2415875,4.98355
0.55305004,-4.16895,5.2870502,-1.0393625,0.80808747,-3.8831375
-2.7199502,-5.1199503,-0.27495003,-1.9157875,1.0762125,-7.094175
-5.7120004,-1.8019501,12.754951,-3.0124874,3.374525,-3.0754626
-3.6439502,-0.56205004,17.19795,0.792825,-0.4742375,0.9970125
2.9590502,2.97195,5.184,0.9615375,-1.56695,2.1756625
5.6400003,0.84195006,4.1790004,1.0572375,-2.4957626,5.774175
-4.3050003,1.96395,23.301,1.644775,-2.1437626,6.7062874
-2.1390002,-4.66305,2.2470002,0.0323125,0.5985375,-5.922125
-3.8740501,-4.67205,-0.79695004,-1.913175,2.1863875,-8.039075
-5.68095,-2.259,12.516001,-2.484075,3.6130874,-1.710775
-2.2060502,-1.2610501,17.50905,0.704,-1.6185125,1.2115124
4.05,3.5800502,6.7330503,0.4717625,-2.2680626,3.345375
5.6400003,-0.26805001,14.29905,1.3058375,-2.0736375,7.88755
-2.62905,-2.2429502,14.646001,0.167475,-0.99055,0.5713125
-3.5340002,-6.228,0.17205001,-1.4218875,1.0703,-6.6083875
-5.6740503,-3.8890502,3.6690001,-3.0199125,3.4692626,-5.9846873
-1.00395,-2.49405,22.267052,0.0680625,0.7302625,0.060225
3.42105,4.7460003,5.88,1.5734125,-1.72095,1.4214749
5.5459504,2.7640502,10.29195,1.4568125,-0.4932125,3.9527125
-0.11595,-2.2999501,29.47005,2.2933624,-1.4598374,7.375775
-1.4130001,-5.5410004,5.4739504,-1.3583624,0.7478625,-4.79435
-2.4379501,-4.2910504,-1.12995,-1.9424624,1.90795,-7.1663623
-2.289,-2.35305,6.70905,-2.5925624,3.0215626,-3.0691376
-3.9739501,-4.2720003,22.642952,-0.05555,0.1197625,0.3557125
2.523,3.21405,3.69495,0.6969875,-1.9232125,2.8788376
5.0170503,2.5150502,4.48995,0.9519125,-2.830025,7.02955
-0.753,-3.4609501,15.45495,1.455025,-1.7367625,6.552975
-3.1369503,-5.9100003,13.389001,0.152625,0.09735,-2.9308126
-2.5770001,-3.6499503,0.88005006,-0.9524625,1.395075,-6.2928247
-4.7140503,-3.6160502,3.9769502,-1.395075,2.3406625,-3.1471
-1.38195,-1.7689501,13.317,-0.007975,1.3278375,0.6424
6.3360004,1.6030501,3.2329502,0.6441875,-1.1983125,2.592975
4.9339504,1.35195,0.95895004,0.5713125,-2.6236374,6.2684875
-4.55595,-6.49095,29.673002,1.1812625,-1.0544875,5.930375
-1.9060501,-5.8279505,1.96395,-1.541925,1.8649125,-7.225075
-3.4290001,-3.59295,0.49500003,-1.4229875,1.9325625,-6.4766626
-3.6130502,-1.67295,12.453001,-1.3915,2.0928874,-1.70885
-2.8590002,-4.6860003,24.603,0.959475,-1.6143875,1.85075
4.065,3.4800003,1.6819501,0.333575,-0.9939875,2.2914374
5.5420504,1.0720501,6.4090505,1.539725,-2.5487,6.4543877
-0.96795005,-6.2730002,23.79705,0.098725,-0.595925,0.9411875
-2.4090002,-4.5930004,2.4049501,-1.4042875,0.798875,-5.0633
-4.03695,-4.3110003,0.59805006,-2.0593374,2.502775,-6.0570126
-5.2770004,-4.38705,15.378,-0.9007625,2.358675,-0.67155
3.732,-2.46,19.086,0.2319625,-1.054625,1.228425
4.6750503,1.8709501,7.5850506,0.4195125,-2.8798,2.8172374
0.35505003,0.51600003,19.596,1.8640875,-2.703525,6.66325
-1.6189501,-2.9989502,14.59605,0.21573749,-0.026124999,-2.408725
-3.1339502,-4.677,-2.02005,-0.3861,0.47245,-5.8243623
-7.089,-2.5540502,2.84295,-1.51195,2.5290375,-5.2325625
0.56505,-7.7239504,30.61395,0.6622,1.4942125,1.729475
3.555,2.079,6.354,0.6413,-2.7181,0.766425
3.7060502,4.19805,4.5469503,0.9777625,-2.7181,3.993275
-0.96105003,-1.9939501,18.06405,2.310275,-2.08615,6.89865
-0.35805002,-5.484,11.89605,-1.5184125,1.0610875,-4.021875
-2.5570502,-5.1130505,-1.89795,-1.95525,1.6015999,-6.2767377
-5.0730004,-0.93600005,12.589951,-2.8535376,3.3543124,-3.3996875
-4.70895,-2.2090502,22.069052,0.9222125,0.3815625,2.1511874
4.347,0.79395,7.2760506,0.8520875,-1.3622125,2.0747375
4.491,0.93000007,5.6839504,0.8306375,-3.3114126,6.0146623
-3.6750002,-3.41805,25.618052,1.4971,-1.758625,5.8235373
-1.7200501,-2.35695,3.9460502,-1.0649375,1.6856124,-6.114625
-2.3830502,-3.561,-1.5480001,-1.085425,1.7835125,-6.40145
-6.77505,-2.496,15.022051,-2.6043875,3.6014,-2.2759
-6.8830504,-1.2610501,20.991001,1.033175,-0.4675,1.0858375
3.9760501,1.1770501,4.68795,0.8833,-1.7487249,2.14665
2.15205,0.294,2.02395,0.515625,-3.6130874,6.78315
-5.50395,-6.9240003,30.868052,-0.4059,-0.12773749,6.5880375
-1.33395,-4.5600004,6.8640003,-2.552825,2.4061124,-9.121613
-1.62405,-1.8600001,-4.3369503,-1.8437375,2.321825,-5.098225
-4.71705,-0.261,11.845051,-1.5712125,2.5870626,-1.2288375
-2.4550502,-3.8800502,25.768951,1.8293,-0.83215,2.32375
3.7680001,3.2380502,0.49995002,0.8536,-1.5895,2.0933
4.17,0.303,5.87295,1.268575,-2.465925,5.40485
-1.34595,-0.85395,25.459951,0.2655125,-0.7349375,4.0594125
-0.79605,-2.46795,1.7320501,-1.2618375,0.560175,-5.2943
-4.848,-2.118,3.2329502,-1.9432875,1.376375,-5.2938876
-2.5810502,-4.15695,12.525001,-1.6020125,2.544025,-1.0342749
-3.0030003,-3.8490002,21.729,-0.1299375,-0.4024625,0.116325
4.00005,3.0199502,3.1729503,0.4349125,-1.5184125,2.26215
2.0760002,0.064050004,3.1710002,1.0401875,-2.1769,5.158725
-3.6079502,1.93095,24.088951,1.407175,-1.2456125,4.3791
-0.55200005,-4.7179503,11.953051,0.0858,0.2382875,-3.91545
-2.50005,-3.2670002,1.8900001,-0.841775,0.70042497,-4.4341
-2.6149502,1.99995,6.879,-1.3646874,2.4451625,-1.8954375
-1.8540001,-1.7950501,17.595001,0.31913748,1.676125,0.917125
3.5089502,1.6680001,5.57595,0.3994375,-2.08615,1.395075
2.43,1.43805,6.2779503,0.533775,-2.2521124,5.210425
-4.28595,-4.9399505,25.396051,0.5039375,-0.34155,3.1758375
-1.4130001,-0.84495,6.4020004,-1.0342749,1.2588125,-2.3071125
-3.381,-3.009,1.12695,-0.4250125,0.932525,-1.2109625
-3.58695,3.4800003,-1.00695,-0.9878,3.12235,-4.01445
-3.9,1.6099501,6.4759502,0.025024999,1.192125,-0.7550125
2.80605,-1.9099501,8.13,-0.24255,-1.7210875,2.531925
-0.063,-3.3630002,11.545951,-1.7342875,-3.6382499,7.513275
0.75705004,-2.9650502,17.475,-0.429,-1.6583875,4.6882
-1.9300501,-3.9949503,8.88195,-0.054725,-1.1092125,3.5347126
-4.9099503,-2.6230502,-0.68895006,-1.0264375,-0.27101249,3.1733625
-0.45105,-1.161,7.5199504,-8.323425,-9.986625,28.622274
1.11105,-1.01205,19.156052,3.7615874,2.6459124,-9.562575
4.1460004,3.9799502,5.74905,3.092925,1.7032125,-10.046713
1.4650501,0.86100006,8.724,2.20825,-0.9609875,-3.1018624
-1.02795,-4.31295,27.75105,0.5055875,-0.110825,-0.3163875
0.24405001,-3.5470502,3.14895,-0.8861875,1.2379125,1.9434249
-2.469,-4.63905,1.0170001,-1.4762,-0.2982375,6.471025
-3.1200001,1.8229501,9.74895,-2.897125,-0.760925,7.3643622
0.41700003,-1.1770501,15.193951,2.6307874,0.1612875,-0.1923625
3.7150502,2.59905,4.3369503,1.8995625,0.36313748,-6.512
4.347,0.44205,5.6389503,1.235575,-1.7835125,-3.1950874
1.37205,-0.81105006,28.924051,0.722425,-2.073775,-0.79585
-0.88695,-3.6979501,8.797951,0.1518,1.2522125,0.5655375
-2.4430501,-4.3510504,-0.92100006,-0.581625,0.8050625,3.35885
-5.75505,-1.062,13.29405,-2.94965,0.4522375,7.8342
-2.77305,-4.1839504,23.389952,0.169125,-0.114675,1.8304
4.539,2.63505,3.97005,1.7884625,0.0754875,-5.774725
5.0599504,0.61395,4.959,0.994125,-1.2848,-5.279175
1.779,-0.18900001,17.928001,0.5350125,-2.0178125,-1.8910375
0.09105001,-3.798,5.80905,-0.14973749,1.1251625,1.0825375
-2.1100502,-3.5370002,1.09095,-0.9010375,0.79475,3.3483999
0.043050002,-3.9469502,17.178001,-2.896575,0.1491875,6.3305
-3.2320502,-2.769,14.119051,0.4829,0.123475,-0.4200625
2.25495,3.1680002,6.7230005,1.37885,0.5742,-3.8286874
7.00395,0.117000006,5.1720004,1.4958625,-0.2688125,-5.1473126
3.4690502,-5.5740004,23.991001,0.7211875,-1.985775,-0.924
-3.936,-4.71495,4.24095,-0.313225,0.7319125,2.4110625
-4.4890504,-3.078,0.44700003,-1.3542374,0.9876625,4.7301373
-4.5820503,1.42095,10.1959505,-2.9117,0.4659875,5.948525
-1.2580501,-3.10905,18.313051,2.782725,0.2204125,-2.255275
4.407,3.13995,5.8560004,1.8414,-0.138875,-4.448675
5.4240003,0.56895,7.8619504,1.399475,-1.59775,-3.42815
-2.2080002,-2.391,12.70005,0.7847125,-0.9131375,-1.3105125
-3.0289502,-4.059,5.57205,-0.8735375,0.8602,2.4314125
-6.129,-3.59295,3.1420503,-2.0334876,0.6208125,4.356275
-1.5090001,-2.3050501,12.661951,-2.07735,0.6263125,4.69975
-1.914,-4.28895,27.021002,1.7510625,0.24447499,-1.8308125
5.0080504,3.2310002,4.6189504,2.1327624,5.5E-4,-4.9456
4.56495,3.4099503,12.312,1.1033,-1.1581625,-3.3628376
-0.36195,-4.2720003,12.20205,0.33673748,-0.3702875,-0.276925
-2.1409502,-5.3830504,3.39105,-1.390125,0.7447,2.9761875
-3.31905,-3.4819503,6.8209505,-2.374075,0.1744875,4.4396
0.43605003,-0.675,14.884951,-0.74415,0.1637625,3.0705125
2.83695,0.0,11.058001,2.146375,0.369325,-2.9924126
5.046,2.2009501,6.0409503,1.7072,-0.7722,-4.799575
2.088,5.29395,9.901951,1.1760375,-2.1038876,-2.3717375
1.6110001,-2.025,7.8889503,0.385,1.0110375,-0.4624125
-3.6510003,-5.71995,0.12900001,-1.01915,0.38747498,2.9899375
-4.0680003,-2.4049501,14.2890005,-3.5178,0.282975,7.1181
-1.1020501,-2.2810502,18.837002,0.6722375,0.361625,2.3683
5.29005,3.4009502,8.734051,1.2461625,-0.02695,-5.09685
2.5759501,0.27195,7.905,0.3694625,-0.9730875,-4.6211
-2.7469501,-2.38395,19.900051,0.34814999,-1.5401375,-1.2227875
-0.95100003,-5.72805,7.0990505,-0.9526,1.2236125,2.3076625
-3.5130002,-3.5730002,1.5409501,-1.6554999,0.5663625,3.473525
-4.33605,-1.3660501,6.9600005,-2.6758876,0.1681625,5.4460998
-2.433,-1.8829501,20.079,1.1081125,0.2470875,0.1219625
4.6540504,0.54,6.2590504,2.171675,0.298375,-4.83615
4.64895,0.21195,10.31805,1.1791999,-1.917025,-4.004275
1.6279501,-2.8909502,16.506,0.52525,-1.479775,-0.9048875
-0.81000006,-5.98605,7.08405,-0.4499,0.81633747,2.337225
-2.9599502,-3.4440002,-0.87105006,-1.5860626,0.259875,4.8486624
-5.1139503,0.12900001,13.428,-2.2594,-0.1122,5.365937
0.94095004,-2.16105,12.955951,3.1021376,0.2519,-2.9671125
6.3,-0.651,15.61305,1.2926375,-0.2473625,-5.562425
3.5449502,-0.38700002,9.67695,0.2217875,-1.371425,-2.43265
0.50100005,-3.456,19.917002,0.3883,-0.0369875,-0.7838875
-2.6940002,-3.1189501,2.4769502,-0.55935,0.5545375,2.0862875
-3.6319501,-3.28905,-2.59395,-1.596375,0.6411625,4.9240127
-4.221,6.498,6.52395,-3.9257624,0.2435125,5.51265
0.81405,1.12695,13.32705,4.76795,-0.4527875,-3.6124
6.564,-0.615,11.74005,2.7135625,-1.013925,-7.0753374
4.7250004,0.52605003,14.670001,1.1320375,-2.1459625,-3.0463126
-2.36805,-6.4860005,17.73405,0.2454375,-0.4609,-0.2550625
-4.4290504,-4.1530504,-0.81600004,-1.5498999,0.8883875,3.2395
-6.3510003,-5.742,4.296,-2.7982626,0.225775,5.5944624
-1.3990501,-3.52605,19.171951,-0.8738125,0.26427498,2.3021624
2.36505,1.4449501,9.65295,1.937375,0.49885,-2.86275
4.8520503,1.6030501,7.8739505,2.3692625,-0.208175,-5.6197624
2.35095,-1.1700001,15.349951,1.098075,-1.3745875,-2.3329625
-2.46195,-6.4290004,8.302951,-0.31075,0.348425,0.9769375
-4.341,-4.77705,1.2750001,-1.9151,0.534325,4.6875124
-1.27695,-2.226,11.805,-2.8235624,-0.4665375,5.3304625
-1.7629501,-1.3780501,11.71605,2.1443124,0.6067875,-2.273975
4.50495,1.8570001,4.1400003,1.839475,0.3059375,-4.007025
5.6010003,-1.491,11.43105,1.4152875,-1.4526875,-3.5123
-1.0330501,-1.5840001,11.424001,0.313775,-0.2338875,-0.27445
-2.5140002,-4.2720003,-0.24405001,-0.4329875,0.5740625,2.40185
-5.631,-3.66405,-0.23700002,-2.439525,-0.1672,5.6106873
0.063,-0.88500005,16.22295,-1.253175,0.0512875,3.9760876
1.0819501,-1.9579501,18.363,3.1226249,0.0561,-3.821125
4.6459503,1.77495,7.1659503,0.803275,-0.2479125,-4.716525
4.359,1.3590001,13.462951,0.9835375,-1.7928625,-2.8147626
-0.40605003,-0.71505004,9.765,0.1912625,0.394075,0.0741125
-2.97405,-5.03595,-0.768,-0.4156625,0.6340125,2.41505
-5.727,-5.1600003,5.1600003,-2.95845,0.5493125,6.2183
-1.50405,-3.7840502,20.848051,-0.7365875,0.5135625,3.576375
3.3370502,-0.45705003,14.656051,1.82435,-0.010725,-3.5209625
5.9220004,2.14395,6.2920504,1.056275,-0.4717625,-5.4800625
1.6180501,1.5790501,15.144001,0.91574997,-2.11035,-2.4550624
1.1659501,-3.9900002,7.2709503,0.1128875,0.7151375,0.58753747
-3.0580502,-6.6160502,5.78205,-1.3820125,0.25753748,4.0915875
-5.9089503,-1.8499501,11.541,-2.8824124,0.30153748,5.5
-1.2739501,-1.86405,17.676,1.2903,0.6348375,1.171775
4.3660502,4.39395,6.3690004,2.57125,0.248325,-5.05725
5.17995,-0.22695,5.8230004,2.3406625,-1.5343624,-5.0235624
2.5900502,-2.2710001,21.645,0.608575,-1.1202124,-0.8936125
-0.26700002,-4.65495,4.95195,-0.6518875,0.7178875,1.919225
-3.38805,-3.1999502,0.38700002,-1.378575,0.3177625,4.434375
-5.0730004,-0.87795,8.00595,-3.146275,-0.0367125,6.9982
-0.98205006,-3.4420502,17.83695,1.2626625,-0.084425,0.38073748
4.4380503,3.693,3.8869503,1.81225,0.1266375,-6.1314
2.66895,-0.10305001,8.7289505,1.160225,-1.46905,-4.746775
-0.54,-1.9860001,17.035051,0.312125,-0.8457625,-1.1815375
-1.452,-4.5880504,6.64905,-0.643775,0.6645375,2.1868
-2.2459502,-6.3450003,5.5620003,-0.4728625,0.212575,3.8246999
-4.4029503,-3.4129503,12.7570505,-0.8243125,0.21065,3.780425
1.815,-1.0669501,18.223951,2.5443,0.9101125,-2.46895
3.1930501,1.51005,4.473,2.7872624,0.38115,-5.79975
4.44495,-0.99105006,12.705001,1.423675,-1.44045,-2.5584624
0.27600002,-2.6110501,11.766001,0.3845875,-0.834625,0.0435875
-2.2699502,-4.5690002,1.4569501,-0.826375,0.327525,3.298075
-4.5990005,-6.6210003,8.72595,-2.3717375,-0.190025,5.810475
0.48405004,-1.9530001,18.471,-1.5327125,0.075075,3.8775
0.68700004,3.4819503,11.178,2.6470125,0.8811,-4.7605247
4.6129503,1.3450501,3.34995,2.4289374,0.232375,-5.9160748
-0.50895,2.8260002,12.436951,1.1202124,-1.6168625,-1.3721125
1.03695,-4.059,9.79905,0.1571625,0.6389625,0.94655
-1.8199501,-6.9409504,4.7509503,-0.3113,0.1353,3.9886
-3.7710001,-3.5059502,14.514001,-2.2807126,-0.1529,6.1688
-1.9660501,-1.9219501,15.385951,0.82665,0.6565625,0.6307125
4.00005,2.23005,6.09105,1.4862375,0.607475,-4.3627377
2.8969502,1.7320501,3.5680501,1.357125,-1.140425,-4.5144
1.06095,-5.2390504,27.844051,0.616,-1.2177,-1.2716
-0.95100003,-5.8549504,3.6349502,-0.8454875,0.7852625,2.8378625
-1.72695,-3.3700502,-0.68205005,-1.70995,-0.1205875,5.62705
-1.8540001,-0.96405005,11.02005,-1.9965,-0.293975,4.1067123
0.85005003,-5.85195,24.843,2.5097876,0.6048625,-1.75505
4.374,0.92805004,6.56505,1.7296125,0.258775,-5.8317876
5.74695,3.66195,8.394,1.14675,-1.3469499,-4.0250373
-0.40305,-6.834,21.79095,0.7583125,-0.8617125,-2.0700624
-1.5190501,-5.01,2.022,-1.0432125,0.8740875,3.2811625
-2.87595,-7.59495,4.722,-2.3291125,-0.6116,5.5721874
-0.93000007,-0.82095003,18.85905,-1.538625,-0.348975,3.6982
1.0540501,1.2079501,15.667951,3.365725,0.9233125,-4.686825
5.3430004,0.58305,4.93305,1.9886625,-0.4059,-4.8519626
4.038,2.1460502,14.923951,0.919325,-2.2968,-1.0879
0.52500004,-3.59505,11.42895,0.1744875,0.1302125,0.4555375
-4.149,-6.28095,3.6520503,-0.768075,1.0005875,2.5617626
-4.8889503,-8.443951,13.684051,-3.0328374,0.3411375,6.521487
0.99600005,-1.4100001,16.24695,0.454575,0.2135375,1.0643874
3.8730001,0.78405005,12.40995,2.4380126,-0.0449625,-5.3392625
3.62895,2.5560002,5.0550003,1.479775,-0.99275,-4.370575
0.18705001,-1.419,18.40905,1.3057,-1.7829624,-2.3197625
0.87900007,-3.6760502,12.40095,-0.2517625,0.987525,1.3143625
-2.5930502,-4.68195,-0.72495,-0.3685,0.4560875,3.4001
-4.7070003,-0.74895006,8.6640005,-3.0680375,0.3997125,6.1934123
-2.601,-4.794,24.046051,0.6235625,0.4615875,1.395625
4.47195,4.25505,4.04895,2.0865624,0.42295,-4.702225
4.1940002,0.124050006,5.30595,1.991825,-1.4751,-5.0320873
0.18495001,-6.3360004,31.23405,0.820325,-1.5081,-1.402775
-1.7560501,-2.4720001,0.30795002,-0.676225,1.050225,2.6538875
-3.9409502,-4.95195,2.778,-1.1906124,0.3223,4.5711875
-0.20895001,-4.2769504,15.97395,-2.5036,0.3713875,5.567925
1.8240001,-0.49995002,14.605051,1.5631,-0.0037125,-2.4993374
5.13705,2.223,6.9310503,1.58125,-0.1654125,-5.9607625
4.1680503,-2.3719501,12.799951,0.4855125,-1.57465,-3.1977
-1.2790501,-0.46605003,20.02395,0.0020625,-0.3298625,0.1571625
-4.4820004,-4.0140004,1.1580001,-0.121,1.42175,1.445675
-2.2150502,-4.7730002,-2.12805,-2.497825,0.8061625,7.136525
1.33095,1.28505,11.629951,-2.0180874,0.1296625,3.6562624
2.4540002,0.057000004,14.328001,2.8325,-0.0160875,-4.9192
4.0789504,1.4640001,11.479051,1.442375,-0.35365,-5.4253373
3.5670002,1.6129501,14.34405,0.9013125,-1.4609375,-2.5592875
-0.34605002,-3.31695,14.206051,0.2616625,-0.254375,0.0655875
-2.5450501,-4.4110503,1.335,-0.66715,0.53515,2.9667
-7.0309505,-3.4030502,2.8570502,-2.32155,0.4444,5.1533623
-2.4469502,-2.04405,15.538951,-1.078825,0.598125,5.4022374
4.2109504,1.5979501,14.173951,2.1219,-0.557425,-4.228675
5.5420504,1.0530001,9.80805,1.772375,-1.0811625,-6.6963873
1.33395,1.2559501,15.12495,0.8305,-2.5674,-2.8593125
0.61995006,-3.9780002,12.847951,-0.1758625,1.02685,0.9703375
-3.8500502,-4.224,-1.5769501,-0.721875,0.666325,2.8483124
-4.7520003,-4.54005,8.475,-2.419175,0.310475,5.77885
-1.7149501,-3.4729502,19.792051,-0.323675,0.3092375,3.3715
2.8870502,2.01495,11.38605,2.1542125,-0.1915375,-3.5008874
5.4580503,1.7179501,2.3809502,1.8371375,-0.7220125,-5.6665125
2.394,6.40005,10.28205,0.9299125,-2.39855,-2.2400124
-0.36495003,-1.51005,9.430051,0.52442497,1.1050875,0.4769875
-3.6349502,-4.1719503,1.72695,-0.357775,0.65793747,2.9682124
-3.8260503,-4.1670003,4.6789503,-2.338325,1.061775,5.7050123
-2.7970502,-4.68195,17.41995,-1.6968875,0.599775,3.790875
2.9329503,0.933,13.01595,1.4210625,-0.851675,-2.8994625
2.3410501,1.2060001,4.497,1.5723125,-0.8179875,-4.9765377
0.90300006,1.167,13.83195,0.8229375,-1.2912625,-3.0454874
-1.677,-4.05195,13.5379505,0.3510375,0.104225,0.6810375
-1.296,-1.422,5.2990503,-0.7935125,0.0482625,4.0926876
-3.89805,-2.8600502,-2.061,-0.6793875,-0.0064625,3.4177
-8.69505,-0.81795,9.898951,-3.0267875,1.620025,5.7688127
-1.3800001,0.08505,18.070951,-0.2409,1.3756875,-0.5995
2.4829502,-0.46905002,8.817,1.292775,-0.546425,-0.8570375
-0.003,0.37305,8.72595,0.74525,-1.17645,-2.43485
-1.3099501,-2.4079502,18.05895,0.368775,-0.301675,1.009525
-0.46800002,-2.57505,6.3040504,-0.0636625,0.30153748,3.25875
-1.7080501,-3.0870001,1.7149501,-0.7062,0.2171125,1.1919875
-2.67705,-1.0189501,4.25295,-1.5250125,1.107425,1.40635
0.00795,-3.01605,20.098951,-0.10505,0.71596247,1.42725
2.4709501,2.979,4.35795,1.0135125,-0.590975,0.8193625
2.3719501,1.0879501,3.6019502,0.077,-1.0245125,2.7379
-1.04505,0.72195005,20.721,0.2745875,-0.4747875,4.1683125
-1.2220501,-1.35195,4.58295,-0.1588125,0.77701247,0.0031625
-3.3690002,-4.13805,-0.92805004,-0.5055875,0.5971625,-2.8015625
-1.3410001,-4.059,7.7689505,-2.2710874,0.3136375,-0.9997625
1.9300501,-1.2730501,19.383001,-0.4041125,0.246675,1.0406
3.4020002,2.30205,10.479,0.82995,-1.357125,1.6973
3.0259502,1.5810001,5.1930003,1.082675,-1.84085,4.693425
1.764,0.32700002,17.33205,1.63295,-0.5548125,5.3656626
-0.45105,-3.42,10.1320505,-0.7253125,0.20075,-1.4037375
-2.4190502,-7.209,4.00395,-1.832325,0.9436625,-4.5461626
-3.3979502,-3.2959502,11.191951,-2.7773626,2.6885376,-4.8695626
-1.9660501,-4.0999503,22.771952,-0.0947375,1.150875,0.3474625
2.98005,4.6740003,6.5170503,1.012825,-1.1473,2.08945
4.73505,0.483,5.493,-0.0199375,-0.4233625,6.4475126
-0.19695,-1.9050001,27.351002,0.3570875,-0.5663625,5.013525
-1.3249501,-2.3500502,0.81795,-1.517175,0.48427498,-3.688575
-2.86905,-5.5150504,3.04605,-2.330625,2.0878,-6.576625
-6.3439503,0.23895001,8.94705,-2.710125,2.9231124,-3.3045375
-2.766,0.43695003,16.55805,0.80079997,0.4994,1.7884625
4.10295,3.5320501,3.5080502,0.40315,-1.61425,2.2831874
3.6510003,4.6069503,1.72695,1.1046749,-2.68125,6.8377376
0.55095005,-3.456,26.503952,2.4464,-1.8805875,5.896275
-2.301,-4.122,2.838,-2.398,0.945725,-4.9248376
-3.1249502,-5.6940002,2.63205,-2.79675,2.9605124,-7.3728876
-3.0360003,-0.14295001,13.509001,-2.303125,2.98705,-2.7407875
-3.35205,-1.5960001,20.191952,1.4524125,-1.2156374,1.717925
2.538,2.4049501,4.42005,0.96635,-1.2810875,3.2995875
5.6350503,2.50305,9.825001,1.4240875,-1.979175,6.04725
0.726,-3.4800003,17.640001,0.6743,-0.9527375,2.2815375
-1.9470001,-4.89195,0.96405005,-2.1322124,0.82156247,-5.2584124
-4.089,-5.21505,1.3950001,-2.1454124,2.4817374,-6.8677125
-0.573,-2.60595,16.657051,-0.9139625,1.9023125,-0.311025
1.88205,-1.24395,15.771001,1.426975,-1.1917125,2.2369876
6.0420003,3.11595,3.6690001,0.721875,-1.0142,3.9912124
1.11105,2.2369502,13.887001,2.4253626,-2.4552,8.098337
0.66105,-1.02705,10.716001,-0.1617,-0.2894375,-2.2851124
-1.866,-5.8350005,-1.4620501,-1.393975,0.3081375,-5.173025
-4.6660504,-1.6699501,3.4410002,-3.4005125,1.8569375,-5.9775376
-1.10895,-7.7430005,26.767052,-1.5338125,2.3901625,0.4272125
1.7839501,3.0889502,6.5839505,0.419375,-1.2615625,1.35355
6.6979504,2.3070002,3.5419502,1.3354,-2.0200124,4.5725627
-0.216,-2.74305,27.009,0.90337497,-1.2724249,9.7443495
0.058050003,-3.3649502,5.2249503,-3.0630875,1.828475,-6.5712624
-3.249,-5.031,3.4699502,-1.175625,1.0522875,-6.549125
-6.8830504,0.57105005,6.14895,-2.251425,2.679875,-3.4416249
-4.20195,0.708,16.827002,0.2135375,1.0784125,1.6963375
3.4140003,2.259,3.9799502,0.6590375,-1.1012375,2.8318124
6.0280504,1.3090501,5.1139503,0.7027625,-2.6041124,5.8419623
-1.5330001,-3.4350002,26.595001,1.2494625,-1.6236,7.4487877
-2.69595,-3.0870001,1.81605,-0.74855,0.8064375,-6.8715625
-3.63,-3.9589503,-1.1560501,-1.766875,1.93545,-7.2496877
-7.038,-5.1220503,12.328951,-2.7897375,3.27635,-2.00365
-2.493,-0.30405003,21.231,0.9205625,-0.579975,1.8656
5.86005,1.1410501,8.00805,0.5179625,-1.4722124,3.5754125
0.89805007,2.25405,13.272,1.6445,-3.7428875,10.564675
-2.8140001,-4.0810504,16.78095,0.7095,-0.4016375,-3.9791124
-1.42005,-3.9540002,-4.059,-0.7860875,0.8342125,-7.5128627
-6.6550503,-4.0140004,3.3460503,-2.46345,2.5590124,-6.6983123
-8.295,-5.4619503,26.491951,-0.4373875,1.08845,0.4778125
1.83405,3.9460502,6.15105,1.2467124,-1.4476,2.07625
4.065,2.4720001,7.491,0.839025,-2.69005,5.484325
1.2760501,1.4620501,15.814051,1.2610124,-1.75615,8.967475
-0.82905006,-4.9620004,11.509951,-1.04445,0.68805,-3.4392874
-2.49,-3.7530003,-3.75795,-1.365925,1.3046,-7.414275
-5.499,-3.0349503,7.3639503,-2.3678875,3.2874875,-5.41915
-3.8929503,-1.4170501,20.17995,0.23567499,0.54202497,1.0781375
0.52905005,2.77395,12.252001,1.160225,-1.8396125,3.1323874
4.053,1.4809501,6.2110505,0.419925,-2.1737375,6.5907874
0.36705002,-0.37305,20.407051,0.51919997,-1.8387874,5.5539
0.87405,-3.315,6.6540003,-1.050775,0.3782625,-4.590025
-3.6730502,-3.8200502,-1.9579501,-1.46135,0.7398875,-8.00305
-8.35995,-4.3110003,15.946051,-1.7677,3.184225,-4.460775
-6.4830003,-0.49305,21.619051,0.26125,0.4890875,1.3872375
3.9619503,1.3399501,5.2650003,0.4714875,-1.1724625,2.52285
5.9370003,0.97605,5.091,0.2437875,-1.5114,4.048825
-1.2790501,-0.34905002,25.78605,-0.8448,0.8655625,7.769575
-0.49395,-1.7730001,8.431951,-1.037575,1.2137125,-5.918825
-3.0889502,-4.5550504,-1.9860001,-0.9186375,0.76353747,-6.7563376
-6.1140003,-1.2900001,10.342051,-2.266825,3.5267375,-3.08715
-4.1950502,-0.22500001,18.226952,0.42295,-0.2222,0.1508375
4.02405,2.8530002,6.1410003,0.41415,-1.3255,2.1063626
7.3969502,-0.62700003,8.48505,0.414425,-0.7409875,7.0103
-1.0020001,-4.74405,28.249052,1.1779625,-1.2189375,4.6179376
-2.8540502,-2.8549502,-1.4620501,-2.414225,1.8183,-7.822925
-4.5610504,-1.43295,-5.649,-2.2177374,2.49425,-7.0206122
-3.5389502,1.47405,12.384001,-1.9672124,3.0284374,-0.8328375
-3.1699502,-1.0890001,17.31495,1.8737125,-1.683,1.7052749
5.96295,4.4440503,4.63605,0.84865,-1.4048375,1.8137625
3.5359502,0.018000001,8.856,2.1690624,-1.8865,8.518125
-1.8250501,-1.04295,19.905,0.007425,-0.617375,1.4051125
-2.3779502,-3.0970502,-0.92100006,-0.6389625,0.480975,-5.8144627
-3.6349502,-2.8980002,-1.6489501,-1.7271374,1.6896,-6.194925
-4.2520504,-3.255,16.105951,-1.8557,2.6488,-1.116775
0.216,-0.64605004,19.021952,1.1738375,-1.52515,1.4210625
7.011,1.74705,5.052,0.7748125,-1.9149625,3.4962125
5.34105,0.744,14.433001,-0.7632625,-0.483175,10.3015
-2.1720002,-1.218,15.63195,-1.6011875,0.969925,-1.1187
-2.598,-3.9199502,-1.9530001,-1.57355,1.4727625,-7.153575
-5.6239505,-4.1599503,3.2760003,-2.6588376,2.9863625,-5.6782
-2.469,-7.65495,24.426,-0.8724375,1.6949625,0.17407499
2.358,2.331,10.354051,0.6967125,-1.681075,0.9590625
5.7949505,3.1999502,4.7410502,0.99343747,-2.4957626,4.9960623
4.17,2.3140502,11.665951,2.0367875,-2.4740374,9.394137
-1.3630501,-2.66895,17.43,0.0713625,-0.2613875,-0.6348375
-3.3379502,-2.8290002,-0.82995003,-2.0416,1.1668249,-7.594125
-3.7210503,-4.071,0.22695,-2.17415,2.7823124,-4.6734877
2.499,-2.736,19.01205,-0.9537,1.7276875,-0.4016375
1.8580501,0.60705,11.22795,0.759275,-1.7370375,0.9084625
6.0160503,2.9530501,4.8130503,0.7330125,-2.044625,3.0410874
2.1330001,4.71705,9.859051,0.58753747,-1.490775,9.76635
-0.64995,-2.29005,9.250951,-1.2810875,0.9964625,-2.8538125
-2.7940502,-4.9620004,0.21195,-2.1388125,1.3201375,-5.7365
-4.70205,-4.7080503,9.62895,-3.0723,2.797025,-4.541625
-2.6580002,-3.25305,21.70005,-0.08855,1.0682375,0.4978875
4.40205,2.9220002,4.5160503,1.0604,-1.2507,2.0708876
5.6590505,1.83,6.2749505,1.58235,-2.809125,4.7746873
1.17795,1.5310501,12.087001,2.9258626,-2.346575,8.224975
1.14705,-4.224,6.0720005,-2.29625,1.169025,-5.99115
-3.4980001,-4.86105,3.3340502,-2.860825,1.63075,-6.753175
-3.6180003,-4.524,15.388051,-2.605625,3.21915,-3.1464124
-2.4469502,-2.83095,18.331951,0.444675,0.3757875,0.97267497
2.904,4.13805,4.4370003,0.3036,-0.7291625,2.197525
2.49,-0.141,6.189,0.12595,-0.8949875,7.03065
0.0049500004,-1.2780001,26.935051,0.2039125,-0.08965,3.452075
-0.86805004,-3.8220003,4.188,-1.1015126,0.6037625,-4.38735
-2.055,-4.96395,0.27705002,-2.0142374,1.40635,-6.8883376
-4.3170004,-3.8149502,14.9740505,-3.3111374,3.4054625,-3.8097124
-6.39405,1.2420001,14.605051,0.693275,-0.388575,1.0951875
7.3030505,0.042000003,7.8190503,0.57722497,-0.8767,2.6967876
6.8560505,-0.81795,4.4749503,1.0627375,-4.2282624,8.9639
1.6180501,-6.774,24.76395,1.63955,-2.2240624,7.3522625
-0.42705002,-3.5040002,4.506,-3.2242374,2.8479,-8.459413
-2.4810002,-4.19595,-1.4770501,-2.0365124,2.486275,-8.59265
-5.715,-0.68700004,9.141001,-2.5713875,3.8016,-2.8337374
-7.0789504,1.0020001,16.92,1.047475,-0.0790625,1.4607999
6.2260504,3.73305,6.3090005,1.0803375,-1.15115,2.5146
3.5479503,1.014,5.24805,1.2387375,-3.4637625,6.4801
-2.364,-7.9819503,30.025051,1.114025,-1.2456125,2.9860876
-3.558,-3.17595,0.291,-1.5173125,1.4260125,-7.599625
-1.15695,-3.5490003,-3.6690001,-1.774575,2.9547374,-4.4264
-2.907,-4.93095,18.21195,-1.9155124,2.5411375,-1.8790749
-0.50895,-1.1080501,18.627,1.6468375,-1.4584625,0.9838125
5.2930503,2.52495,7.3429503,1.348875,-1.7501,2.964225
5.0269504,0.873,11.908051,2.4039125,-2.1294625,8.67405
-3.04605,-2.0970001,18.118952,0.969375,-0.6994625,0.5366625
-3.41895,-3.7699502,-4.4089503,-1.1543125,0.3265625,-6.8693624
-5.38005,-4.9999504,2.80905,-3.4546876,2.9211874,-5.575075
-2.42595,-1.314,22.642952,-1.05215,1.304875,-0.42061248
3.0619502,2.8960502,9.354,1.6715875,-1.6801125,2.48765
5.99205,2.39295,6.14895,1.321925,-2.3002374,6.6658626
-1.33905,0.95205003,21.310051,1.6919374,-1.8909,7.388425
-2.2009501,-2.0629501,5.98605,-1.103025,0.5157625,-4.005925
-3.0190501,-6.51,0.33705002,-1.6685625,1.3248125,-7.1190624
-2.80395,-2.7280502,16.750051,-3.3449626,3.0322876,-3.8115
-0.99705005,-3.9469502,21.33105,0.7525375,0.2437875,0.584375
2.6449502,0.423,7.22805,1.1059124,-1.752025,2.084225
5.5219502,1.5480001,5.68905,1.08515,-1.02905,5.2947125
-5.20695,1.725,13.963951,0.50215,-0.63305,5.4124126
-1.3579501,-3.8700001,4.37505,-0.7506125,0.3672625,-4.4166374
-1.6890001,-6.73995,5.07105,-1.9958125,1.778975,-6.2471747
-1.899,-2.532,12.93,-2.380125,2.359225,-2.797575
-1.164,-1.1530501,19.048052,1.16325,-0.3548875,0.95645
4.56495,3.85995,3.867,1.1583,-0.78375,2.937825
2.25,1.14795,10.816051,1.5736874,-1.9372375,6.8686748
-3.4120502,0.066,15.583951,0.24145,-0.435325,2.024825
-0.966,-5.30595,3.7740002,-0.8969125,0.01485,-5.0719624
-2.35605,-5.05695,3.9150002,-3.0278876,1.8044125,-6.0311623
-3.4099503,1.5960001,15.496051,-1.4771625,1.2989625,-1.2073874
0.702,0.19995001,12.903001,1.57465,-1.125025,2.2903376
3.35595,0.31995,12.40095,1.18855,-1.5208875,3.7299626
5.769,-1.2919501,13.155001,1.1419375,-2.008325,6.180625
-0.18795002,-5.3260503,24.34995,0.77715,-1.3629,3.6333
-2.80395,-2.74305,-2.733,-2.1901,1.1506,-6.3938875
-3.663,-4.6480503,0.88500005,-2.7583876,2.42495,-6.1257625
-1.45905,-6.54195,23.440052,-0.97377497,1.697025,-0.715825
3.0040503,-1.3260001,15.5119505,1.32055,-0.97075,1.275175
6.6120005,1.00695,6.9480004,1.068375,-2.1841874,3.0439749
5.5920005,-0.39195,13.47105,1.9534625,-3.3114126,7.4305
-0.57795,-7.4149504,22.441952,0.487575,-0.5075125,0.4252875
-4.7839503,-3.7339501,-2.322,-2.03005,1.0393625,-7.5670376
-2.50005,-4.59105,0.46605003,-1.881825,2.5317874,-4.7069
-0.27600002,0.54300004,17.296051,0.027775,1.3288,0.3810125
1.2709501,0.75600004,15.61305,2.04655,-1.7395124,2.2790625
3.4710002,0.40395,3.31905,0.9285375,-1.425875,2.6687374
4.551,0.15495001,6.4429502,0.92509997,-1.73855,4.3412876
-1.19805,-4.05495,34.453053,-0.1079375,-1.0129625,6.909925
-2.90895,-2.90805,6.77295,-2.173325,1.2926375,-6.5219
-2.4070501,-2.59695,-1.2589501,-1.4656125,1.6108125,-2.7275875
-6.13605,-0.84705,16.702051,-1.4667125,1.9347625,-1.2700875
-2.8849502,-1.728,19.302,0.83765,-0.5116375,1.46905
1.8360001,2.8260002,0.61905,0.34814999,-1.0076,1.5096124
2.7169502,1.44,5.1649504,0.4873,-1.739375,3.0463126
-1.0690501,-2.7550502,27.10695,0.7902125,-0.5919375,4.6905375
-1.7029501,-0.105000004,8.142,-0.74745,0.670175,-1.5786375
-2.739,-4.5810003,6.0220504,-0.4841375,0.23595,-1.7089875
-4.42395,-2.709,6.0070505,-2.1019626,2.1208,-3.462525
-3.5029502,-3.8920503,27.80895,-0.5251125,1.253725,-0.537075
3.6079502,2.1420002,3.3739502,0.3172125,-1.2005125,2.585
1.9369501,-2.8819501,5.4210005,0.7079875,-2.1894126,5.52805
-0.06105,0.80100006,19.27005,0.0702625,-1.5269375,3.5069375
2.94,-2.6850002,14.224951,0.5509625,0.3177625,0.1885125
-1.0489501,-1.98405,1.3609501,-0.663575,0.08195,-0.6155875
-4.4940004,-1.9270501,9.528001,-1.0487125,2.0788624,-4.5915375
-3.2899501,-1.98405,20.236952,0.0968,1.7265875,-1.2573
6.7699504,3.9610503,2.0650501,-0.0836,0.1233375,3.50185
4.0360503,0.53295004,3.70005,0.5033875,-1.7837875,10.498813
1.4290501,3.288,21.529951,1.0228626,-1.4100626,4.4218626
-3.7729502,-2.3689501,1.6720501,-0.093637496,1.5576,0.66275
-1.84695,-2.8240502,3.4630501,-1.665125,2.0739124,1.2431375
-1.401,-6.0270004,12.77595,-1.4884375,0.938025,4.15965
-0.21405001,-6.4459505,21.372002,-0.6092625,-0.834625,4.052675
3.4710002,3.0250502,4.72905,0.9241375,0.2734875,-2.6794624
2.7870002,0.26505002,6.9550505,0.7726125,-0.32615,-2.14775
0.38595003,0.13800001,18.981,0.681725,-0.8811,-0.1441
-0.78105,-3.6670501,8.24505,0.6235625,-0.30621248,1.1609125
-3.2760003,-4.15005,2.742,-1.2021625,0.4063125,2.987325
-5.90595,-3.8440502,13.70505,-2.7522,0.91795,3.9028
-4.46295,-0.96000004,16.62105,0.6158625,-0.10285,-0.8870125
4.41405,2.45805,5.7660003,1.3321,-0.2338875,-3.2388124
3.8920503,2.42895,2.043,1.5926625,-1.4188625,-3.31815
2.112,-0.57900006,18.76995,1.0692,-1.47455,-1.1974875
-0.11100001,-2.63295,5.42595,-0.3686375,0.759825,1.0714
-2.4190502,-5.73705,3.62595,-1.0483,0.5484875,2.591325
-4.67595,-2.5729501,13.380001,-2.9079876,0.607475,4.8379374
-0.90105003,0.20805001,15.313951,1.2454749,0.3669875,-0.52648747
3.52395,3.69495,7.3290005,2.157925,-0.110825,-3.51835
3.4399502,1.3399501,3.1710002,1.5884,-1.331825,-2.9195375
2.12595,2.73,19.09605,0.5603125,-1.1622875,-0.342925
1.1370001,-3.5329502,8.868,0.4813875,0.7546,0.2981
-2.4450002,-4.572,-0.097950004,0.2138125,0.55605,2.6926625
-2.5069501,-2.8240502,16.101,-2.6010876,1.1603625,4.1735373
-0.79605,2.60805,8.70495,0.9405,-0.0716375,-1.02575
3.14595,3.7170002,3.8389502,1.8236625,0.0452375,-2.497
3.1720502,-0.32295,7.326,1.3465375,-1.8024875,-1.956075
1.29495,-2.046,22.993052,0.1265,-1.4405875,-0.3735875
-0.786,-2.9680502,4.81995,-0.4448125,1.3605624,1.2574375
-0.73605,-5.2320004,4.3050003,-1.5585625,0.8430125,2.229975
-3.216,3.6109502,8.88,-1.9501625,0.678425,2.1385374
1.44105,-0.507,12.252001,2.611125,0.722425,-1.5125
2.90595,1.524,4.83405,1.1132,-0.615175,-1.618375
3.32505,-0.12705001,10.79205,0.8875625,-1.4326125,-1.58895
1.98195,-0.13095,14.749051,0.1307625,-0.6840625,-0.44605
-0.55395,-4.41405,8.17395,-0.1161875,0.4057625,0.600325
-3.00705,-3.4249501,4.54995,-1.549075,0.6323625,1.9779375
-0.231,-4.7530503,19.014002,-1.704725,1.596375,2.5744126
-4.36695,-4.275,21.678001,0.7140375,-0.064075,-0.6131125
6.12795,3.31695,4.9560003,1.3036375,-0.2297625,-1.7936875
3.9310503,-0.37995002,6.1600504,1.6570125,-2.1687875,-2.3579874
-2.4450002,-0.63195,16.89405,0.70867497,-1.20065,-0.6139375
-1.9450501,-2.1420002,3.8790002,-1.162425,1.0643874,1.478675
-1.3920001,-5.9809504,4.9680004,-1.6220875,0.7533625,2.0697875
-0.03195,-1.9960501,11.43105,-2.308625,0.099825,2.990625
1.9969501,-4.1740503,20.74995,1.070575,0.12045,-0.337975
5.0149503,2.7520502,6.0649505,1.452275,-0.3730375,-2.3266375
6.4009504,3.25005,8.18805,1.7732,-1.6561875,-2.595175
1.18305,-1.8739501,16.156052,1.0280875,-1.0817125,-0.7524
-1.9590001,-4.4160004,3.8869503,-0.8859125,0.98175,1.957725
-3.5839503,-5.77995,2.661,-2.14115,0.8529125,2.9442875
0.10605001,-1.0170001,16.932001,-2.2187,0.3823875,2.9646375
0.096,-1.74495,17.63595,2.1027875,0.242825,-1.4502125
3.8710501,3.528,7.63005,1.6443624,-0.3597,-3.0822
4.62195,0.82500005,14.038051,1.6751624,-1.852125,-2.7203
-1.5109501,-2.2110002,19.34205,0.5654,-0.6155875,-0.60005
-1.2790501,-3.6360002,0.034950003,0.1060125,0.363275,2.264075
-2.8660502,-3.5089502,-1.1890501,-1.88375,0.5262125,3.6716626
-4.3000503,5.70795,9.246,-2.4209626,0.7437375,3.4705
-1.4470501,-0.41400003,16.917002,3.1200125,0.295075,-2.241525
3.186,1.7989501,7.4430003,1.1050875,-0.2723875,-2.8259
2.77005,0.033,9.727051,0.7524,-1.8434625,-1.8737125
1.8270001,-3.4249501,19.84995,0.1310375,-0.711975,-0.70895
0.177,-2.226,4.9489503,-0.74635,0.6249375,1.0533875
-3.01005,-3.4129503,0.79605,-1.0344125,0.1461625,1.2577125
-1.11195,0.109050006,17.698051,-3.5608375,0.22605,5.0631623
-3.249,-3.3079503,23.352001,2.9385126,0.6920375,-1.47235
5.2830005,3.4290001,4.28895,1.8368624,0.2286625,-3.781525
1.52505,-0.90000004,9.636001,1.3421375,-2.0956376,-2.8062375
-3.3930001,-1.536,21.32895,0.1848,-0.5823125,-0.35227498
-0.291,-4.3660502,4.46295,-0.354475,1.2621125,1.232
-2.8180501,-4.392,0.32205,-1.6641625,0.33385,2.7533
-3.7489502,0.15195,7.6330504,-3.0020375,0.29425,4.299625
-1.0690501,-0.33495003,18.93795,2.605075,0.7684875,-1.6594875
3.9520502,3.0370502,4.04895,2.470875,-0.4547125,-3.5927374
4.668,0.804,15.666,1.628825,-2.2193875,-2.0169876
0.003,-0.34395,16.67295,0.5445,-1.3682625,-0.3763375
-3.4770002,-4.1839504,-0.076050006,-0.1232,-0.001925,1.569975
-6.7650003,-4.5739503,3.4080002,-2.1153,0.9942625,4.114275
-0.58995,0.76005006,13.444051,-1.903825,1.1584375,3.52935
1.5990001,-1.3660501,14.227051,2.332825,-0.036849998,-2.6043875
6.20205,0.98505,10.48305,1.2618375,-0.528,-3.11355
4.6579504,0.51600003,14.086051,0.88054997,-1.8833375,-2.0717125
-0.10395,-2.76705,11.161051,0.202675,-0.1032625,-0.0488125
-2.8140001,-5.7400503,0.88695,-0.3851375,0.3218875,2.133175
-5.076,-4.7179503,8.736,-2.622675,0.284075,4.5082126
0.69900006,1.44,13.36095,0.020624999,0.9411875,1.1229625
1.4959501,1.8280501,11.25405,1.904925,-0.1857625,-2.2578876
3.1339502,2.8879502,6.8950505,1.8909,-0.69313747,-3.69105
2.229,0.14295001,19.153051,1.269125,-1.5065875,-1.9501625
-0.23295002,-3.4729502,6.0810003,-0.6424,0.6857125,1.4482875
-1.1839501,-5.043,3.14895,-1.4713875,0.3089625,3.1473749
-3.5839503,-1.9860001,10.12005,-2.0933,0.091025,2.93645
-1.794,0.48495004,13.425,1.0417,0.83187497,-0.0759
1.8100501,5.7390003,4.2979503,1.811425,0.20735,-2.83195
4.986,0.37995002,5.5260005,2.280575,-1.3641375,-3.7959626
4.701,-0.63195,22.087952,0.1925,-1.29965,0.0562375
0.86700004,-3.6360002,9.40095,0.0127875,0.1582625,1.4837625
-2.36595,-4.3560004,0.92100006,-0.8460375,0.18493749,2.5169375
-5.8510504,-1.6320001,12.042001,-2.122175,0.9697875,3.9513376
-0.60195005,-4.3900504,14.293951,1.0720875,0.7250375,-0.0793375
4.9290004,3.8509502,1.9290001,0.64955,-0.5377625,-3.4365375
5.89305,1.5600001,1.8349501,1.1396,-1.4086875,-4.075775
0.46695003,-5.4360003,37.912052,1.10165,-1.571075,-1.3094125
-3.62505,-2.496,-1.4650501,-0.23539999,1.2109625,1.9229375
-2.6800501,-2.7520502,-2.3050501,-1.3288,1.0126874,3.7467375
-0.99195004,-3.1330502,7.6519504,-2.940575,0.3837625,3.04425
-1.8870001,0.14805001,17.57595,1.593075,0.6620625,-0.44494998
4.0339503,5.43795,3.9750001,2.9876,0.38555,-3.3688874
3.8830502,2.8290002,6.8380504,2.619925,-1.1484,-4.3274
-1.69305,-0.45000002,25.381052,0.74855,-1.64945,-0.166925
-0.135,-2.77395,2.2780502,-1.0918875,1.2232,2.3027124
-2.15805,-4.6270504,1.4500501,-1.3245375,0.4280375,2.6926625
-2.9620502,-0.016050002,7.0960503,-2.4182124,1.746525,4.03865
-4.57305,0.98295003,12.336,1.6047624,0.5187875,-1.1099
1.9060501,5.5090504,5.361,2.0857375,0.1034,-3.858525
3.828,-0.77505004,8.323951,1.7274125,-1.8283374,-2.74395
-2.35395,-2.38905,22.73895,0.21395,-1.6669124,0.43559998
-1.7719501,-4.203,2.3040001,-0.76353747,0.906125,2.2221375
-4.38105,-4.61205,3.5370002,-2.0801,0.5555,3.3108625
-2.3089502,-0.91605,12.316951,-1.57135,0.9169875,2.82315
-0.42195,-2.01,15.18,1.798775,0.779625,-1.99815
3.459,2.6869502,6.642,1.7221875,-0.2655125,-3.3496375
4.22805,-0.65805006,12.56805,1.4476,-1.249875,-2.313025
0.052950002,-0.54300004,9.898951,0.473275,-0.608025,-0.19855
-1.167,-4.02105,4.68405,-0.1819125,0.2305875,1.5893625
-3.7020001,-3.8080502,3.7140002,-1.6308875,0.58795,2.8139374
0.46005002,-1.4070001,14.502001,-0.725725,0.881925,1.8225625
2.7940502,-0.22905001,11.77095,1.1864874,0.5776375,-1.2810875
3.519,2.766,6.8590503,1.36235,-0.598125,-2.8099499
2.9659503,1.7850001,12.74505,1.46795,-1.2727,-2.298175
2.56605,-3.3319502,7.0530005,0.1205875,0.086625,0.01265
0.32805002,-6.63,6.5550003,-1.210825,0.230175,2.8912125
-4.8310504,-4.45905,10.750951,-2.01025,0.2303125,2.9170625
0.46905002,0.76995003,11.26395,-0.081675,1.0840499,1.532025
1.79805,3.4009502,6.2440505,1.3745875,-0.1667875,-2.1140625
3.5530503,1.6459501,4.7650504,1.490225,-0.8507125,-3.1339
-0.82905006,1.1340001,18.82995,0.9249625,-1.5263875,-1.473175
-0.38595003,-2.8150501,1.93095,0.108899996,1.06975,1.0533875
-2.043,-4.0950003,3.456,-1.5720375,0.507375,3.544475
-3.2680502,-2.058,9.28695,-2.3043625,0.3727625,3.2692
-0.83895004,-4.59495,17.96595,1.4927,1.1336875,-0.115637496
3.4110003,4.6600504,6.972,1.088725,-0.0581625,-2.9684875
3.9499502,-0.67905,6.7900505,1.12255,-0.8452125,-3.1169875
0.89100003,0.19095,23.124,0.215325,-1.2101375,-0.1370875
-0.38595003,-2.93895,1.8019501,-0.45265,0.6285125,1.676125
-1.452,-4.098,-1.2559501,-1.571625,0.553575,2.7726874
-1.4970001,-2.90805,11.56995,-3.3160875,0.6004625,4.3201127
1.0200001,-3.5850003,18.92295,2.598475,0.485925,-1.9790375
1.64505,0.51195,14.316001,1.5448124,-0.3722125,-3.0452125
2.8219502,0.73905003,11.75895,1.2454749,-0.6414375,-2.5587375
0.99105006,0.46800002,11.09595,0.52635,-0.8603375,-0.749375
-0.312,-5.5939503,6.5790005,-0.3625875,0.4477,1.0121375
-3.4650002,-4.4110503,2.6830502,-2.1224499,0.3400375,3.2697499
1.9990501,-0.34005,11.307,-1.8156875,0.6725125,3.859075
1.056,-2.6230502,18.531,2.2928126,0.0089375,-1.824075
4.3380003,3.45795,6.63705,1.7741625,-0.2173875,-3.494975
4.242,0.56205004,14.512051,1.514425,-1.653575,-2.7773626
-0.63495004,-1.8000001,13.441951,0.073425,-0.089375,-0.0782375
-2.1739502,-3.9970503,3.8149502,-0.9702,0.8540125,2.156275
-4.46805,-4.782,3.59205,-2.1091125,0.674575,3.3312125
0.22995001,-1.35195,16.33605,-1.2332375,0.8963625,2.575375
1.7569501,-2.21595,18.45705,1.7450125,-0.4890875,-2.239325
3.28905,3.3000002,8.36295,0.8982875,-0.46461248,-3.0536
4.3759503,3.3379502,12.286051,1.5640625,-1.2673374,-3.0735376
1.7860501,-5.208,14.884951,0.2618,0.0726,-0.685575
-1.3729501,-5.92605,5.61705,-1.34145,0.53061247,2.685925
-3.5410502,-5.2510505,7.8289504,-2.4288,0.24887499,3.7503126
-3.27795,-0.98595005,14.892001,-0.3108875,0.5148,1.1598125
1.55595,5.11695,8.142,1.7534,0.5247,-1.89475
3.25305,1.593,5.8489504,1.85185,-0.43559998,-3.941025
-1.4299501,4.57095,9.95895,0.476025,-1.74625,-0.2039125
2.9490001,-4.4040003,10.531051,0.4800125,0.4772625,0.626175
-2.86905,-5.10795,3.7930503,-0.9634625,0.19813749,2.3343375
-2.6200502,-5.886,9.255,-1.974775,0.6171,3.4562
1.1560501,-2.43195,19.324951,0.8635,0.942425,1.3281125
0.40005,4.34595,7.83405,1.9658375,-0.55055,-2.809675
2.64105,1.2420001,3.7810502,0.23773749,-0.8980125,-2.46015
1.74495,3.0199502,10.60995,-0.0064625,-1.4642375,-0.567325
-0.41505003,-4.15005,14.602951,0.76147497,0.225225,-0.356675
-1.7359501,-5.1919503,4.497,-1.335125,1.0861125,2.649625
-2.36805,-1.5679501,11.785951,-2.216225,0.8155125,3.255725
0.93600005,-1.455,15.850051,0.6111875,0.8078125,0.2743125
3.8730001,0.93495005,8.602051,1.10385,-0.397375,-2.0831249
4.59105,1.1029501,5.2720504,1.19625,-1.4531,-2.1203876
2.83395,6.354,9.00405,0.586025,-1.4936625,-0.12595
0.23700002,-0.22200002,8.3550005,0.5484875,1.1242,0.5284125
-2.3440502,-3.7069502,3.8580003,-0.1551,0.628925,1.40525
-3.522,-4.4880004,7.6639504,-1.7534,1.12695,3.1458626
-0.54405004,-6.0600004,21.25695,-1.0896875,0.8020375,3.5385625
3.08295,-1.3110001,12.906,0.26345,-0.74525,-0.856075
4.4430003,1.3969501,2.2729502,0.47753748,-1.4738625,-2.908125
4.41195,6.5170503,8.071051,0.366575,-2.4079,-2.0178125
0.28305,-1.20105,11.635051,2.10815,-0.5592125,-0.38225
-3.20895,-1.9219501,2.6800501,-0.090475,1.4059374,3.362425
-3.8550003,-3.83205,2.9310002,-1.48885,1.848275,4.0088124
-5.95905,-11.51805,24.958052,-2.0238626,1.4224375,2.6873
2.76705,-0.84000003,12.57495,-0.1354375,-0.7887,-0.668525
4.362,0.18405001,6.2629504,0.8999375,-1.3497,-0.7968125
4.10295,-2.424,10.873951,0.7393375,-1.6141125,-1.3377374
-0.80295,-7.827,32.80395,0.7063375,-1.124475,0.37895
-0.35505003,0.44505003,3.5110502,-0.2047375,0.9340375,3.1042
-1.0710001,-6.834,3.2910001,-0.3172125,0.6441875,1.1859375
-4.5679502,5.2650003,12.139951,-2.5223,1.266375,0.3958625
1.176,1.4260501,14.647951,1.9765625,0.3774375,1.61975
5.3640003,3.04905,6.0430503,1.2276,-1.6379,0.814
0.333,0.42495003,6.7159505,1.4573625,-2.332275,1.1881375
-2.56005,-1.0860001,23.407051,0.7981875,-0.335225,2.7528875
1.01505,-0.9979501,6.201,-0.4954125,0.498025,-0.6006
-0.73395,-5.1150002,0.18405001,-0.8701,0.034649998,-1.249325
-6.30105,-1.4290501,8.734051,-2.8875,1.2461625,-1.045275
-2.28495,1.9410001,19.609951,0.6694875,1.0241,1.44925
2.73405,4.07805,7.1370006,1.38655,-1.022725,2.0339
1.8889501,0.64305,5.7850504,1.008975,-0.49101248,4.5538626
1.2210001,1.96905,14.926051,0.5215375,-0.34045,3.5828376
0.96000004,-3.97305,12.669001,-0.7244875,0.127875,-1.1721874
-2.39505,-4.3320003,2.89995,-1.88705,0.4107125,-3.3380876
-2.979,-3.8940003,7.3410006,-2.2383626,1.9534625,-2.8560126
-4.22295,-3.0370502,23.751001,-0.2347125,1.1493624,0.3988875
3.1669502,5.54295,4.22205,0.8160625,-0.8793125,1.952775
3.25605,2.3040001,7.1470504,1.8232499,-1.5508626,4.794075
2.1690001,1.6890001,20.223001,1.5239125,-1.155,4.0089498
1.03695,-4.8780003,11.292001,-0.9343125,0.1111,-2.3012
-2.70795,-4.25295,-1.67805,-2.36335,0.360525,-5.236
-2.60295,-4.27995,7.6800003,-3.0382,2.7501376,-3.7206125
-0.9990001,-0.402,18.118952,-0.0506,0.7777,0.3689125
6.1969504,3.0199502,5.64795,1.4337125,-1.1297,3.494975
2.976,1.452,5.78205,0.82885,-0.46035,6.17375
-0.94695,-0.81600004,19.786951,0.026124999,-0.2784375,1.4229875
0.40695003,-2.568,4.43205,-1.208075,0.5955125,-3.8329499
-2.1649501,-4.84905,0.90900004,-2.0629125,0.7338375,-5.7882
-5.0230503,-2.08905,14.698951,-1.8478625,2.28965,-1.74405
-2.907,0.81105006,16.01295,0.703175,0.19525,1.1925375
6.19995,1.5409501,5.8660502,0.7019375,-0.5421625,2.5614874
4.098,1.1719501,6.8280005,1.422025,-2.518725,6.6730123
-0.86295,0.27495003,25.171051,1.1576124,-0.7761875,4.3406
-0.62805,-2.259,1.6170001,-1.1005499,0.55715,-5.708175
-3.0630002,-4.143,-0.18900001,-1.6389999,1.3872375,-6.5960126
-0.20205002,-3.351,13.486951,-2.0656624,2.9844375,-2.1641126
-1.485,-2.70195,19.570051,0.62273747,-0.291775,0.2179375
4.21605,3.219,7.0530005,0.6615125,-1.1501875,2.51625
4.45305,1.026,7.9339504,1.012,-1.188825,6.6372623
-0.87195003,-2.8240502,25.873951,0.6303,-0.49307498,3.756775
-1.7359501,-6.5200505,7.5060005,-0.3925625,0.381425,-3.450425
-3.663,-5.1010504,1.3369501,-2.514875,1.38325,-6.569475
-2.11695,3.34995,7.8739505,-1.972025,2.2485375,-1.8968124
-0.31695002,-2.6490002,17.125952,2.1212125,-0.3623125,2.366375
5.35995,4.0009503,3.8550003,0.55165,-0.3694625,3.08495
5.6520004,0.076050006,11.24205,-0.4461875,0.53735,6.55105
0.73995006,-2.4510002,15.003,-0.489225,-0.35021248,1.02685
-1.0540501,-5.44005,6.5550003,-1.4169375,0.489775,-3.80435
-4.49595,-5.8330503,2.568,-2.566575,1.71655,-4.4625626
-0.81705004,-4.34205,17.24295,-2.10155,2.4003375,-1.989625
1.9440001,-0.27705002,15.900001,1.057925,-0.775775,0.7173375
5.7619505,2.3710501,5.2099504,1.2111,-1.3360875,4.084575
5.3310003,0.105000004,14.64105,1.945075,-2.0152,5.157625
1.401,-3.2260501,14.713051,0.0446875,-0.2858625,0.506825
-1.2580501,-7.6090503,3.8790002,-1.7208124,0.63208747,-3.678675
-3.0360003,-6.7930503,11.509951,-3.526325,2.4602876,-5.172475
-1.10895,-4.9159503,18.39405,-0.3873375,1.418725,0.1027125
2.67195,2.2470002,10.740001,0.9796875,-1.15665,1.643675
5.02005,0.77505004,9.03495,1.6850625,-2.1456876,4.6574
3.5050502,1.3450501,17.013,1.09945,-0.28875,3.5145
1.19505,-4.3060503,7.254,-0.346225,0.328075,-1.65275
-1.32,-7.4820004,6.0529504,-1.6637499,1.08625,-5.2127624
-3.4669502,-5.03595,9.02595,-3.2698874,2.6712124,-4.3885875
-1.248,-4.7130003,22.23405,0.545325,0.663575,1.13355
3.7890003,4.8630004,5.5360503,-0.1810875,-0.5721375,2.5652
5.0560503,1.9290001,6.0409503,1.47895,-2.2933624,6.5615
3.5050502,1.299,14.598001,0.7789375,-1.0852875,3.047825
1.9540501,-5.66295,9.042001,-0.80905,0.3557125,-2.7226374
-2.29695,-6.1420503,2.7970502,-2.593525,0.918225,-6.4438
-4.7449503,-6.04395,14.550001,-3.015925,2.9777,-3.614325
-4.18995,-0.19395001,18.208052,0.5236,0.378125,1.0102125
4.4089503,2.055,6.94995,1.2527624,-1.0294625,2.8408875
3.9019501,0.19605,9.80805,1.0907875,-2.35675,4.737425
0.37095,3.8149502,11.142,0.766425,-1.153075,3.463625
-0.62805,-4.38495,8.451,0.1263625,-0.2217875,-2.1883125
-2.56005,-9.543,9.543,-1.7921749,0.403975,-5.3141
-3.9390001,-4.5739503,14.737051,-2.7874,2.585,-3.1010375
-2.25105,-1.24395,7.9530005,0.6593125,0.3867875,1.386825
4.3039503,4.092,5.043,0.7013875,-1.400575,2.237675
2.43495,-0.13095,6.57705,1.3697749,-2.8578,6.6765876
-3.97005,1.8520501,18.799051,0.672375,-1.2604625,1.746525
-1.54305,-3.6810002,4.07595,-0.34553748,0.322025,-3.9835124
-2.5189502,-4.2049503,2.9629502,-1.781725,0.3235375,-5.6948376
-2.055,-0.28005,14.904,-1.4697375,1.49985,-2.1982124
-0.97800004,-0.94995004,17.824951,1.5670875,-0.4890875,1.1917125
3.3229501,2.4100502,5.24805,1.047475,-1.1163625,2.5788126
3.6529503,2.115,6.7450504,0.9458625,-1.068925,4.0844374
2.8540502,-0.28005,8.986951,-0.072325,-0.4189625,0.7349375
-0.62805,-3.9919503,2.73495,-1.99705,-0.0622875,-2.4842124
-5.4079504,-6.7450504,3.8359501,-2.5661626,1.1823624,-3.20265
-0.9990001,0.74895006,13.111951,-1.788325,2.468125,-1.181125
4.9410005,-1.8720001,19.58205,1.1378125,0.1425875,0.9356875
4.788,2.97705,1.5769501,1.1504625,-1.5159374,3.1845
5.5339503,6.70095,4.617,2.4135375,-2.632025,5.5831876
-0.99405,-4.8109503,8.67405,1.4832125,-0.803825,0.4389
-3.18495,-5.826,2.019,-3.2802,1.4521375,-5.4231377
-2.09805,-5.16795,9.94005,-3.0155125,2.629275,-3.9628875
-1.2529501,-1.8190501,17.869951,-0.075075,1.613975,0.3289
-0.762,4.2460504,6.321,1.155825,-0.8823375,1.868075
2.25495,1.8499501,7.281,0.833525,-0.4786375,3.5435126
0.67305005,2.28495,21.207,0.7046875,-1.1848375,4.046625
-0.09,-2.7499502,5.82105,-0.6325,0.2398,-1.9243125
-1.49205,-7.8769503,5.2870502,-1.198175,0.7148625,-5.994175
-2.2800002,-0.201,10.510051,-3.1499875,2.5290375,-4.8206124
-4.73595,2.24895,17.475,1.8981875,-0.436425,2.0964625
3.14295,3.10905,4.638,0.9051625,-0.0972125,2.9882874
5.0869503,1.9020001,7.8430505,0.62425,-0.5047625,5.1524
-1.1359501,-0.69900006,18.435001,0.17325,-0.2308625,2.8078876
-1.10895,-5.01,6.4360504,-1.0261625,0.3535125,-4.384325
-2.73195,-5.5669503,0.279,-2.6152499,1.6330875,-5.9983
-1.79595,-1.31595,15.63195,-2.1736,2.43485,-1.2249875
0.216,0.09,16.386002,1.001825,-1.0828125,1.309825
5.2519503,2.08395,4.8250504,1.2612875,-0.5754375,3.409175
5.8650002,1.45905,11.403001,0.6021125,-0.5333625,5.855025
-0.37005,-2.226,15.739951,-0.2261875,-0.104225,0.6681125
-2.838,-4.9159503,1.1770501,-1.655775,0.67155,-5.2799997
-5.15205,-5.3970003,4.73595,-2.497,1.9743625,-5.33225
-3.9270003,-7.9609504,26.526001,-0.701525,1.34145,-0.067925
3.1219501,3.48705,6.8040004,0.560725,0.245575,1.393975
7.2169504,2.57205,4.48995,1.337875,-2.14445,4.3500876
1.3240501,7.4820004,7.1280003,2.388925,-2.9002874,6.1408873
-0.19695,-4.8640504,8.901,1.32825,-0.86707497,-4.09695
-2.6220002,-4.42995,-0.055050004,-1.2885125,0.55027497,-6.5258875
-3.0960002,-3.624,11.65095,-2.5102,2.2273624,-4.0492373
-2.42295,-4.19595,19.39995,0.4653,0.74593747,1.0351
3.45195,4.617,5.9089503,0.619025,-0.9482,1.5085125
2.799,4.08495,8.48205,1.5758874,-1.9911375,5.63475
-1.33905,0.55200005,14.466001,0.40713748,-0.6870875,3.40395
1.26705,-5.223,6.19605,-0.94765,0.0165,-4.091725
-1.99995,-5.3710504,1.6840501,-2.145,0.6524375,-6.1150374
-4.8510003,-1.04805,11.44095,-2.213475,2.1242375,-1.665675
-4.34595,2.802,13.34895,1.2115124,-0.2627625,1.5027375
6.4420505,3.4510503,10.59105,0.6078875,-0.4371125,3.0569
2.499,0.23400001,15.982051,1.5505875,-0.947925,8.799725
-3.4069502,-3.3820503,15.667951,-0.1681625,0.032175,0.1705
-1.6860001,-5.4619503,1.04295,-0.26895,0.1376375,-6.5604
-3.1729503,-6.7039504,5.5810504,-2.4512124,2.3244374,-4.961
-2.601,-4.41795,17.35305,-1.1094875,1.70885,-0.0919875
-1.6890001,3.3120003,11.362051,1.4012625,-1.3244,1.790525
3.5329502,4.071,8.628,0.345125,-0.7825125,5.4188747
3.5640001,2.9989502,14.3539505,0.1901625,-0.9911,6.326375
-1.7719501,-3.5160003,11.802001,-0.8591,0.175725,-1.2808125
-2.739,-9.084001,4.9159503,-0.7649125,0.7360375,-6.6303873
-4.73295,-6.5389504,11.58195,-0.6078875,0.7473125,-5.9882627
-0.55200005,-1.0530001,22.497002,0.4995375,0.5559125,0.23925
3.8160002,3.5320501,7.1320505,1.5775375,-1.9171625,1.8456625
6.5880003,2.66805,8.99895,-0.046475,-0.6439125,5.03745
-0.98205006,-0.048,19.893002,-0.489775,-0.2699125,5.4932623
-4.602,-2.3479502,2.26605,-0.946,0.2371875,-4.3044376
-2.2410002,-6.70695,4.43205,-1.3509375,0.60513747,-6.7337875
-4.70895,-1.7179501,10.651051,-2.4470875,1.937375,-2.5122626
-0.45600003,-0.33705002,16.101,1.2324125,0.1612875,1.5195125
0.94095004,2.19195,8.86995,0.762575,-1.0385375,2.2804375
4.1269503,2.21295,7.83795,0.810425,-0.726825,4.532825
-2.3830502,-4.5,21.810001,0.9857375,-0.6183375,3.620375
0.522,-5.1049504,6.7540503,-0.837375,0.2470875,-4.5232
-2.89995,-6.2380505,3.21195,-1.4796375,0.082225,-4.7311
-4.20195,-1.6540501,11.484,-2.2713625,2.447225,-1.8110125
0.81405,-1.419,21.511051,1.249875,-0.67375,0.7855375
4.56495,5.3370004,4.9230003,1.322475,-1.1658624,3.6444376
4.35405,0.36105,13.095,1.0982125,-0.8966375,6.1507874
-0.98205006,-2.9179502,14.869051,-0.1639,-0.2638625,-0.203775
-2.22195,-5.01,0.30600002,-1.25235,0.6502375,-5.05505
-4.104,-5.61,3.7020001,-2.9970875,2.227225,-5.8243623
-2.5240502,-1.1920501,16.82205,-0.53735,1.6044875,-0.31033748
1.4479501,2.079,14.3869505,0.81785,-1.0879,0.4079625
4.4290504,2.2110002,9.78195,1.349425,-0.5515125,4.4946
5.0680504,1.8259501,10.972051,1.3697749,-0.8908625,6.436375
1.0699501,-4.18905,12.8220005,-0.44605,-0.1326875,-1.6094375
-2.01405,-5.6580005,2.4840002,-1.7859875,0.649,-4.85155
-3.7810502,-5.8950005,13.14795,-1.493525,1.3083125,-4.03865
-0.03195,-0.67200005,16.788,-0.1518,0.7503375,-0.1051875
2.11605,4.3099504,7.314,1.4796375,-1.2797124,1.8500625
4.11,2.6230502,6.0259504,1.880725,-1.4257375,4.60845
2.6089501,2.5129502,15.015,1.4925625,-1.0252,3.4775126
0.15105,-3.3990002,7.8739505,-0.594275,0.0721875,-1.9801375
-1.4680501,-6.9700503,5.7439504,-1.974775,0.5897375,-4.9289627
-2.196,-6.4740005,17.064001,-2.8677,2.2749374,-3.1321125
-1.53495,-1.01505,20.079,0.4478375,0.55962497,0.15619999
2.77005,3.7069502,8.35095,1.207525,-1.0316625,1.8293
4.8120003,2.7640502,5.7439504,1.5389,-1.04445,4.9020123
-2.01405,1.8739501,19.54095,0.626725,-0.829125,5.3537
-0.264,-3.0970502,5.1670504,-1.138225,0.0724625,-3.4920874
-1.6840501,-6.642,4.38,-2.2287376,0.8597875,-6.4218
-2.7439501,-5.1049504,15.46905,-2.851475,2.3046374,-2.6437125
-0.99405,0.81105006,14.890051,0.8009375,0.278575,0.8707875
1.91805,2.022,10.054951,1.3800875,-0.98614997,1.9383374
3.18405,1.7560501,7.5940504,0.575575,-0.5814875,4.4002748
-1.79595,4.203,12.288,0.558525,-0.3708375,3.3169124
-0.54,-2.0010002,7.7380505,-0.1607375,-0.1681625,-3.1378875
-1.9710001,-4.6650004,1.0020001,-0.3823875,0.16005,-4.952475
-2.163,-6.7780504,14.574,-1.90355,0.9959125,-2.273975
-2.3370001,-5.08605,20.350052,0.1403875,0.61105,0.504075
0.58395004,2.33295,9.37005,0.4742375,-1.075525,0.8732625
4.60995,0.51195,7.7310004,0.928675,-1.385725,4.14535
2.1690001,5.36595,8.01795,1.2255375,-1.41955,5.1596875
-0.42000002,-1.9939501,8.037001,0.69025,0.61985,-0.9238625
-1.9950001,-4.4710503,3.55095,-0.347875,-0.1727,-3.161675
-2.08095,-5.2200003,7.932,-0.6917625,0.5201625,-1.4683625
-3.5700002,-5.11005,20.62305,-0.2501125,0.9504,-0.154825
3.83505,2.2759502,10.404,0.5357,-0.9673125,0.8199125
5.3430004,1.2220501,0.70995003,0.458425,-1.8249,2.4453
5.3310003,2.8840501,10.56,0.814,-0.7145875,5.0054126
0.08400001,-0.13395001,16.707,1.7300249,-0.2567125,1.2640375
-1.16205,-2.2039502,7.4700003,-0.421575,1.1559625,-2.651
-3.58695,-2.7640502,6.47205,-1.196525,1.261975,-2.1770375
-1.43505,-1.4670001,11.187,-1.25235,1.6729625,-1.32825
-1.7719501,-0.94500005,12.05595,-0.3245,-0.7264125,0.358325
2.6839502,-0.44700003,2.94105,-0.4987125,-1.1820875,3.6650624
4.728,6.59595,13.52595,-0.2908125,-1.9008,9.757
-0.19005,-2.1660001,11.785951,1.0962875,-1.433575,3.9722376
-1.1520001,-1.9939501,3.5659502,-0.2607,0.392425,2.8254874
-1.55505,-3.82995,8.06295,-0.5960625,0.65174997,2.72085
-3.4620001,-2.04405,14.068951,-0.7429125,1.2288375,2.2562375
1.3549501,-1.383,20.532001,-0.2930125,1.6814874,3.7763
3.9570003,2.4769502,4.7580004,0.3553,-1.36235,2.4022624
3.5719502,4.32495,7.209,0.9174,-1.79025,1.296075
-0.06105,4.33395,13.89,0.936375,-0.5374875,1.00595
-2.6239502,-2.43195,3.62595,0.253,1.0954624,2.4446125
-4.839,0.73905003,-1.6470001,-0.9651125,1.6542625,3.100625
-1.2070501,1.05495,9.097051,-1.1072875,0.3562625,6.08355
1.21905,-4.53105,20.223001,0.7475875,-0.8856375,-2.378475
4.464,0.47100002,6.3469505,0.3548875,-1.3409,-4.1980124
3.8130002,2.05095,10.36095,0.21395,-1.615625,-2.570425
-2.3059502,3.0250502,10.371,0.5115,-0.6171,-0.5072375
-3.2970002,-2.5489502,2.21295,0.477675,1.0753875,1.03345
-1.8370501,-3.5449502,1.7370001,-1.7936875,1.2519375,3.0003874
-2.3850002,-4.05,15.274951,-1.840575,0.67705,2.134
-0.98505,0.96405005,11.29695,0.8603375,1.023825,-1.0154375
4.24695,2.59905,7.386,2.3431375,0.1584,-3.7486625
8.46405,-0.06705,16.50105,1.76275,-2.0274374,-1.765775
0.71595,-0.342,12.669001,1.0165375,-1.066175,0.1931875
-2.5429502,-4.5210004,0.25500003,-0.3073125,0.3763375,2.364175
-2.66805,-6.69705,7.1059504,-2.7416124,0.980925,5.1294374
2.7889502,-2.3449502,21.087002,-1.26885,0.1975875,3.0650125
2.15205,0.112050004,13.465951,2.3472624,0.1079375,-3.134175
5.0410504,2.6509502,10.00695,1.5835875,-1.1680624,-3.47985
5.32095,0.85605,14.239051,1.1317625,-1.142625,-2.4195874
0.16305001,-2.1660001,13.750951,0.1021625,0.3169375,-0.4877125
-0.68805003,-6.22305,5.7460504,-0.873675,0.974875,1.9828875
-1.84695,-6.85305,6.5530505,-2.4347124,0.306075,3.179825
0.20595,0.98805004,14.083051,-1.2247125,0.5490375,2.0702
2.6209502,-1.1890501,14.188951,2.1278124,0.4096125,-1.79905
6.3120003,3.147,7.3330503,1.543025,-0.6914875,-2.8483124
3.1579502,3.2430003,8.580001,1.5140125,-2.3953874,-2.2911625
1.6140001,-5.4360003,15.64395,0.1579875,0.2855875,-0.517825
-1.2859501,-4.84005,1.8760501,-1.5125,0.5935875,2.75715
-0.66405004,-5.08605,6.56295,-2.0277126,0.352,2.7993624
-1.03995,-1.51995,12.097051,-0.864325,0.3064875,1.6798375
2.3080502,2.5530002,10.31295,1.6014625,0.852775,-1.482525
5.4150004,2.05995,2.2780502,1.7128375,-0.848375,-2.9148624
1.5990001,0.98295003,13.996951,1.412675,-2.2495,-1.0901
-0.11805001,-2.07495,9.861,0.3257375,0.5533,-0.0196625
-1.251,-8.33205,9.14805,-1.09505,1.112375,1.7186124
-5.5609503,-4.1929502,15.337951,-2.790975,0.7469,2.4904
-1.8030001,0.112050004,14.847001,1.154175,1.0346875,-0.2729375
1.5300001,4.5040503,5.8660502,1.945075,0.04235,-2.0840874
3.3390002,2.87205,4.497,2.30945,-1.2827375,-2.629275
-2.53095,0.126,13.120951,1.03565,-1.868075,-0.678975
-2.457,-4.31295,2.0310001,-1.1510125,1.172875,0.96195
-2.3160002,-4.18095,2.3119502,-2.21815,0.6994625,2.66805
-5.2260003,-2.7499502,7.6519504,-2.521475,0.485925,2.0152
-1.71,-2.1319501,13.135951,0.59675,0.5270375,0.0793375
3.79905,5.1340504,4.9450502,2.001725,-0.1574375,-2.5328875
2.9490001,0.054,5.931,2.3399749,-1.4359125,-3.0735376
1.09905,-2.0700002,18.636002,0.4764375,-1.0668625,-0.5017375
-1.9930501,-5.6509504,2.56305,-0.242275,0.5366625,1.8104625
-3.1369503,-4.734,4.6480503,-2.583625,0.45787498,4.502025
-0.61395,1.74705,11.316001,-1.3957624,0.4158,2.3260875
0.23505001,1.58895,11.604,2.1555874,-0.0193875,-2.0059874
6.12795,4.42995,7.4869504,2.2653124,-0.4411,-3.366
2.8890002,3.9109502,13.665001,1.6440874,-2.3332374,-1.93325
-1.5829501,-1.9960501,12.310051,0.13365,0.760375,0.4602125
-2.09505,-5.53905,1.2100501,-1.14675,1.1545875,2.616625
-1.4440501,-5.0599504,10.665001,-2.2067375,0.773025,3.8608625
-0.34800002,-3.86295,19.858952,-0.0039875,0.5245625,0.4609
-0.20505,0.82005006,13.36995,1.6185125,-0.00825,-2.2303874
4.32795,5.27505,6.78,2.134825,-0.4800125,-3.235925
2.74095,2.23005,19.56195,2.31165,-2.4661999,-2.15545
-1.11195,-3.6910503,15.864,0.034925,0.5080625,0.350625
-3.1939502,-4.1740503,-0.20805001,-1.576025,1.0888625,2.240975
-3.8740501,-6.951,8.37495,-2.7479374,1.052425,3.3081124
2.49705,-1.4170501,20.059952,-1.48335,0.68035,1.864775
1.2570001,-0.85905004,14.383051,2.4948,-0.553575,-3.2921624
4.63905,2.1319501,5.505,0.9211125,-1.23915,-2.263525
2.6260502,2.3740501,13.066051,0.8844,-1.6600375,-1.5346375
1.33095,-2.673,9.50895,0.1683,0.6743,0.265925
0.51000005,-6.6010504,3.1300502,-0.76945,0.615725,2.3516624
-7.0980005,-3.219,9.50205,-2.69005,-0.2809125,3.6895375
-4.02495,-2.94405,24.414001,0.712525,1.31835,1.356025
4.65105,5.11905,2.9290502,2.1415625,0.5174125,-3.4205875
5.29005,2.1990001,2.6869502,2.423575,-1.72425,-3.9644
-1.9660501,-2.7640502,27.538052,0.8916875,-1.43715,-0.6615125
0.031050002,-3.7150502,3.4680002,-0.6241125,1.8915875,1.398925
-1.866,-6.3090005,5.80095,-2.1124125,0.7676625,3.1120374
-5.27895,-0.90000004,11.505,-2.7544,0.48675,3.22465
-0.078,-1.9890001,17.011051,1.6325375,0.77605,-0.358875
4.5940504,4.0300503,7.2760506,1.45145,0.2514875,-3.154525
4.09305,2.4499502,6.25605,1.8957125,-1.50755,-2.89465
-1.9039501,-0.61995006,14.605051,0.4731375,-0.6351125,-0.2794
-1.42005,-2.8939502,2.043,-0.4855125,0.4684625,1.6348749
-2.95005,-4.66995,3.48705,-1.8591375,0.5979875,2.728825
-4.839,-2.9580002,17.647951,-1.68355,1.0379875,2.5067625
1.36695,3.2359502,12.726001,1.4551625,1.1642125,-0.9970125
3.41805,1.9050001,9.50895,2.0843625,-0.8460375,-3.986125
4.8949504,0.33195,16.42395,1.0616375,-1.73195,-1.1760375
0.015000001,-2.19495,11.359051,-0.023375,-0.2660625,0.6936875
-2.5480502,-6.46995,1.74705,-0.55715,0.333025,2.124925
-4.53195,-7.21395,11.75895,-2.8479,0.374275,4.45115
-1.2790501,0.95205003,16.788,0.48675,0.637725,1.1479875
3.99795,2.84805,7.86705,3.1389875,0.4052125,-2.8395126
5.31405,2.15595,9.76305,2.112,-1.6655375,-3.3782375
3.2719502,1.3369501,14.526001,0.7506125,-1.6432625,-1.2001
0.01695,-2.01495,9.727051,-0.4115375,0.7761875,0.660825
-1.4680501,-6.1470003,0.564,-0.9174,0.39545,2.1076
-2.2060502,-6.49095,15.349951,-3.62395,-0.25025,4.554825
-2.1360002,-2.436,22.69605,0.5434,0.654225,2.0431125
2.7199502,5.8710003,5.433,2.6376624,0.1667875,-2.5122626
4.8,1.8829501,3.9820502,2.307525,-1.31945,-4.5755873
-0.372,1.77795,19.704,0.85085,-2.05645,-1.1451
-1.31295,-2.91,6.7879505,-1.044175,1.384075,1.7700375
-2.043,-6.05595,-1.0360501,-0.1623875,0.4873,2.9544625
-1.1910001,-2.9340003,13.417951,-3.5308626,0.25135,4.4972124
-0.92700005,-0.46395,19.816051,2.9398875,0.85855,-1.473725
2.6089501,5.433,3.966,1.7908,-0.2244,-3.3870375
2.22405,0.025950002,8.85105,1.556775,-1.51195,-3.206225
-1.9590001,-0.63900006,18.60705,-0.1117875,-0.924275,-0.251075
-0.252,-4.122,2.637,-1.191025,1.3303125,1.62745
-1.66005,-5.46705,4.827,-2.229425,0.5273125,3.0938876
-2.9670002,-0.162,10.359,-2.46455,0.27115,2.9844375
-0.76695,0.708,13.462951,1.9619875,0.6725125,-1.920875
4.3710003,4.854,4.59,1.7975374,0.117837496,-3.5022626
2.07795,-1.12905,15.133951,1.382975,-1.46025,-1.8657374
0.47205,-3.6019502,18.184052,-0.3227125,-0.0419375,0.666325
-2.0310001,-4.866,1.5000001,-0.88577497,0.4439875,1.9663875
-5.4559503,-4.3369503,0.63105005,-2.2396,0.4434375,3.4736624
-0.37695003,-2.01495,18.189001,-0.89595,0.7951625,2.3007874
0.64395005,3.20895,13.090051,2.0686874,0.3559875,-1.9481
4.66305,0.36795002,9.516001,2.3516624,-0.3961375,-3.6730375
4.098,0.56700003,14.272951,0.7568,-1.934625,-1.3162875
1.2019501,-4.7970004,14.055,0.014162499,0.6507875,0.6923125
-2.64105,-4.20795,4.341,-1.0806125,0.4200625,2.0713
-4.164,-4.9740005,6.35895,-1.7997375,0.5677375,2.5606625
-3.25395,-3.7890003,18.562052,-0.2629,0.888525,1.3619375
2.9970002,2.7880502,9.50895,1.3476375,0.4280375,-1.1534874
4.479,2.35695,6.3829503,2.3122,-0.8754625,-3.6832125
0.30900002,0.30600002,15.522,0.963325,-1.8302625,-0.7951625
0.13005,-2.48895,12.469951,-0.0757625,0.5891875,0.436975
-2.05995,-7.00605,7.1710505,-1.0608125,0.3658875,2.0238626
-6.459,-5.16795,12.8220005,-2.449425,0.3018125,1.0016875
-1.0350001,1.6510501,13.176001,0.7660125,1.197625,0.298375
1.3050001,2.42895,5.18895,1.9746375,-0.2987875,-1.683825
5.2039504,0.14805001,10.254001,1.7791125,-1.0784125,-2.1971126
5.4529505,2.352,8.887051,0.3377,-1.7070625,-0.69685
3.9210002,-3.2220001,7.4670005,0.0207625,0.6345625,0.51713747
-1.54305,-4.56705,6.768,-1.159125,-1.375E-4,1.4672625
-4.52505,-4.17705,11.199,-1.7771875,1.029875,1.6055875
-3.01005,-3.7699502,16.503,-0.1739375,1.468225,0.805475
4.11705,1.9930501,6.7759504,1.0250624,0.1351625,-1.4542
3.76095,2.3040001,4.329,1.6358374,-1.142625,-2.6382124
-3.0580502,1.45905,11.781,1.458325,-1.4566749,-1.2412125
-0.88005006,-1.77795,3.11595,-0.669075,1.37555,1.4364625
-1.3270501,-5.42805,5.0950503,-1.6015999,0.539825,2.2963874
-2.2030501,-5.4880505,14.31105,-1.578775,0.2110625,2.3150876
1.18305,-2.80995,12.19005,0.8680375,0.359425,0.5996375
3.4999502,3.5749502,4.56195,1.56145,-0.06765,-1.7947875
5.556,2.8860002,4.0800004,2.138125,-1.7378625,-3.111625
-0.29505002,-0.59295005,21.114,1.3960375,-1.877425,-1.1576124
-0.28095,-3.97305,2.1769502,-0.5039375,1.2398375,1.618375
-2.2030501,-4.43505,4.044,-2.15325,1.0362,4.1740875
-1.9060501,3.453,10.191001,-1.57025,0.837375,2.72415
0.93600005,-2.36505,15.022051,2.149125,0.4835875,-1.5761625
4.701,4.97805,6.8209505,0.6307125,0.0666875,-2.8087125
4.0669503,4.44,7.9819503,0.5820375,-1.1380875,-3.0449374
2.05905,-3.0199502,13.765051,0.019524999,-0.3982,-0.5429875
-1.899,-6.0480003,7.08195,-1.3776125,0.3447125,2.2632499
-5.2909503,-4.01595,2.08905,-2.4652374,0.29273748,3.1449
-0.46800002,-2.1679502,16.03395,-1.140975,0.869,2.558875
0.61995006,2.7229502,7.6780505,1.5092,0.249975,-2.3482249
5.2930503,2.6749501,11.13,1.8326,-0.38555,-3.3878624
3.65805,0.84195006,14.550001,1.1650375,-1.459425,-1.715175
0.55995005,-3.55395,12.475051,0.1892,0.7475875,0.7385125
-1.9090501,-5.352,1.9879501,-0.8677625,0.5424375,2.7489
-4.88595,-6.0270004,11.92905,-2.5365999,0.152625,4.0266876
0.252,-4.0620003,20.403002,-0.7134875,0.379775,1.873575
3.045,4.1140504,7.5610504,1.5912875,-0.098175,-2.6181376
2.5519502,4.2670503,8.78205,2.1764874,-0.058575,-5.1228375
-0.90300006,2.838,16.281,-0.093637496,-0.5608625,-2.3604624
0.18495001,-1.8330001,7.7980504,-0.3729,1.261975,1.4598374
-1.4059501,-8.0779505,4.617,-0.9493,0.592625,2.81215
-2.5770001,-2.46,15.832951,-3.5910876,-0.0682,4.1520877
-0.022950001,-4.60305,27.507002,2.11585,0.924,0.734525
0.192,4.12395,5.63595,2.0128624,-0.3537875,-2.8089874
3.8850002,3.38595,3.9180002,1.910975,-0.7624375,-3.2951875
1.8600001,6.3780003,10.48305,0.7866375,-1.8931,-0.9791375
-1.42005,-0.55995005,8.7619505,0.0847,0.9381625,0.2358125
-2.115,-5.41905,3.3100502,-0.887975,1.2868625,2.0774875
-2.5930502,-4.32,11.805,-3.377825,0.366575,3.509
-1.8700501,-3.9250503,25.675951,0.90337497,0.8875625,1.33155
1.2910501,2.87595,6.5890503,1.2782,-0.2616625,-1.6124625
4.2109504,1.3759501,8.14005,1.7081625,-0.901175,-2.7006376
4.1130004,6.867,11.52,0.62315,-2.2209,-0.9191875
0.606,-3.0730503,13.441951,1.2266375,0.41085,-0.8866
0.15795001,-4.122,7.79505,-1.004025,1.4509,2.5828
-3.08205,-5.2849503,2.52495,-2.161225,0.4057625,3.064325
-4.98,-1.9120501,16.353,-0.7343875,0.3922875,4.1283
0.46905002,2.046,15.261001,1.2816375,-0.455675,0.1098625
0.62700003,1.7389501,4.20195,1.6058625,-0.80685,-2.1014125
3.8160002,-1.146,12.669001,0.9513625,-0.7371375,-0.8316
-2.232,-3.5020502,21.39405,0.5075125,-0.934725,0.8204625
-0.53505003,-2.97,7.34805,-0.61435,0.5938625,3.013175
-0.55200005,-2.9890501,2.259,-0.6650875,0.0567875,2.33695
-1.31295,-1.5340501,17.98995,-1.793,0.42061248,1.5932125
-1.12605,1.7560501,16.65195,1.148675,0.0985875,1.332375
2.63805,0.966,10.299001,1.4755125,-0.3498,0.8625375
1.7170501,1.4260501,5.7010503,0.882475,-1.4480125,0.0782375
-1.3630501,-2.70705,26.31495,1.2381876,-0.4918375,2.4613874
-1.011,-1.5079501,3.7740002,-0.6859875,-0.0039875,1.067825
-1.9900501,-5.031,5.004,-1.0808874,0.5379,0.12925
-7.038,-0.67200005,9.397051,-2.3621125,0.8597875,-0.0570625
-1.00605,-0.45900002,19.93095,0.67347497,1.0330375,1.6669124
3.426,5.7630005,5.45205,0.9794125,-0.4082375,1.3503875
1.932,2.1030002,5.493,1.80235,-1.040325,4.0079875
-1.0180501,1.12695,16.108051,0.0149875,-0.1918125,2.0372
0.90300006,-2.01,9.385051,-0.9879375,0.5798375,-1.78475
-1.7580001,-4.41405,1.455,-1.1132,0.0895125,-2.38205
-3.4099503,-2.45295,10.219951,-2.2433126,1.0932626,-1.9542875
-1.14495,-0.52905005,16.62105,0.015675,0.5688375,0.6934125
1.7760001,4.48005,4.4490004,0.698225,-1.0206625,2.3947
2.1450002,2.391,10.58895,1.9914125,-1.1697125,5.6233373
-0.56595004,1.77495,18.636002,0.575575,-0.65793747,2.6943126
0.735,-2.9200501,6.405,-0.6842,0.20927499,-2.9365876
-2.529,-4.1860504,0.75795,-1.0685124,0.359975,-4.7023625
-2.9479501,-4.9090505,16.149,-2.0725374,1.838375,-3.1086
-1.64295,-4.03095,23.81805,0.38445,0.4134625,0.82005
2.5849502,4.48995,5.004,0.4338125,-0.93445,2.277
3.4300501,1.4089501,8.0130005,1.5581499,-1.4015375,5.6502876
1.815,3.8220003,10.653001,0.6389625,-1.302675,3.50735
1.6660501,-2.3119502,6.19395,-0.223025,0.506,-2.4908125
-2.9910002,-5.74905,5.0209503,-1.708025,0.291775,-4.71845
-3.2400002,-4.428,12.385951,-2.6453624,1.9234875,-3.3924
-0.18105,-1.9579501,17.491951,-0.3993,0.742775,0.0308
3.4300501,3.8910003,6.0859504,1.0038875,-1.3855875,2.0546625
2.571,2.05095,7.7590504,2.3522124,-1.5582875,5.5650373
-2.253,0.45195,13.135951,1.0102125,-0.8575875,2.3989625
1.128,-3.183,10.6050005,-0.66055,0.2145,-2.210175
-0.657,-5.39295,4.9009504,-1.8794875,0.7684875,-4.8013625
-4.2780004,-3.2980502,13.32495,-2.1759374,1.8200874,-2.406525
-1.2360001,-2.6260502,19.108051,0.28985,0.8954,1.3963125
4.5550504,3.66195,7.044,0.7184375,-1.415975,3.1365125
2.94705,0.95895004,8.86305,0.8745,-1.5939,5.9577374
-2.5120502,-1.572,15.831,0.0922625,-0.7189875,1.087075
-0.98700005,-4.026,3.5989501,-0.0493625,0.44027498,-5.7006125
-2.502,-3.0970502,2.4139502,-1.833975,1.4070375,-4.5805373
-5.2000504,-3.2929502,17.458052,-1.214125,1.6951,-0.7143125
-0.049050003,0.59505004,12.1369505,0.419375,-0.0438625,1.7510625
2.53305,4.06605,7.4749503,0.9994875,-1.585925,4.4452376
3.18405,-0.043050002,16.636951,1.682725,-1.3717,5.786
-1.164,-3.01095,14.088,-0.8503,0.1874125,-2.0207
-4.4220004,-1.79295,4.01595,-1.1589875,0.39765,-4.7157
-3.6870003,-2.982,4.3819504,-0.726,1.5035625,-3.04755
-0.034950003,-2.91,13.806001,-0.980925,0.882475,-1.8041375
0.16995001,0.028050002,18.021,0.2717,-0.848375,0.852775
3.1669502,3.97005,12.760051,1.29635,-1.511125,5.03305
2.77005,2.4120002,13.449,1.4125375,-1.1724625,5.2075377
0.54405004,-4.4089503,14.707951,0.1351625,-0.284075,-1.6550875
-2.055,-6.87195,4.1070004,-1.7458375,0.447975,-5.10125
-2.6509502,-7.0470004,5.4040504,-2.8582125,2.3821876,-5.62045
-3.2989502,-5.04495,27.847052,-0.478225,1.4652,0.3078625
1.41495,4.09005,11.022,1.5071375,-1.3305875,1.937375
2.7150002,4.815,5.4349504,0.8551125,-0.9845,6.3195
1.3480501,1.40205,12.549001,-0.3795,-0.7701375,6.232325
0.70905006,-3.0229502,10.681951,-1.8073,0.55715,-2.4435124
-2.5429502,-6.76905,5.5690503,-0.9205625,0.5049,-4.8450875
-4.20405,-4.3489504,3.7690501,-1.9951249,2.0092876,-5.9268
-2.4499502,-4.7320504,22.420052,-0.454025,1.4694625,-0.246125
-0.80505,6.8479505,12.441001,1.0679625,-1.403325,1.61425
1.8960001,1.78005,11.814,1.191025,-1.324125,6.6089373
1.9459502,-0.15795001,17.40105,0.098725,-0.7624375,4.2592
0.12495001,-5.1340504,13.732051,-0.25135,-0.090475,-2.4096875
-1.7359501,-4.87995,1.07595,-1.17205,0.634975,-5.5284624
-4.9440002,-4.7970004,3.2400002,-2.314675,1.7314,-4.9460125
-2.802,-1.31895,20.37405,-0.1750375,1.641475,0.747175
1.9099501,2.769,7.965,0.76725,-1.082675,2.187625
5.38605,3.1249502,5.6670003,0.952325,-1.45365,4.5815
3.5449502,1.1389501,11.008051,1.68135,-1.7281,5.6010623
-1.1209501,-2.2039502,11.326051,-1.4221625,0.23155,-2.81765
-2.3130002,-4.1860504,2.97195,-1.565025,0.9933,-4.7339873
-4.93905,-2.52705,4.7790003,-1.89585,1.971475,-4.339775
-4.6729503,-4.5160503,16.20705,-0.471075,1.5015,-0.414975
3.04305,4.827,7.518,0.6862625,-0.6114625,1.252075
5.046,1.866,8.82705,1.454475,-2.157925,6.2365875
-0.71205,1.1149501,13.035001,0.4818,-1.1046749,4.9713125
1.3740001,-2.2350001,6.2320504,-1.5291375,0.9048875,-4.1518126
-2.2800002,-4.4539504,6.5839505,-1.5588375,0.5894625,-5.04185
-5.4300003,-1.5480001,11.175,-0.68585,1.9600625,-3.015925
-2.53605,-1.39995,17.75505,0.6359375,0.5352875,0.069299996
2.9899502,5.964,5.18895,1.0124125,-0.16499999,1.48225
4.4760003,1.74405,6.22695,2.0664876,-1.341175,6.5063624
-2.8180501,-1.26405,21.382051,0.2814625,-0.2167,3.5221999
-0.59505004,-1.9099501,4.2379503,-1.256475,0.59345,-3.3963876
-2.397,-4.947,4.7580004,-0.99935,0.62315,-3.8916626
-6.2920504,-2.697,17.061,-2.047375,1.9786249,-2.9074376
-1.41795,-0.78195006,16.906052,0.5693875,0.52442497,0.6782875
2.0730002,4.05705,5.7180004,0.89925,-0.8265125,2.6006749
2.325,3.07995,4.21395,0.27995,-0.357775,5.1486874
0.45000002,0.56700003,17.54895,0.2352625,-0.80685,2.4205499
0.27795002,-4.0279503,4.59495,-0.3925625,0.0683375,-2.964225
-1.46595,-4.27995,2.1100502,-1.6328125,1.0440375,-4.5199
-1.23405,-0.51900005,11.97,-2.2185626,1.9921,-2.3687124
-0.324,-0.22905001,15.397951,1.05325,-0.175175,0.8941625
3.624,2.62995,5.11695,0.23773749,-0.066825,3.0921
2.32905,0.95205003,10.366051,0.956725,-0.987525,5.7275624
-3.2280002,-3.8490002,21.303001,-0.4662625,-0.633875,2.3989625
0.48600003,-2.2740002,3.3600001,-1.1119624,0.1804,-5.110325
-1.07805,-4.7200503,5.2650003,-0.51535,0.2662,-3.8896
-1.8540001,-1.2900001,17.619001,-1.02575,1.4986125,-1.1301125
-0.46305,-0.34905002,13.012951,1.0489875,0.0273625,1.3330625
2.9680502,2.1370502,5.754,0.760375,-0.104225,1.8588625
1.45305,1.5619501,11.302051,0.869,-0.2190375,4.7466373
-2.6839502,-4.7320504,21.382051,0.583825,-0.20019999,1.8269625
-1.1689501,-3.0180001,3.8479502,-1.5324374,0.6703125,-4.4298377
-0.90105003,-2.3500502,-0.33195,-1.5109875,1.0341375,-3.28955
-3.5170503,1.005,9.40095,-1.60325,1.84855,-1.2929125
-0.82905006,-3.0990002,22.353,1.063425,0.1087625,1.6256624
3.9280503,4.31505,6.9,0.477125,-1.343925,2.338875
3.3780003,-2.094,15.450001,1.52075,-1.037575,6.548575
-3.99795,0.29595003,15.871051,-0.4299625,-0.79873747,1.37115
-2.91405,-3.7740002,1.32105,0.0672375,-0.3859625,-4.6149125
-2.21295,-5.4949503,-2.0340002,-0.32175,0.4912875,-5.4643874
0.22305001,-3.5110502,21.537,-2.1544874,2.10485,-2.237675
1.6660501,-0.15300001,12.4800005,0.7943375,-1.2211375,1.9883875
5.0410504,3.5160003,5.2840505,1.040325,-1.7518874,3.9582124
4.4620504,1.55295,13.606951,2.288275,-1.8030375,6.583637
-1.15995,-4.40595,12.622951,0.38995,0.0221375,-0.6719625
-1.45905,-6.0529504,5.8969502,-1.451175,0.94682497,-6.2495127
-5.0010004,-6.7380004,4.6480503,-2.4646876,1.8022125,-5.2399874
-1.4760001,2.6850002,11.635051,-0.7566625,1.37225,-0.56045
2.73105,4.092,12.793051,1.7791125,-1.0954624,1.9881124
2.0680501,3.0870001,9.259951,1.9537375,-1.8271,5.6769624
3.7009501,2.84295,12.973051,1.734425,-0.7429125,4.1952624
-2.0740502,-2.57505,7.2829504,-0.9013125,-0.20735,-2.0725374
-2.0070002,-6.7380004,5.68695,-1.9746375,0.46365,-5.7956247
-1.6020001,-7.6429505,15.523951,-2.0818875,1.552375,-4.1454873
-0.99000007,-2.1420002,21.72405,-0.171875,1.04775,0.2162875
5.18505,3.55095,9.250951,0.8823375,-1.60875,1.112925
5.18295,3.2040002,10.086,1.1174625,-1.53505,7.2853
-2.6800501,-3.1350002,32.15295,0.5311625,-0.286275,3.6683624
0.52905005,-3.5419502,4.0729504,-0.63414997,0.093637496,-5.4518747
-2.63205,-3.6139503,-1.5700501,-1.634325,0.643775,-5.30035
-3.0960002,-3.1549501,3.6520503,-2.8175125,2.211825,-3.2707124
-4.48005,-1.7370001,20.388,-0.1167375,0.583275,0.0171875
-0.58005005,4.5760503,5.952,1.9218374,-0.9493,2.6800125
9.352051,2.8530002,4.32705,1.2247125,-1.7021124,4.6985126
-3.18495,4.6309505,10.71105,2.2576125,-3.039575,7.5105247
-1.27695,-2.7600002,7.4410505,-0.2883375,0.117837496,-4.1331124
-3.285,-5.44995,3.0700502,-1.3041875,0.7893875,-5.495325
-3.0859501,-6.6210003,11.965051,-1.83315,2.1872125,-4.2274375
-2.87805,-1.9030501,17.04705,0.401775,0.723525,-0.1948375
1.6279501,4.839,6.71295,1.4293125,-0.8017625,1.7472125
3.696,2.42205,5.8039503,1.5684625,-1.494075,4.4716372
1.91805,1.167,16.240051,0.77494997,-0.6375875,3.1161625
0.39795002,-2.973,5.6200504,-0.8149625,-0.0715,-1.97175
-1.7200501,-7.8460503,7.518,-2.263525,0.6386875,-5.5653124
-4.09695,-5.1480002,15.574951,-2.5018125,1.5037,-2.7467
-0.11100001,0.43005002,13.750951,0.6881875,0.09625,1.072225
4.30905,4.68795,6.8380504,1.435775,-1.326875,2.7592125
3.8880002,2.5170002,7.86705,2.126025,-1.1323125,7.2573876
-2.1409502,0.124050006,15.996,1.116775,-0.9296375,2.961475
-1.7580001,-3.7240503,7.6830006,-0.7291625,0.099825,-4.1817875
-2.601,-6.0870004,3.7810502,-0.433675,0.3317875,-6.0209875
-5.1709504,-0.70305,11.079,-2.3145375,2.122175,-2.7429874
0.261,0.45405003,16.62795,1.013925,0.1929125,0.96854997
3.4780502,6.1800003,4.00605,1.7010125,-0.54408747,4.0522623
4.275,0.010950001,14.407051,1.01255,-0.410025,7.2070622
-1.6620001,-3.3030002,17.748001,-0.5522,-0.489775,1.055175
-2.97195,-5.2990503,0.91605,-1.183875,0.8251375,-5.759875
-4.36695,-5.3419504,0.77205,-0.989725,1.280125,-5.1689
-2.778,-0.55005,18.598051,-1.1083875,1.030425,-1.1829125
1.4460001,3.3769503,13.119,1.8313625,-1.528175,1.8951625
4.6660504,3.252,9.31995,0.1535875,-0.7720625,6.0047626
4.17495,-2.3770502,16.306952,0.8999375,-0.6683875,6.8575373
-1.9710001,-3.219,13.594951,-0.2041875,-0.4197875,-4.9308877
-0.98505,-5.2819505,1.6030501,-0.67553747,0.310475,-5.9673624
-3.9049501,-5.2270503,5.33895,-2.1888626,1.4117125,-3.81975
-5.00895,-3.24795,22.708052,0.0988625,1.1320375,0.5735125
2.559,1.9069501,10.10805,0.915475,-0.769175,1.358225
5.6659503,3.042,7.00995,1.0789624,-2.0013125,3.3420749
2.33205,0.76305,16.483952,1.7962999,-1.6611375,6.4856
-0.70995003,-2.8240502,8.178,-1.1279125,0.29479998,-3.5465374
-2.87805,-5.2969503,2.4049501,-1.5063125,0.94875,-5.9536123
-5.631,-5.4550505,17.229,-2.36775,2.000075,-2.8410249
-4.5030003,-1.524,19.452002,0.2729375,0.6961625,0.7170625
1.9249501,4.6260004,5.655,0.9422875,-0.98408747,2.02785
4.563,1.7869501,2.6920502,1.22595,-1.0709875,5.269275
0.52695,4.96395,8.752951,0.6089875,-0.6065125,4.0891123
-0.46995002,-1.4430001,7.9680004,-0.776875,0.73974997,-4.4973497
-3.79695,-4.9399505,1.8210001,-0.984225,0.4448125,-4.7840376
-4.63005,-5.74695,12.666,-1.983025,2.0831249,-2.2317624
-1.899,-3.9199502,24.94305,0.190025,0.573375,0.33261248
2.631,2.87205,6.43305,0.810975,-1.4738625,1.49985
3.41595,2.4430501,7.73505,1.3363625,-1.6754375,5.3877997
-5.157,5.2369504,12.39795,0.3680875,-0.596475,5.1220126
-0.066,-2.32605,5.8230004,-1.0036125,1.3715625,-3.38305
-2.043,-4.3180504,0.26295,-1.0538,0.7305375,-3.846975
-0.90300006,-4.215,12.898951,-1.3377374,2.142525,-2.6312
-2.00895,-0.141,19.456951,0.058025,-0.03795,-0.2721125
1.3960501,3.798,7.08405,0.8914125,0.0257125,3.1961875
5.412,1.6200001,3.252,0.8001125,-0.5894625,4.6751375
1.1230501,3.2910001,18.291,0.545875,-1.2330999,2.680975
0.726,-4.1290503,4.15905,-0.350075,0.445225,-2.4888875
-0.022950001,-5.7180004,0.61905,-1.7408875,0.8771125,-2.8037624
-5.052,-0.98595005,9.021001,-3.127025,1.6740625,-2.4498374
0.24705002,-1.81605,22.51905,0.5091625,0.718575,1.353825
3.009,5.80905,0.87105006,0.870375,-1.29855,2.1938124
3.6460502,6.06195,2.76195,2.3046374,-1.67145,4.290825
-2.7919502,-2.1370502,30.625952,2.1594374,-1.0506375,2.4684
-0.81495005,-4.2769504,5.1340504,-3.009325,0.940225,-3.0578625
-2.6940002,-5.18895,0.86595005,-2.3956625,1.047475,-3.2613626
-3.7570503,0.20805001,7.1610003,-2.7424376,2.9214625,-3.4672
0.54795,-1.065,23.376001,1.17315,-0.1095875,2.573725
4.0219502,3.4819503,1.5670501,0.7643625,-1.7276875,4.59855
1.7209501,3.0559502,0.09705,0.6078875,-1.6820375,5.4373
-0.57105005,5.3110504,20.343,0.8492,-1.11815,2.8098125
-0.31500003,-0.96000004,9.279,-0.5951,0.6793875,-1.7648125
-3.4740002,-2.83905,-1.0309501,-1.221825,0.324225,-3.16085
-3.903,-2.214,9.688951,-1.2414875,2.7828624,-7.393375
-4.75995,-3.459,27.586052,-0.2784375,1.37665,-1.1207625
4.0410004,3.111,5.5480504,-0.6523,-1.9760125,5.6414876
4.4500504,0.25500003,3.1900501,0.42061248,-1.0417,7.5603
-0.10605001,2.6899502,21.32205,0.487025,-1.8733,5.1387873
-1.07595,0.18105,10.620001,-0.313775,0.8421875,-0.3070375
-2.22,-2.6140501,-1.5270001,-0.3152875,0.8102875,-0.4978875
-4.86495,-1.74495,3.0919502,-0.9691,2.7974374,-10.303975
-2.25795,-5.71605,23.542952,-0.3949,2.320725,-3.46885
1.00605,1.6099501,12.910951,-1.5478375,-2.48655,8.166675
4.6459503,1.3590001,2.5129502,-0.269225,-1.7116,8.935713
2.70495,-1.3879501,17.427,0.8023125,-2.05755,3.8171375
0.642,-2.874,25.065,0.553575,-0.5698,1.8409874
-2.421,-4.359,4.497,-0.522775,1.1490875,3.14325
-3.5839503,-2.9970002,-0.82605004,-1.00705,0.507925,6.56535
-3.22305,-1.9219501,14.03295,-0.5517875,0.332475,9.270388
-1.8510001,0.69105005,14.00895,3.1590624,0.7396125,-5.726875
2.523,3.111,5.8300505,1.822425,-0.51315,-4.2818875
3.4759502,1.6870501,5.14305,1.576025,-1.7397875,-2.11585
1.88205,0.102000006,17.746052,0.7137625,-1.3178,0.154275
-0.82395005,-1.06005,4.248,-0.121825,0.035475,2.2301126
-2.08395,-6.18195,3.58695,-1.0630125,0.8102875,3.3911624
-5.6119504,-1.9459502,20.24205,-3.003825,1.073325,4.4416623
1.4749501,-2.085,21.319052,2.1212125,0.7858125,-0.5110875
2.3410501,3.52005,2.2350001,1.5422,-0.9917875,-3.112725
6.85305,2.91195,1.4140501,1.1999625,-1.9058875,-2.6046624
-0.18105,3.4249501,11.734951,0.446325,-2.1582,-0.5157625
0.66300005,-2.523,6.49305,0.1991,1.8698624,0.99756247
-1.6840501,-5.07705,3.279,-1.044725,0.940775,2.285525
-5.6260505,-1.45305,13.936951,-2.4072125,1.2101375,2.8424
-3.69,1.7629501,14.47395,0.73039997,0.6766375,-0.1148125
3.1290002,2.391,6.5340004,1.4135,-0.288475,-2.067175
3.081,1.7539501,9.258,1.6671875,-1.7769125,-2.941675
0.01905,-0.62895006,13.33905,0.666325,-1.571625,-1.0671375
-0.43395,-3.5400002,6.04995,-0.9746,1.0836375,2.8210876
-1.8559501,-4.8829503,5.1070504,-1.3925999,0.2891625,2.420825
-4.326,-0.804,17.796001,-2.0843625,0.8842625,1.7340125
-2.1670501,3.4650002,13.45905,1.9399875,0.2877875,-1.7953374
4.6200004,4.8109503,3.4339502,2.387825,-0.2167,-2.5675375
3.1030502,0.717,14.725051,1.9845375,-2.4633124,-1.68905
-1.0690501,-2.97495,20.428951,0.1496,-1.2027125,0.6615125
-1.55505,-3.6450002,1.455,-0.076175,0.2597375,1.9459
-3.5749502,-4.9549503,2.49105,-2.2287376,0.9466875,2.32375
-2.32005,2.043,11.946,-2.0568626,1.4975125,1.945625
-3.59205,1.5790501,17.20005,2.5361874,0.0372625,-1.580425
5.43405,4.1670003,5.517,1.140425,-0.4019125,-1.896675
4.5220504,0.076050006,16.20705,1.6553625,-2.6453624,-1.3201375
-2.15805,-1.0309501,15.253951,0.1505625,0.36781248,0.4063125
-2.6100001,-4.7080503,0.68895006,-0.7165125,1.12585,1.4419625
-3.76395,-5.29005,0.52605003,-2.80665,1.149225,2.9907625
-1.8030001,0.18795002,20.302052,-1.309,0.7469,1.7191625
1.55595,0.78405005,13.059001,2.7654,-0.0229625,-2.3667874
5.32095,3.0559502,5.7769504,1.83425,-0.6402,-2.7853374
7.1119504,-1.2400501,16.62105,1.6553625,-2.4157374,-2.2606375
0.063,-4.8520503,14.812951,0.1299375,-0.245575,0.3196875
-2.57205,-4.26,0.16695,-1.0979375,0.580525,1.8335625
-3.63,-4.3230004,-1.338,-2.7355626,0.87725,3.2405999
-3.2989502,-2.53005,19.455002,-1.584,0.6678375,2.1311126
1.8910501,-0.36600003,12.501,2.2301126,0.1111,-2.1726375
5.8219504,3.42195,9.688951,1.6446375,-0.3894,-3.5201375
4.8790503,0.768,16.282951,1.264725,-1.9380625,-2.1929874
-2.2729502,-3.5760002,11.115001,0.363,0.3606625,-0.0488125
-1.677,-5.754,1.2420001,-1.053525,0.90255,2.2133374
-5.322,-5.7660003,3.15405,-2.9902124,0.2985125,3.5875125
-3.24705,-5.1390004,14.823001,-3.6317875,0.353375,4.3742876
2.14995,2.8860002,8.37495,2.7831376,0.54395,-2.8807626
4.29705,4.9950004,8.06295,2.9546,-0.8053375,-4.21245
2.90595,3.8820002,17.98695,2.101825,-2.4429624,-2.0964625
-1.84695,-5.02605,16.93695,0.21725,0.2514875,0.0941875
-3.012,-3.6400502,-0.78495,-0.7297125,0.07095,2.98155
-0.57795,-4.05495,-2.9610002,-1.62745,0.8380625,3.2109
-5.9280005,-6.1800003,19.108051,-1.6554999,0.5515125,0.9876625
-3.0289502,1.761,11.85,2.210725,0.5819,-1.9702375
3.9640503,3.3000002,-0.66795003,2.4178,0.5399625,-2.6728625
11.997001,1.54305,2.6470501,2.0857375,-2.7548125,-1.7947875
1.6300501,-5.826,20.838001,0.489775,-4.1611624,-0.09075
-5.04405,-6.7830005,9.069,-1.8431875,2.78025,2.31275
-2.15805,-4.7730002,6.0930004,-1.252075,2.6851,2.06415
-5.09205,-6.7639503,12.283051,-0.5654,1.1814,1.070025
-0.49395,-2.154,21.63495,0.4514125,0.099825,-0.1593625
2.63805,4.0090504,2.48895,2.2136126,-0.3870625,-2.5535126
4.48605,2.5099502,0.081,2.2405624,-1.6451875,-1.9842625
-0.52500004,-0.66495,28.39005,1.239425,-2.4831126,-0.45319998
1.6060501,-2.23305,2.7810001,-0.5182375,0.5388625,1.1231
-2.6560502,-6.50295,0.684,-1.109075,0.0565125,2.7953749
-2.46405,-4.6480503,16.618052,-3.99685,0.3777125,5.02645
-1.1050501,-0.80205005,16.88595,2.6203375,1.0080125,-0.7385125
4.0669503,5.5210505,3.11595,2.2331374,-0.2561625,-3.62505
5.59695,0.873,6.747,2.0384376,-1.5934875,-4.0108747
1.03695,-5.8710003,27.970951,0.35255,-1.1534874,-0.3509
-2.22705,-2.4120002,2.4120002,-0.578875,1.1028875,1.7320875
-1.4089501,-4.05195,-0.69900006,-1.3641375,0.6565625,3.180925
-0.81195,0.46605003,9.379951,-2.5257375,0.1472625,3.9733374
1.8790501,-2.64,18.094952,1.417075,0.3636875,-1.6644375
5.1130505,2.8879502,7.7880006,0.6958875,-0.1863125,-4.317225
4.8,0.22395001,10.28205,1.0883125,-1.3160125,-4.1118
1.48395,-2.74005,15.565051,0.104775,-0.460625,-0.073699996
-1.14795,-7.4610004,9.792001,-0.1577125,0.3524125,2.3082125
-3.0910501,-3.5970001,-0.36105,-0.8624,0.191125,4.6633124
0.78495,-1.608,17.206951,-1.9388875,0.36781248,4.279825
2.08005,-3.0660002,19.026001,2.72085,0.7942,-3.40175
3.79695,3.3700502,1.8709501,1.408,-0.2022625,-3.0331125
4.9620004,0.034950003,11.022,1.7336,-1.3770624,-2.9544625
0.69705003,-4.81605,21.61605,0.2971375,-0.4800125,0.3436125
-1.353,-6.5179505,2.9890501,-0.851675,0.7612,2.8747125
-2.73705,-5.1199503,-0.25095,-2.0086,0.3441625,4.421725
-0.76905006,-1.0860001,16.563002,-1.6930375,0.214775,2.87705
1.4130001,3.0250502,12.925051,2.772825,0.7568,-2.419725
4.5940504,4.722,5.17005,2.039125,0.053075,-4.285875
6.05595,-0.59595,19.198952,0.776875,-1.35465,-1.9702375
0.33105,-2.80005,12.666,-0.2490125,0.5743375,0.632775
-3.015,-4.392,0.75105006,-0.80025,0.94435,2.7379
-6.0280504,-4.524,4.7650504,-2.9874625,0.9669,4.21685
-0.71895003,-1.35405,20.766,-0.0270875,0.9593375,1.4276625
3.3919501,3.93195,8.42205,1.3344375,-0.034649998,-3.1691
6.1039505,3.59505,7.8460503,-0.363275,-0.3727625,-3.901425
-0.01995,3.7140002,16.816952,0.4943125,-1.408275,-1.2694
-0.70500004,-2.25195,7.8700504,-0.8188125,0.9988,1.23475
-1.4490001,-7.1950502,2.39505,-1.04775,0.82981247,2.4987874
-3.2970002,-7.2570004,9.282001,-3.1499875,0.3114375,3.8887749
0.513,-1.029,15.366001,-0.7572125,0.3887125,1.1837375
3.4350002,6.07905,8.431951,2.0920625,0.359975,-3.9406126
4.2010503,0.92595005,6.0670505,2.386175,-1.037575,-4.758325
2.7889502,-0.079050004,16.726051,0.5016,-1.4293125,-0.84095
-0.42495003,-3.59295,4.25505,-0.2963125,0.5116375,1.33375
-1.5690001,-6.49095,7.5390005,-1.3222,0.6846125,3.27415
-6.5929503,-2.5540502,9.387,-2.236575,0.5795625,3.9810374
1.4290501,1.7710501,14.124001,0.60513747,1.093125,1.7480375
7.05,5.2990503,7.3999505,3.2858374,-0.794475,-4.4686127
4.8040504,0.91605,6.7450504,2.6156626,-2.447775,-3.321725
0.43800002,-0.39000002,19.372952,0.5251125,-1.0575125,-0.2706
-2.49495,-2.9530501,3.28095,-0.2992,0.923175,1.7010125
-2.42295,-4.11,3.0559502,0.3466375,0.206525,2.8703125
-5.052,3.3259501,9.47805,-1.5246,0.5330875,3.993
0.54795,1.5460501,17.04,1.71105,0.32395,-0.2531375
5.37405,6.26595,3.7789502,1.07085,-0.0726,-4.2898626
4.3759503,2.87595,10.593,1.4958625,-1.9801375,-2.52395
-1.2360001,1.06005,12.384001,-0.0716375,-0.7368625,0.543675
-2.29905,-2.66595,1.6650001,-0.67265,0.97996247,1.9540125
-4.42395,-1.2919501,3.0919502,-1.267475,1.21825,2.6818
-3.5749502,-2.367,17.869951,-0.9376125,1.3080375,2.72195
0.9480001,1.9860001,11.218051,1.1870375,0.1871375,-1.9977375
5.1280503,3.5299501,7.3330503,1.9496125,-0.901725,-3.5201375
5.12295,-0.12705001,22.116001,1.772375,-2.662,-2.1077375
0.40500003,-4.77705,14.81595,-0.3557125,0.053075,0.6956125
-1.866,-4.97805,1.5310501,-0.705925,0.3454,2.02785
-4.743,-4.55205,3.5160003,-1.448975,0.229625,3.2850125
1.0510501,-1.51995,16.278,-1.1666875,0.4054875,2.27535
3.4999502,1.1359501,11.649,2.1896875,0.32945,-2.981
4.2829504,3.4320002,10.689,2.0735,-1.1149875,-4.0563874
4.254,2.4859502,10.795051,1.4612125,-1.8154125,-2.3293874
-0.72900003,-0.61995006,7.209,-0.4994,0.535975,0.80685
-1.2550501,-8.236051,2.77095,-1.14235,0.8292625,2.4838
-2.62695,-8.026051,10.77105,-3.27085,0.0097624995,4.4675126
-2.3830502,0.13095,20.04795,-0.40425,0.7211875,2.0714376
0.87405,1.12905,13.356001,3.277175,0.5820375,-3.2342749
5.7790504,2.84505,7.3120503,2.3648624,-1.0110375,-3.5083125
3.9550502,3.2929502,11.77095,1.4513125,-2.4255,-1.2043625
-1.3270501,-0.80895007,6.675,-0.2520375,0.5113625,0.7563875
-1.41795,-9.073951,7.9960504,-1.0847375,1.16875,2.3969
-3.7420502,-5.7400503,11.09895,-3.17185,0.477125,0.56595
-1.7010001,-1.79295,23.743952,0.37895,1.0894125,0.9277125
1.02195,2.3860502,11.95995,2.8199875,0.188925,-2.657875
4.48395,3.00795,8.335951,2.4545126,-0.8034125,-3.5470874
0.096,2.3040001,10.94505,1.177,-1.6578375,-0.8251375
-0.58005005,-1.2970501,5.08605,-0.4598,0.5451875,1.296625
-0.74100006,-7.1710505,7.9870505,-1.2623875,0.79461247,2.3535874
-4.056,-7.9440002,19.747051,-2.685925,0.35805,2.7394125
2.0970001,-4.3780503,21.33105,0.2838,0.982575,1.2782
3.01605,4.27395,7.3450503,0.927575,0.1709125,-3.277175
4.098,2.23305,6.807,1.9270625,-0.2635875,-4.415675
-1.5109501,2.26095,9.11205,0.8485125,-1.1585749,-0.8309125
-1.9900501,-5.0670004,9.607051,0.3034625,1.1042625,0.28187498
-1.9380001,-5.6509504,2.7829502,-1.5389,0.3829375,3.906375
-0.68595004,-4.87995,15.223051,-2.4176624,0.0820875,3.4667876
3.0640502,-1.6369501,16.951052,1.5305125,0.6241125,-0.8562125
2.7550502,5.21295,10.099951,1.877975,-0.0617375,-3.4222374
2.8660502,3.4080002,4.55205,1.824625,-0.6433625,-4.526775
2.35305,-0.56205004,21.316952,1.2607375,-1.3297625,-1.3352625
-2.73705,-4.8559504,-0.13905,-0.1007875,-0.098037496,2.5476
-2.433,-4.77495,0.69600004,-2.04875,0.69355,4.6674376
-5.35995,-1.6150501,16.29495,-3.0063,0.8166125,4.0822372
3.38295,-0.89295006,13.82295,2.8391,1.0586125,-1.265825
2.66895,4.57095,4.42995,2.1539376,-0.82445,-3.40505
3.4969501,1.5499501,6.2200503,2.142525,-1.5973375,-3.12125
-1.2600001,-2.1010501,25.615952,0.2866875,-1.32825,-0.73562497
-5.05905,-2.8549502,6.94995,-0.7392,0.3620375,1.8077124
0.93600005,-7.7790003,4.7839503,-1.575475,1.3608375,3.575275
-4.00995,-0.68700004,11.62005,-3.28515,-0.545875,2.6646125
3.9910502,-1.7689501,16.317001,1.8712375,0.6634375,-0.6501
3.86805,4.7580004,5.6959505,1.8434625,-0.3100625,-2.9313624
3.9520502,1.50705,7.34805,2.130425,-1.6577,-3.375625
0.312,-1.6540501,22.128,0.5465625,-1.0762125,-0.4566375
0.043050002,-5.991,9.98295,-0.7766,1.0522875,2.436775
-1.4490001,-4.90395,1.09095,-1.9380625,0.542575,3.3419375
-1.8940501,-0.98595005,14.280001,-2.73735,0.3051125,3.6678126
-0.47295,1.51005,18.21195,1.758625,0.28655,-1.0333124
2.49,4.64505,2.1060002,2.540175,-0.2134,-3.7872999
5.058,5.1940503,13.096951,0.959475,-1.747625,-1.3528625
-0.64500004,-2.22105,22.119001,0.8694125,-1.1353375,-0.3784
-2.67,-3.897,2.3160002,-0.0012375,0.8999375,3.00025
-2.90895,-2.76195,-1.3810501,-1.7507875,1.195425,3.7532
-5.076,4.71,8.51295,-2.4190376,0.953425,3.2817125
-0.84795004,1.0330501,16.081951,1.1521125,-0.15785,-0.7013875
2.0400002,4.1929502,1.9740001,1.4026375,-0.37345,-2.2325876
2.7,-0.01905,8.78205,1.5642,-1.7532625,-2.7201624
-2.04795,-7.1329503,35.121002,0.3328875,-0.90433747,0.0144375
-1.8510001,-0.19395001,4.95405,-0.6798,1.373075,3.676475
-2.2680001,-5.1199503,3.82905,-0.555775,0.188925,2.721675
-3.7759502,-2.4409502,6.9100504,-1.13465,0.6873625,4.1806874
-2.1070502,-7.3510504,26.155052,-0.08195,0.5429875,3.182025
2.265,1.503,6.4450502,1.4441625,-1.6335,-0.5916625
4.42395,1.215,3.2310002,1.14785,-0.7695875,-1.754775
3.6700501,2.56305,12.619051,0.19813749,-0.38885,-3.2437625
-1.521,-2.77605,11.391001,0.6689375,0.4126375,2.966975
-3.01005,-2.97495,4.1400003,-0.301675,1.31285,3.989975
-4.48005,-3.41805,0.69600004,-1.626075,1.1603625,1.7846125
-0.312,-6.4510503,25.132051,-1.3696375,1.1517,1.2848
1.9609501,1.69395,7.83405,0.3436125,-1.9933375,0.1370875
7.2990003,-0.23205002,8.74995,1.4133625,-1.0041625,2.038025
-1.1719501,2.4859502,13.606951,0.6736125,-2.084775,1.8379625
-0.67095006,-3.86505,9.96195,0.5031125,0.4995375,1.72865
-2.22,-3.5020502,1.6360501,-1.1405625,0.37235,-1.896125
-3.0270002,-4.9429502,5.4640503,-2.1910625,1.2463,-1.5008125
-3.7230003,2.93595,15.567,-1.171225,0.977625,0.3482875
-1.29795,0.14295001,16.195051,2.1637,-0.9249625,2.443925
1.626,6.54405,1.8970501,1.12145,-1.0461,2.6860626
3.5430002,1.74705,9.427951,2.686475,-0.7456625,5.1247625
-2.3059502,-0.76095,15.08205,-0.8305,-0.3727625,-0.410575
-0.79095006,-4.5259504,0.50895,-1.094775,0.17613749,-3.5303125
-3.92895,-3.5520003,2.56305,-2.280575,0.599225,-4.5475373
-4.7689505,-3.3820503,16.96305,-1.6017375,1.9322875,-0.3691875
-1.4130001,1.179,15.084001,0.7258625,-0.62975,1.6212626
1.83105,3.5989501,3.6469502,0.8812375,-1.5206125,4.0497875
3.05205,-0.62205005,12.604051,1.2841125,-0.9989375,5.2320123
-0.67095006,-1.39995,14.647951,-0.7154125,-0.6197125,-0.2924625
-2.00895,-2.76705,1.6840501,-0.5577,0.0807125,-3.6575
-4.75995,-4.4040003,0.55905,-1.7309875,1.3536875,-4.6563
-2.9880002,-3.7429502,15.132001,-2.4963124,2.726075,-1.97505
1.4820001,1.86405,12.9199505,0.7123875,-0.832975,0.8589625
2.739,4.6740003,6.117,1.322475,-1.88925,4.585625
3.4999502,0.15195,14.401951,1.9955375,-1.7320875,4.6365
0.20400001,-2.97705,12.601951,-0.561,-0.128975,-0.5471125
-2.7589502,-3.7530003,2.7949502,-1.17315,0.6458375,-3.949825
-3.7810502,-5.68905,4.5349503,-2.1104875,2.1782749,-4.8068624
-3.288,-3.49005,19.351952,-1.6022875,2.2237875,-1.797675
0.54795,2.355,10.57695,0.9788625,-0.12485,1.725625
2.67405,1.27995,10.54605,1.415975,-0.2569875,4.251225
5.5849504,-3.5449502,29.721,0.69575,-0.6150375,4.076325
1.4580001,-0.22695,6.10995,-0.8603375,-0.696575,-0.1401125
-1.88205,-4.28205,4.80105,-0.9640125,-0.014162499,-3.7263875
-5.2309504,-4.17705,5.8180504,-2.3166,1.9138625,-4.9042125
-2.112,-4.2720003,26.75505,-0.509025,1.84965,-0.2211
2.3749502,3.4650002,5.67495,1.2199,-0.6056875,1.6935875
3.7459502,2.8960502,7.1389503,1.551825,-1.6922125,4.3033376
3.4969501,2.5200002,19.146002,0.9695125,-0.64515,5.2749124
1.3240501,1.20105,5.16195,-1.2335125,0.1062875,-2.2793374
-1.6650001,-4.87095,1.5000001,-0.507375,-0.0790625,-4.2161627
-4.38105,-3.7720501,7.4479504,-0.6560125,0.300575,-5.4597125
-1.3770001,-4.81995,26.119051,0.039325,1.2199,-0.2926
2.088,2.3760002,9.33705,0.8322875,-0.58245,1.343375
3.0570002,3.93405,7.3069506,0.7761875,-0.4829,4.339775
3.4090502,2.87595,14.533051,1.8456625,-0.3084125,5.663075
1.7050501,-2.532,11.212951,-0.9823,-0.147675,-0.692725
-1.81095,-6.7590003,6.7180505,-1.8726125,0.02805,-4.3089747
-3.9169502,-4.53105,5.9089503,-3.091275,1.50425,-4.8761625
-4.6660504,-2.535,18.56895,-1.0131,1.6350125,-0.12375
1.13505,3.2380502,12.427051,1.0225875,-0.276925,2.1957376
3.387,3.867,7.9630504,0.9040625,-1.0989,5.0670123
0.63195,1.2889501,19.60095,0.7921375,0.2432375,4.4808497
0.90000004,-3.315,8.53695,-0.4670875,-0.216975,-2.7319875
-2.0310001,-5.61495,-0.23895001,-1.926925,0.441375,-5.624025
-6.50895,-6.87405,14.028001,-3.7763,2.6159375,-4.372225
0.321,-6.558,21.63495,-0.25685,0.9887625,0.85195
2.0680501,5.15805,7.905,-0.176825,-0.945175,2.08615
4.20405,2.87895,5.1649504,2.0724,-1.209175,6.494675
2.39895,2.32605,14.028001,2.206875,-1.8852625,5.6557875
-1.2409501,-2.25495,5.6790004,-1.360425,0.6505125,-2.8232875
-0.91095006,-6.4669504,-2.2999501,-1.44375,-0.203225,-5.3757
-0.74505,-6.01695,9.46395,-1.604625,0.3821125,-4.3577876
-1.1209501,-4.7179503,28.582052,0.24695,-0.14575,-0.283525
2.60205,5.01195,4.2790504,1.0653499,-0.9592,2.8370376
4.61805,2.7949502,1.3780501,1.5637875,-0.8674875,5.1178875
-3.22305,0.16905001,24.748951,1.994575,-1.2848,4.0973625
-0.87195003,-1.5289501,3.6060002,-1.841125,0.660825,-3.9562874
-2.7510002,-5.68695,4.743,-1.7331874,0.381975,-5.20575
-6.36105,-5.6179504,16.764,-1.9855,1.9886625,-2.916375
-3.07695,-0.48105,20.56995,0.919325,1.1748,1.42945
2.322,4.9450502,2.66595,1.40745,-1.0588875,2.57895
2.5399501,2.2780502,2.4720001,1.45145,-1.544125,5.017925
-1.0570501,-1.6540501,17.59305,0.88495,-1.3019875,3.5814624
-0.14505,-3.1309502,4.43895,-1.063975,0.2794,-3.52715
-1.4760001,-6.0820503,6.1009502,-1.876325,1.1603625,-4.864887
-3.321,-6.4819503,15.253951,-2.0695126,1.88595,-2.783
