@ HyperIMU - ianovir
@ Date:Wed Aug 16 09:36:12 GMT+03:00 2023, Sampling Rate:100ms

bma4xy_accelerometer.x,bma4xy_accelerometer.y,bma4xy_accelerometer.z,oem_pseudo_gyro.x,oem_pseudo_gyro.y,oem_pseudo_gyro.z
-0.29295,-0.060000002,9.765,-0.3026375,0.2046,3.531275
-0.35295,-0.045,9.579,-0.6125625,0.4002625,9.5359
-0.06105,-0.17895001,9.61005,-0.2913625,0.0798875,3.4744875
-0.25500003,-0.17205001,10.14795,-0.16733749,-0.129525,0.9106625
-0.43695003,-0.016050002,9.70995,-0.0559625,-0.044275,0.20075
-0.33405003,0.045,9.777,0.0022,0.052249998,-0.0694375
-0.18105,-0.08595,9.588,0.005225,0.001375,0.0364375
-0.26205,-0.12195001,9.82005,-0.0070125,0.0204875,0.0356125
-0.08505,-0.177,10.081051,-0.0521125,-0.0845625,0.05555
-0.087000005,-0.06705,9.427951,-0.023375,-0.0477125,-0.0099
-0.15405001,-0.30600002,10.218,0.0127875,0.0022,0.0675125
0.06705,-0.16995001,9.825001,0.014162499,-0.004125,-0.11495
0.17295001,-0.261,10.036051,-0.003575,-0.0809875,-0.0248875
-0.28605002,-0.0019500001,9.78195,-0.021175,-0.0570625,0.048125
-0.135,-0.016050002,9.70995,0.032175,0.04675,-0.082775
-0.16095,0.00405,9.966001,0.0240625,-0.0100375,0.0691625
-0.25005,0.049950004,9.777,0.0268125,0.0100375,-0.100375
-0.18495001,-0.03795,9.92595,0.004125,0.0177375,-0.0232375
-0.18795002,0.045,9.769951,-0.015125,0.004675,0.02585
-0.13305001,-0.08805001,9.8539505,0.0083875,-0.00935,0.1293875
-0.23595001,0.07395,9.873,-0.0097624995,-0.0317625,0.0099
-0.20205002,0.00405,9.77505,0.0158125,0.006325,-0.044275
-0.135,0.018000001,9.865951,-0.0037125,8.25E-4,0.154
-0.20205002,0.00405,9.66195,-0.0020625,-0.006325,0.0675125
-0.22605,-0.052050002,9.837001,0.0122375,0.01265,-0.09515
-0.20205002,0.057000004,9.804001,0.0114124995,0.0154,-0.111925
-0.102000006,-0.01905,9.93795,0.0070125,-5.5E-4,-0.005775
-0.26700002,-0.012,9.883051,-0.014025,-0.0297,-0.061049998
-0.19995001,0.0139500005,9.61905,-0.013062499,0.01265,-0.0334125
-0.26205,0.025950002,9.66495,-0.0017875,0.0086624995,0.1144
-0.24795002,0.028050002,9.712951,-0.0015125,0.0,0.051975
-0.27405003,0.19800001,9.564,0.0149875,0.015125,0.0581625
-0.147,0.13305001,9.835051,0.0567875,0.011275,-0.0408375
-0.18105,0.19605,9.61695,0.0341,-0.0213125,-0.1544125
-0.066,0.109050006,9.966001,0.031075,-0.0187,-9.625E-4
-0.09705,0.040050004,9.94005,0.0020625,-0.0191125,0.0254375
-0.12105001,-0.0019500001,9.34395,-0.0185625,-0.015262499,0.021175
-0.126,-0.25605002,9.691051,-0.0383625,0.0165,-0.009625
-0.11595,-0.36795002,9.684,-0.1568875,-0.0155375,0.0726
-0.13305001,-0.402,9.847051,-0.1233375,-0.001375,-0.055275
-0.11805001,-0.34395,9.861,-0.0539,4.125E-4,0.0506
-0.08505,-0.38295,9.684,-0.0193875,-0.0045375,-0.0166375
0.010050001,-0.47400004,9.85095,-0.017324999,-0.006875,0.0044
0.024,-0.31995,9.880051,-0.0119624995,-0.016775,-0.05775
-0.039,-0.30600002,9.8560505,0.0182875,-0.0246125,-0.005775
-0.087000005,-0.26295,9.78195,0.0292875,-0.0158125,0.073699996
-0.09705,-0.13905,9.612,0.0191125,0.0086624995,-0.0213125
0.031050002,-0.31095,9.804001,0.0243375,0.0055,-0.08195
-0.025050001,-0.34395,10.02105,0.0026125,-0.0026125,0.022824999
0.02205,-0.28005,9.92805,-0.020075,-0.007975,0.09075
0.0,-0.34695002,9.81795,-0.009075,-0.0017875,-0.0218625
-0.0010500001,-0.33195,9.732,-0.013475,-0.0034375,-0.039049998
0.052950002,-0.22005,9.580951,0.01045,-0.0078375,-0.0867625
0.10605001,-0.23400001,9.693001,0.0320375,-0.0331375,-0.058025
0.094050005,-0.21495001,9.946951,0.024475,-0.0108624995,0.0196625
0.18195,-0.18900001,9.688951,0.013612499,-0.022824999,0.0165
0.15105,-0.15495001,9.784051,0.0268125,-0.02585,0.05335
0.22095,-0.19095,9.67395,0.0125124995,-0.0345125,0.19195
0.21795002,-0.19095,9.772051,5.5E-4,-0.0358875,0.00605
0.13695,-0.069000006,9.588,-1.375E-4,-0.0037125,-0.0103124995
-0.22395001,-0.043050002,9.93795,-0.0122375,0.0133375,-0.078099996
-0.10605001,-0.10005,9.813001,0.04675,0.1390125,-0.0771375
-0.04695,-0.23400001,9.732,0.009625,0.044,-0.08635
-0.31905,-0.14805001,9.604951,-0.0526625,0.0061875,0.0812625
-0.23805001,-0.33705002,9.96405,-0.023924999,0.083875,0.0231
-0.21900001,-0.33705002,10.00695,-0.049225,0.0251625,0.1203125
-0.291,-0.26295,9.78705,-0.0339625,0.0081124995,-0.0364375
-0.27195,-0.30405003,9.813001,0.003025,0.0215875,-0.0306625
-0.231,-0.32805002,9.76095,0.0015125,0.0202125,0.0482625
-0.31905,-0.28905,9.837001,-0.00165,0.0242,-0.1192125
-0.19500001,-0.36600003,9.89505,0.0077,0.0408375,-0.0473
-0.14895001,-0.32295,9.768001,-0.0097624995,0.0048125,0.0039875
-0.28395,-0.28695002,9.84195,-0.013612499,-0.020624999,-0.0044
-0.28395,-0.30795002,9.885,-0.0026125,-0.0088,0.007425
-0.23595001,-0.31605002,9.918,0.0015125,-0.011275,-0.0237875
-0.25005,-0.38295,9.825001,-0.006875,-0.0132,-0.055275
-0.21195,-0.25800002,9.86295,-0.0210375,-0.003025,0.1637625
-0.18495001,-0.37605003,9.90705,-0.0094875,-0.0163625,-0.0275
-0.17595,-0.34005,9.96405,-0.00605,-0.008525,0.0763125
-0.12105001,-0.36795002,9.80595,-0.0,-0.0072875,-0.0072875
-0.18105,-0.33495003,9.777,-0.009625,-0.023924999,0.0930875
-0.15195,-0.40905002,9.81795,0.003575,0.0066,0.0097624995
-0.147,-0.44295,9.901951,-0.004125,-0.00715,-0.098725
-0.25005,-0.354,9.801001,-0.010175,-0.0094875,0.050049998
-0.252,-0.42795002,9.82005,0.0031625,0.05115,-0.1450625
-0.135,-0.40395,9.82005,-0.0077,9.625E-4,-0.05555
-0.291,-0.31305,9.877951,0.014162499,-0.0248875,0.1093125
-0.19005,-0.27,9.580951,0.0088,0.0111375,-0.012375
-0.51795,-0.18195,10.066951,0.0022,0.0017875,0.0232375
-0.882,-0.15495001,9.880051,0.0534875,0.108899996,0.0237875
-0.98700005,0.058950003,8.590051,0.0787875,0.2545125,-0.2794
-0.58995,-0.28500003,9.082951,0.0801625,0.247225,-0.169675
-1.12395,-0.14595,9.33195,-0.0088,0.0501875,4.125E-4
-0.93000007,-0.97200006,9.528001,0.03795,0.1395625,-0.1027125
-0.882,-0.49305,7.932,-0.3026375,0.1188,-0.058025
0.22095,-0.62205005,9.757951,-0.042625,-0.0468875,-0.516175
0.19695,0.040050004,9.745951,-0.0831875,-0.6985,0.0991375
-0.384,0.48000002,10.58895,0.2077625,-0.3333,-0.74525
0.13695,1.215,10.761001,0.38005,0.1835625,-1.2772375
0.78300005,0.87795,10.516951,0.3903625,-0.0061875,-0.7852625
1.17795,0.85395,9.68595,0.1931875,-0.3111625,0.006875
1.2430501,0.38505003,9.837001,0.1123375,-0.4252875,0.0950125
1.5160501,-0.079050004,10.440001,-0.06325,-0.3933875,0.5435375
1.4290501,0.09,10.93605,-0.11165,-0.2162875,0.71005
1.09395,0.29895002,9.92595,-0.0814,-0.0121,0.039875
-0.12795001,-0.18900001,11.158051,0.094875,0.41525,-0.5506875
-1.3770001,1.9909501,9.36795,-0.083325,0.1612875,0.0842875
1.05795,-0.036000002,10.31595,0.3333,0.2387,-0.4203375
3.45,0.38895002,9.96405,0.1183875,-0.0532125,0.09075
2.6520002,0.22695,10.254001,0.07315,-0.458975,0.0765875
1.5660001,0.71295005,7.9099503,-0.038225,-0.2864125,0.42515
1.5319501,-0.10305001,10.59105,0.088,-0.2204125,0.265925
1.4080501,0.076050006,10.467001,-0.2165625,-0.03795,0.4052125
1.45095,0.094950005,10.345051,-0.1577125,0.041249998,0.0180125
0.93900007,-0.34395,10.323001,-0.1720125,0.1023,-0.1375
1.14495,-0.21495001,9.837001,-0.1912625,0.186725,0.2322375
0.42600003,0.25500003,9.523951,-0.025575,0.0622875,0.2550625
0.49800003,0.186,9.92595,0.1087625,0.2341625,-0.0512875
0.77295005,0.20295002,9.415951,0.0867625,0.1189375,-0.0108624995
0.54795,0.09705,9.612,0.0479875,0.0364375,-0.029424999
0.53895,-0.06705,9.76305,-0.0037125,0.080575,0.1230625
0.44805002,0.078,10.335,-0.0422125,0.0875875,0.16885
0.90495,-0.0019500001,9.708,0.0059125,0.068475,-0.1827375
0.80505,-0.43095002,9.98805,-0.020075,-0.0653125,0.1123375
0.57495004,-0.162,9.62205,-0.144925,-0.0669625,0.1898875
0.56505,-0.23205002,9.5119505,-0.0331375,0.0554125,0.024475
0.49800003,-0.522,10.186951,-0.105325,0.0099,-0.05115
0.57705003,-0.51900005,10.12005,-0.0779625,0.0683375,-0.058025
0.49800003,-0.39000002,9.82005,-0.038775,0.0397375,-0.0356125
0.83295006,-0.12900001,9.106951,-2.75E-4,-0.012925,0.0397375
-1.368,0.70305,10.65795,-0.0088,-0.1868625,0.2481875
-0.087000005,0.43305,10.357051,0.1573,0.17655,-0.365475
1.00995,0.69600004,8.667001,0.1079375,0.0070125,0.0017875
0.62505,0.804,9.459001,0.2256375,-0.1137125,0.3128125
-0.06105,1.19595,8.832001,0.1925,0.033275,0.1115125
1.4290501,0.51600003,8.71695,0.290125,0.077275,-0.286
2.181,0.31305,10.467001,0.336325,-0.194975,0.1538625
2.0040002,0.31305,11.328,-0.1992375,-0.22893749,0.7601
-0.27405003,1.2559501,14.173951,0.12045,0.2448875,-0.3067625
1.6060501,-0.43500003,8.767051,0.08965,-0.0801625,-0.1582625
0.88395005,0.34905002,7.1470504,-0.278025,-0.251075,0.78925
0.08400001,0.021000002,9.021001,-0.0078375,0.1027125,0.2409
-1.7700001,-0.68895006,10.6699505,-0.14135,0.6589,-0.2706
-0.90300006,0.33900002,8.604,-0.1342,0.874775,-0.3488375
-1.0879501,0.40095,8.917951,0.15853749,0.33495,-0.38225
-1.6690501,0.53505003,8.085,0.1397,0.2503875,-0.1189375
-1.6570501,0.49695003,8.932051,-0.009075,0.354475,0.451275
-1.0540501,0.24300002,11.829,-0.33261248,-0.0570625,1.304875
-2.08395,0.99705005,11.10105,-0.2805,-0.2283875,1.054075
-1.0330501,0.16395001,9.981001,0.2044625,0.1511125,-0.10835
-0.78405005,0.31305,8.856,-0.041525,-0.056649998,0.31075
-3.2350502,0.76995003,10.06005,-0.2523125,-0.27885,0.3504875
-1.0999501,-1.1770501,10.81095,0.0468875,0.4530625,-0.77494997
-1.4490001,-0.43800002,8.82495,-0.4602125,-0.076725,0.23705
-1.6500001,-0.47595003,8.025001,-0.2223375,-0.0328625,0.1552375
-2.28195,0.44205,9.801001,-0.0666875,0.0416625,-0.070125
-1.2409501,-1.1179501,14.95005,0.450175,0.1758625,-0.9315625
-1.0690501,-1.48905,10.522051,-0.1753125,-0.377025,0.23045
-1.605,-0.79905003,7.8889503,-0.3862375,-0.1035375,0.451825
-1.11405,-0.80595005,7.7160006,-0.1665125,0.2195875,0.1577125
-1.011,-0.79005,9.28695,-0.001375,-0.008525,-0.2255
-0.36195,-0.648,9.94995,0.1659625,0.061325,-0.75515
0.064950004,-0.37605003,9.430051,0.2330625,-0.1780625,-0.847825
0.75195,-0.75795,8.511001,0.158125,-0.341,-0.4841375
1.9560001,-1.5820501,8.99205,0.0584375,-0.31845,-0.22385
1.4580001,-0.12705001,9.5140505,-0.22275,-0.7000125,0.5918
1.51995,-1.4140501,11.701951,0.1419,-0.4521,-0.13653749
0.98700005,-1.24905,11.74695,-0.13695,-0.1304875,0.137775
0.94605005,-2.14395,11.61795,-0.119075,0.19855,-0.0889625
0.651,-1.3399501,8.632951,-0.2226125,0.207625,-0.142175
0.94095004,-1.62705,9.693001,-0.1992375,0.0160875,0.0691625
0.50100005,-2.049,10.9140005,-0.127875,-0.092675,0.02145
0.60105,-1.36395,9.954,-0.0757625,0.0650375,0.0400125
1.128,-1.6609501,9.066,0.019524999,0.0713625,-0.1439625
1.176,-1.74495,8.86095,-0.0848375,-0.306625,0.2380125
0.120000005,-1.266,10.91895,-0.0331375,-0.0836,0.014162499
0.56295,-0.47595003,11.460001,0.25905,0.3444375,-0.5335
0.9289501,-1.2060001,11.347051,0.419925,0.2366375,-0.539825
-1.2430501,-0.73695004,9.097051,0.0496375,-0.1406625,0.4164875
-1.2889501,0.0139500005,8.937,-0.2261875,0.2481875,0.4365625
-2.6749501,0.0,10.675051,0.1269125,0.5203,-0.078099996
-1.7479501,-0.9670501,9.8230505,0.1925,0.6661875,-0.21285
-1.7389501,-1.3950001,8.65005,-0.234575,0.01925,0.4851
-1.91805,-0.86100006,7.3810506,-0.314325,0.0342375,0.669625
-0.9990001,-1.6489501,9.097051,-0.113575,0.429275,0.6117375
-1.15695,-1.0339501,8.820001,-0.1607375,0.0339625,0.7662875
-3.2320502,0.033,11.350051,0.0922625,0.0721875,0.3716625
-0.92700005,-1.32105,13.687951,0.6413,0.4217125,-0.4533375
-2.5570502,-0.89295006,10.486051,0.2468125,-0.0594,-0.0847
-0.94395006,-1.1220001,7.8529506,-0.089237496,0.160325,0.252175
-2.4469502,0.53295004,7.623,-0.2822875,-0.4439875,0.451825
-3.0220501,-0.17895001,8.499001,0.19415,-0.0284625,-0.4250125
-1.0570501,-1.4140501,11.3209505,-0.0658625,0.2277,-0.0099
-1.15995,-0.76305,9.262951,-0.1859,-0.2539625,0.2066625
-1.26195,-0.33,8.31705,0.0614625,-0.0523875,-0.07425
-0.26700002,-0.59295005,9.0070505,0.23773749,0.1057375,-0.32587498
-1.03695,0.19095,10.864051,-0.0059125,-0.4653,0.186175
-1.488,0.09,12.658951,0.353375,-0.215875,-0.473275
-1.46595,-1.314,11.869051,-0.0911625,-0.1442375,0.1535875
-1.4490001,-1.2420001,10.15995,-0.2547875,0.3392125,-0.01705
0.09105001,-0.74895006,8.253,-0.060225,0.3223,-0.565675
0.46500003,-1.3740001,8.793,0.0088,-0.21615,-0.680075
-0.34305,-0.13605,7.00995,-0.242,-0.4899125,-0.3177625
0.48600003,-0.648,7.0290003,-0.02365,-0.3023625,-0.773575
-0.504,-0.273,8.33205,-0.0094875,-0.2682625,-0.589875
0.81405,-0.072000004,8.305051,0.0699875,-0.0526625,-0.671
1.2,-0.87600005,9.94995,0.1593625,-0.5022875,0.0627
2.016,-0.74700004,11.78295,-0.02035,-0.381425,0.369325
1.1710501,-1.5270001,11.491051,0.026124999,-0.2855875,0.3210625
0.63900006,-1.09395,9.72,-0.1518,0.029975,0.35145
1.1010001,-1.4860501,9.84405,-0.0961125,0.1639,0.2344375
0.38295,-0.45705003,9.250951,-0.0323125,0.0429,0.114675
0.51495004,-0.864,10.146001,0.1111,0.1978625,-0.268125
1.0009501,-0.711,9.13095,0.0837375,0.15675,-0.1749
0.93900007,-0.62895006,9.17205,0.0691625,-0.100375,-0.0039875
1.21905,-0.96195006,9.934951,0.0884125,-0.1007875,0.13035
0.90795004,-1.5870001,12.172951,0.0089375,-0.0506,0.321475
1.4959501,-0.27495003,9.262951,-0.122237496,-0.0484,0.4981625
0.42900002,-0.70605004,10.870951,0.2468125,-0.0713625,0.033825
0.20895001,-0.55995005,7.6780505,0.087175,0.3322,-0.120037496
0.69900006,-1.04805,8.08695,0.034649998,0.3256,0.15675
-1.23405,-0.42600003,7.5730505,-0.13213749,0.06985,0.470525
-1.09305,-1.02705,9.064051,-0.298375,0.3491125,0.504075
-0.90105003,-1.1029501,8.820001,-0.113437496,0.4631,-0.0301125
-2.36805,-0.28695002,8.01795,-0.06215,0.3243625,0.1197625
-2.6220002,-0.12195001,9.816001,0.3609375,0.6567,-0.5330875
-2.016,-0.112050004,11.364,-0.1093125,-0.0768625,0.8336625
-2.0329502,0.11400001,10.849951,0.0264,-0.2330625,0.5262125
-0.45600003,-1.13205,9.28905,0.172975,-0.014712499,-0.0721875
-1.03695,-0.61995006,9.580951,-0.2135375,-0.226325,0.5267625
-1.2859501,-0.49995002,10.057051,0.0061875,-0.0884125,0.0279125
-1.16205,-0.61005,9.492001,-0.0952875,-0.1021625,0.31295
-1.3099501,-0.13605,8.614051,-0.0644875,-0.062975,0.24915
-1.18605,0.13305001,9.591001,0.1398375,0.0290125,-0.1199
-1.14795,-0.093,12.166051,0.2338875,-0.093225,-0.46145
-2.7180002,0.25995,11.515051,0.185625,-0.075625,-0.494725
-2.18205,-1.5700501,10.651051,-0.022,0.4387625,-0.588775
-0.93900007,-0.44295,7.5060005,-0.467775,0.1524875,0.007425
-0.25995,-0.675,8.236051,0.13859999,-0.0396,-1.0602624
0.02205,-0.81405,8.121,0.0430375,-0.3540625,-0.7541875
0.19395001,-0.54495,8.11095,-0.0237875,-0.3257375,-0.635525
1.2930001,-0.60795003,8.832001,0.100099996,-0.22013749,-0.713625
3.2959502,-1.16505,10.854,0.1115125,-0.7029,0.0451
2.6500502,-0.69405,10.58205,0.0556875,-0.9348625,0.55027497
1.8529501,-0.65295005,11.721001,0.1315875,-0.2875125,0.243375
1.0339501,-0.55005,10.866,0.055275,0.0298375,0.2446125
1.01505,-0.10305001,9.468,0.078925,0.270325,-0.059125
0.762,0.066,9.58605,0.1249875,0.2509375,-0.2899875
0.95295006,0.42495003,9.387,0.1150875,0.073699996,-0.28655
1.18305,0.22905001,8.62395,0.1923625,0.0600875,-0.2800875
1.044,0.67905,9.62895,0.065725,0.0499125,-0.12265
1.3480501,0.62595004,8.764951,0.1243,0.0292875,-0.21395
1.8529501,0.37005,8.568001,0.10725,-0.0600875,-0.14973749
1.29495,-0.048,11.271001,0.0595375,-0.1439625,0.206525
1.4170501,0.62895006,10.368,-0.0963875,0.024475,0.43835
0.61305004,0.093,12.74295,0.0600875,0.0067375,0.14093749
1.8750001,0.006,10.05,-0.09075,0.1285625,0.2528625
0.70905006,0.279,8.425051,-0.02695,0.0444125,0.308
0.052950002,-0.43995002,8.01795,-0.0609125,0.2297625,0.2806375
-0.52305,-0.42600003,8.49195,-0.1975875,0.3812875,0.385275
-0.81495005,-1.5769501,10.32495,-0.1408,0.628375,-0.0158125
-2.3059502,-1.02405,8.899051,-0.4371125,0.4525125,0.419925
-1.81095,-0.31305,7.2229505,-0.2088625,0.548625,0.3177625
-1.1689501,-0.13905,10.111951,0.0534875,0.28435,0.382525
-1.0519501,-1.01505,11.472,0.1519375,-0.040975,0.293975
-1.4250001,-0.75600004,12.133051,-0.0939125,-0.09735,0.559075
-1.14495,0.117000006,10.287001,-0.022824999,-0.18755,0.3551625
-0.83895004,-0.32295,9.162001,-0.0963875,-0.3078625,0.38334998
-0.513,-0.90900004,9.868051,0.0224125,-0.124437496,-0.210925
-0.528,-1.01505,9.835051,-0.2187625,-0.2784375,0.3741375
-0.63495004,-0.41400003,9.174001,-0.170225,-0.1375,0.4651625
-0.76005006,-0.061950002,7.905,0.13475,-0.0430375,-0.293425
-0.15705001,-0.26295,11.142,0.1117875,-0.0631125,-0.2904
-0.56595004,-1.12695,13.47105,0.098175,-0.0845625,-0.59125
-1.6000501,-1.9150501,11.6970005,-0.0862125,0.260975,-0.3034625
0.33795002,-2.22105,9.21,-0.32065,0.472725,0.014025
0.49605003,-1.761,8.437051,-0.445225,-0.22275,0.1819125
0.24705002,-1.8400501,7.4119506,-0.277475,-0.38445,-0.2589125
-0.49395,-1.43805,7.6330504,-0.3276625,-0.2030875,-0.43725
0.42405003,-2.17995,10.030951,-0.1596375,0.0429,-0.777975
0.67305005,-2.049,9.30105,-0.099275,-0.25685,-0.5889125
0.44295,-1.21095,8.343,-0.0451,-0.298375,-0.4541625
1.4940001,-1.149,8.37705,0.1496,-0.002475,-0.5031125
3.3679502,-2.628,11.185051,-0.014025,-0.421025,0.44385
1.5439501,-2.3170502,10.177051,-0.0391875,-0.059675,0.20253749
1.4629501,-2.08695,9.8560505,0.0422125,0.3194125,-0.1508375
1.33605,-1.5820501,9.885,0.098725,0.29273748,-0.407275
0.77595,-1.7520001,11.137051,0.1172875,0.109175,-0.4038375
0.99600005,-1.01505,10.491,0.1115125,0.2173875,-0.08305
1.8960001,-0.54795,8.69295,0.2971375,0.0188375,-0.1709125
1.19505,-0.58095,8.748,0.270325,-0.2149125,0.0466125
0.27600002,0.56700003,9.813001,0.2080375,0.0210375,0.029975
1.48905,0.15,11.338051,0.4134625,0.09845,-0.1874125
2.1070502,-0.77505004,12.898951,0.24915,0.0716375,0.027224999
2.772,-0.51405,8.853001,0.0710875,-0.2853125,0.298925
0.9979501,-1.161,9.70995,-0.1062875,-0.3073125,0.5702125
0.58905005,-0.85905004,9.684,-0.1722875,0.295625,0.2033625
0.34005,-0.61005,9.660001,-0.0979,0.376475,0.1346125
0.34500003,-1.45305,8.4199505,-0.100925,-0.011275,0.1904375
0.78300005,-0.44505003,7.1010003,-0.2704625,0.146575,0.51094997
0.28005,-1.00695,8.125951,0.0501875,0.1661,-0.0276375
-0.90300006,-1.8550501,11.874001,-0.009625,0.2883375,0.0933625
-1.4950501,0.025950002,10.31595,0.034649998,0.5861625,-0.02145
-0.83595,-0.67005,11.625001,0.2891625,0.3155625,-0.19965
-0.19005,-0.19395001,10.408951,0.135025,-0.085525,0.5819
-0.79800004,-0.16695,9.72,0.168025,-0.1593625,0.542575
-0.75000006,-0.069000006,10.665001,0.10395,0.15619999,-0.015675
-0.16605,0.22005,10.218,0.1744875,-0.0042625,0.0221375
0.097950004,-0.46905002,9.27,-0.0477125,-0.3289,0.4596625
-0.74805003,-0.684,10.6050005,-0.124025,0.1332375,0.0275
-0.93495005,0.034950003,9.460951,-0.1101375,0.105875,0.110825
-0.28095,-0.22005,9.98805,0.009075,0.012925,0.116325
-0.67095006,0.078,8.20005,0.0743875,-0.145475,0.122375
-1.60695,0.093,7.9960504,0.065175,0.10505,-0.082499996
-5.3629503,4.236,14.98095,0.2231625,0.45265,-0.638825
-2.6580002,-1.13205,14.542951,1.377475,0.187,-2.134275
-1.353,-2.2429502,8.2879505,-0.782375,0.0235125,1.6379
-1.52295,0.59805006,7.6420503,-1.2764125,-0.249425,2.44475
-0.74100006,-0.72495,11.359051,0.4786375,0.2908125,-1.006775
-0.27600002,-0.27,7.5870004,0.1483625,-0.11605,-1.032075
-0.15900001,-1.8240001,9.80595,-0.1243,-0.1093125,-0.8998
0.79005,-0.708,7.7310004,-0.473275,-0.3411375,-0.1918125
1.95105,-1.539,8.901,-0.081675,-0.6452875,-0.3562625
1.38405,-0.84195006,10.218,-0.2718375,-0.87119997,0.37125
1.7500501,-1.00995,11.805,0.1148125,-0.22935,-0.2695
1.36995,-1.11,11.544001,0.158675,-0.117699996,-0.150425
1.30005,-1.8000001,11.488951,-0.0017875,0.0859375,-0.193875
1.19505,-1.16805,8.67405,-0.12265,0.021175,0.0485375
0.34995002,-0.38295,8.920051,-0.032449998,-0.0070125,-0.0482625
0.81195,-1.2780001,10.368,0.152625,0.185625,-0.35035
0.91995007,-0.651,8.98995,-0.0732875,0.1472625,-0.0303875
0.85995007,-1.1509501,10.15305,0.049775,-0.0114124995,-0.058849998
1.5990001,-0.84900004,10.10505,-0.018975,-0.0620125,0.10725
0.77295005,-0.75600004,9.98805,0.1288375,-0.1871375,-0.053625
0.29700002,0.058950003,8.88195,0.061875,0.1472625,-0.14905
0.65400004,-0.71805006,9.92595,0.22013749,0.26221249,-0.4915625
0.83595,-0.768,9.98295,-0.0336875,0.0312125,0.25753748
0.96495,-0.40395,9.36795,-0.0741125,-0.045649998,0.2875125
0.88605005,-0.28905,9.033,0.08635,-0.0471625,-0.2061125
1.2040501,-1.01505,9.75105,0.0433125,-0.0620125,-0.047849998
1.22595,-0.93600005,9.97095,-0.089925,-0.2145,0.2052875
1.4940001,-0.47100002,10.075951,-0.0840125,-0.0804375,0.1727
0.87600005,-0.43305,12.06795,0.0677875,-0.0539,-0.0710875
1.67805,-0.71805006,10.61505,0.124575,0.2167,-0.336325
1.8390001,-1.5840001,10.893001,-0.0138875,-0.039049998,-0.080025
1.4940001,-1.029,9.45195,-0.1953875,-0.1749,0.501325
0.50295,-0.53595,8.764951,-0.0441375,0.043449998,0.1376375
-0.216,-1.455,9.375,0.0754875,0.35585,-0.2446125
-0.12105001,-1.1560501,8.74995,-0.2118875,0.360525,0.1370875
0.19695,-1.0720501,8.299951,-0.1225125,0.2492875,0.084975
-0.102000006,-0.68895006,8.00595,-0.021724999,0.16499999,0.1265
-0.63495004,-0.75405,8.20005,0.1408,0.212575,-0.0556875
-0.69795,-0.14805001,8.32005,0.0644875,0.1530375,0.4923875
-1.21695,-0.16995001,11.395051,0.2431,0.223025,0.3113
-0.41295,-0.06705,11.280001,0.20845,0.21133749,0.3199625
-0.73605,-0.22005,11.58705,0.0163625,-0.2226125,0.7500625
-0.90300006,-0.27705002,9.670051,0.0433125,-0.0116875,0.1150875
-0.73605,-0.13395001,8.703,0.0631125,0.166375,-0.169675
-0.31905,-0.81105006,11.13195,0.0572,0.0314875,-0.136125
-0.88005006,0.066,9.27495,-0.1769625,-0.185075,0.4712125
-0.81000006,-0.141,8.89395,0.1166,0.0471625,-0.1439625
-0.51105005,-0.52605003,9.6,0.012925,0.0713625,0.1005125
-0.55605,-0.684,10.34895,-0.1772375,-0.054449998,0.381975
-0.90300006,-0.10695001,10.155001,0.0155375,0.0595375,0.0785125
-0.32895002,-0.15,9.066,0.1615625,0.0589875,-0.31845
-0.73095006,-0.56205004,9.35595,0.0158125,-0.1392875,0.091437496
-1.31805,-0.036000002,9.00195,-0.0818125,0.082775,0.1425875
-1.0639501,-0.093,9.052051,0.108899996,0.2514875,-0.3179
-0.73395,-0.024,10.26105,0.123475,0.0246125,-0.2435125
-1.3579501,-0.92100006,11.87895,-0.1051875,0.0521125,0.090475
-1.3270501,-1.5439501,12.360001,-0.256575,0.21573749,-0.02805
-0.73095006,-1.3429501,10.33005,-0.169125,0.1021625,-0.351725
-1.0159501,-0.89505005,7.8139505,-0.0985875,-0.0358875,-0.7337
-1.15005,-0.96000004,7.4820004,-0.09405,-0.1126125,-0.6122875
-0.93000007,-0.68205005,8.70705,-0.06435,-0.0116875,-0.58025
0.53895,-1.2420001,9.904051,0.144375,-0.061049998,-0.7374125
1.4320501,-0.864,9.153001,-0.003575,-0.6158625,0.028324999
2.2480502,-1.2420001,10.52595,0.034925,-0.6683875,0.32725
1.45605,-1.27995,11.30895,0.028875,-0.6477625,0.48565
0.50505,-0.93105006,10.651051,0.0506,-0.103125,0.1456125
0.55095005,-0.71295005,9.8560505,0.08525,0.326975,-0.2783
0.82095003,-0.81795,9.054001,0.1035375,0.2805,-0.423225
0.93900007,-1.07895,9.61005,-0.0204875,-0.0257125,-0.00275
0.16605,-0.97905004,10.1629505,-0.0570625,-0.0785125,0.126775
0.252,-0.56895,9.97395,0.0290125,0.225225,-0.1043625
0.51000005,-0.88500005,9.5449505,0.121275,0.1824625,-0.264
0.81195,-0.85395,9.5449505,-0.0319,-0.01485,0.0067375
0.59205,-0.87105006,9.80805,0.011825,-0.1494625,0.1786125
0.55095005,-0.77805007,10.036051,0.0092124995,-0.0281875,0.1596375
0.47205,-0.67200005,9.76305,0.0328625,0.0484,-0.043725
0.47205,-0.77805007,9.828,0.045649998,0.064075,-0.11385
0.71595,-0.68895006,9.732,0.0215875,-0.0053625,0.0391875
1.0540501,-0.522,9.50205,0.0331375,-0.1276,0.1331
1.83105,-1.14405,10.929001,0.0669625,-0.28765,0.3086875
2.3490002,-0.34005,10.287001,-0.051425,-0.326975,0.309925
0.98700005,-0.82095003,11.211,0.0732875,-0.23127499,-0.02365
2.23095,-1.55595,10.404,-0.132275,-0.0144375,0.19525
1.7809501,-0.98100007,7.5700502,-0.1552375,-0.229625,0.2443375
2.631,-0.51405,7.9170003,-0.0752125,-0.1505625,-0.056375
1.9699501,-1.7160001,9.873,0.14575,-0.1467125,-0.15895
-0.17805001,-0.81105006,6.9739504,-0.179025,0.36465,0.0974875
-1.6020001,-0.30795002,8.260051,0.0083875,0.870375,0.08965
-1.2910501,-1.5439501,11.26095,0.2534125,1.297725,-0.930325
-1.8970501,-0.88305,12.70905,-0.126225,0.5229125,0.4200625
-1.6840501,-0.61695004,11.90505,0.1343375,0.139425,0.2542375
-1.55505,-0.73695004,11.01,0.24915,0.1082125,0.14739999
-0.90795004,-0.024,9.030001,-0.08085,-0.0671,0.4852375
-0.717,-0.22200002,9.17205,0.0543125,-0.2195875,0.342925
-0.31905,-0.21300001,9.745951,0.012375,-0.280775,0.2250875
-0.37695003,-0.045,9.672001,0.020624999,-0.235125,0.1502875
-0.63105005,0.31995,8.343,0.1596375,-0.095837496,-0.2140875
-0.51795,-0.66,10.207951,0.1973125,-0.0077,-0.2985125
-0.48900002,-0.38505003,10.041,-0.229625,-0.09295,0.3169375
-1.2030001,0.061950002,8.937,-0.0834625,-0.0242,0.2259125
-1.0020001,-0.71295005,8.956051,0.113437496,0.28325,-0.3051125
-0.98700005,-0.124050006,9.708,-0.064075,0.1948375,-0.017875
-1.452,-0.42795002,11.3880005,0.0653125,0.0468875,-0.0845625
-1.8780001,-1.0819501,11.43105,-0.080025,0.128975,-0.0312125
-1.4800501,-1.16805,10.833,-0.2451625,0.15619999,-0.2409
-0.726,-0.933,8.248051,-0.10835,-0.0331375,-0.3821125
-1.1050501,-0.94995004,8.166,-0.073425,-0.109175,-0.3509
-0.49695003,-0.78495,7.69995,-0.0946,-0.1197625,-0.26427498
-0.42705002,-0.18195,7.48395,0.0187,-0.1516625,-0.3029125
0.261,-1.1340001,8.34105,0.2217875,-0.0941875,-0.6485875
1.338,-1.00995,9.591001,-0.1051875,-0.3180375,0.06985
1.74495,-1.95105,13.401001,-0.0160875,-0.6661875,0.1170125
1.52295,-0.79005,10.6390505,-0.007975,-0.532125,0.212575
0.64905006,-1.3570501,10.59105,0.1007875,-0.17407499,-0.1882375
0.58005005,-0.69600004,9.757951,-0.098037496,0.20899999,-0.2066625
0.93405,-1.23705,10.534051,0.01815,0.2047375,-0.17847499
0.71595,-1.0309501,9.868051,-0.028875,-0.073425,-0.0078375
0.44595003,-0.768,9.47595,-0.02585,0.07975,-0.072325
0.49605003,-0.957,9.495001,0.0435875,0.1574375,-0.17325
0.58005005,-0.79395,9.507001,0.01375,0.1117875,-0.061325
0.558,-0.90705,10.1320505,0.0339625,0.024475,0.088825
0.58395004,-0.72495,9.897,0.054175,-0.0121,0.06545
0.58395004,-0.62700003,9.580951,0.059125,0.0045375,-0.083325
1.1899501,-0.66495,9.528001,0.04895,-0.0468875,-0.001925
1.1370001,-0.55305004,10.620001,0.0419375,-0.2470875,0.19745
2.42505,-0.82800007,12.0390005,0.0840125,-0.1799875,0.21573749
2.3389502,-0.60495,9.526051,0.082225,-0.0886875,0.161425
2.25495,-0.897,9.96195,0.0116875,-0.4008125,0.22275
2.9640002,-0.615,10.14795,0.0077,-0.1167375,-0.0548625
1.6639501,-0.31605002,8.463,0.15675,-0.155925,-0.1205875
0.771,-0.651,7.3020005,-0.1236125,-0.093225,0.35805
-1.4059501,-1.0819501,8.644951,-0.2365,0.1881,0.4676375
-1.5640501,-0.46905002,9.34605,-0.1117875,1.0225875,-0.1318625
-2.21805,-0.061950002,9.373051,0.35227498,0.990825,-1.2846625
-1.4680501,-1.2919501,10.728001,0.2036375,0.70235,-0.70661247
-1.64505,-0.80205005,11.424001,-0.239525,0.175175,0.728475
-1.15005,-0.51000005,10.818001,-0.067925,0.047575,0.7624375
-1.61205,-0.42105,10.321051,0.093775,0.0044,0.2838
-1.248,-0.41895002,9.411,0.0122375,-0.0149875,0.4681875
-0.64005005,-0.624,9.58605,-0.0077,-0.093775,0.082775
-0.47295,-0.354,9.62895,-0.009075,-0.2149125,0.1662375
-0.80100006,-0.43800002,9.658051,0.050875,-0.2063875,0.1040875
-1.38705,-0.22695,8.997001,-0.00715,0.0473,0.067375
-1.52295,-0.26805001,8.923051,0.1051875,0.2644125,-0.45993748
-1.3729501,-0.10305001,10.684051,0.069575,0.22385,-0.1282875
-1.3920001,-0.117000006,12.741,0.0413875,-0.0603625,0.00935
-0.31500003,-0.708,12.05805,0.12155,-0.1428625,-0.40507498
-0.693,-0.66495,10.366051,-0.0864875,-0.2871,-0.006325
-0.528,-1.08405,9.294001,-0.020075,0.014162499,-0.41965
-0.52500004,-0.89505005,8.71905,-0.20075,2.75E-4,-0.0858
0.109950006,-0.68700004,8.260051,-0.0254375,0.006875,-0.59894997
0.56505,-0.342,7.7400002,0.080025,-0.2569875,-0.4103
1.83405,-0.43095002,8.427,0.0779625,-0.51919997,0.111237496
2.77005,-1.6540501,11.460001,-0.0133375,-0.81125,0.6292
1.5319501,-0.14295001,11.154,-0.0290125,-0.6098125,0.4543
0.65895003,-1.5480001,12.550951,0.1425875,0.1381875,-0.15619999
2.08995,0.26295,8.16405,-0.0924,0.3911875,-0.1318625
0.63195,-0.54495,9.366,0.1489125,-0.015262499,-0.4736875
1.55595,-0.66,9.538051,-0.0133375,-0.0081124995,-0.0906125
0.74505,-0.52905005,10.26795,-0.0325875,-0.1464375,0.291225
0.73305005,-0.31095,9.804001,0.076175,0.1959375,-0.06765
1.1010001,-0.261,9.36795,0.0281875,0.1230625,-0.0389125
0.55095005,-0.40395,9.603001,0.088275,0.0083875,-0.0694375
0.87900007,-0.34905002,9.568951,0.0033,0.105325,0.1606
1.13505,-0.58905005,9.741,0.0097624995,0.0198,-0.028324999
1.7740501,-0.69600004,9.717,-0.0719125,-0.1491875,0.0594
3.3730502,-1.0510501,9.67395,-0.0488125,-0.4563625,0.2556125
0.81900007,0.16695,10.77105,-0.0083875,-0.6425375,0.2820125
1.89795,0.45195,11.323951,0.1683,0.113437496,-0.318175
2.1690001,-0.15300001,11.721001,0.2486,-0.0191125,-0.2781625
-0.22605,0.10695001,8.928,-0.11385,-0.02365,0.034375
0.90300006,-0.66,8.346001,-0.164725,0.535975,-0.1692625
1.0510501,-0.75795,6.9310503,-0.0572,0.386925,-0.0086624995
-0.48000002,0.0019500001,7.9630504,-0.017324999,0.0812625,0.3356375
-1.61205,-0.864,8.7960005,0.0108624995,0.5556375,0.2638625
-1.8540001,-0.048,8.85795,-0.110275,0.819775,0.1593625
-1.4440501,0.93795,10.732051,0.1329625,0.3870625,0.088
-1.0540501,0.44700003,10.11495,0.3399,0.05775,-0.0796125
-1.81095,0.66495,11.008051,0.100099996,-0.0246125,0.2794
-0.80505,-0.25605002,9.94995,0.1766875,0.2270125,-0.1417625
-0.93195003,0.33900002,9.283951,-0.14245,-0.1035375,0.465575
-0.86505,0.39900002,9.342,-0.132,-0.2440625,0.5847875
-0.64500004,0.6,9.519,0.012375,-0.13859999,0.2800875
-0.55905,1.0360501,8.752951,0.154,-0.1175625,-8.25E-4
-0.67800003,0.44895002,10.431001,0.2319625,-0.1111,-0.0565125
-0.64695,0.66705,9.17595,0.0163625,-0.07755,0.108075
-0.34605002,0.31500003,9.559051,0.05335,0.073699996,0.02145
-0.59505004,0.39900002,10.29405,-0.0950125,-0.0155375,0.2410375
-0.72900003,0.79200006,9.31095,-0.1238875,-0.048675,0.2660625
-0.60705,0.483,9.448951,0.0867625,0.0581625,-0.16733749
-1.26195,0.72495,9.064051,0.0694375,0.0748,-0.3196875
-0.95595,0.32700002,9.30105,0.09625,0.1379125,-0.6081625
-1.49205,0.98100007,10.773001,-0.0627,-0.0198,-0.1656875
-1.28205,1.1580001,10.431001,0.07535,0.064075,-0.3194125
-0.23295002,-1.6369501,12.958051,0.107525,-0.0072875,-0.58959997
0.18195,-1.43805,9.40095,-0.48839998,6.875E-4,-0.1579875
-0.36495003,-0.93105006,8.229,-0.38953748,0.0154,-0.0994125
-0.042000003,-0.65805006,8.511001,-0.168575,-0.0798875,-0.2930125
-0.23595001,-0.31095,8.53995,0.056925,-0.10615,-0.707575
0.78795004,-0.060000002,8.467951,0.2116125,-0.066825,-0.85469997
1.5079501,0.117000006,9.613951,0.1175625,-0.601975,0.1343375
2.7199502,0.41595003,11.22795,0.181225,-0.88275,0.5262125
0.90795004,1.21305,9.92805,0.2462625,-0.64968747,0.4214375
1.932,0.093,11.661,0.1563375,-0.0339625,-0.0207625
1.09395,-0.34395,11.886001,0.0528,-0.086075,-0.043449998
1.695,0.55005,8.89395,-0.132275,0.172425,0.0253
0.48105,-0.29895002,10.392,0.043725,-0.082499996,-0.0891
0.81705004,0.507,8.96805,-0.212575,0.288475,0.007425
0.77805007,0.18105,10.024051,0.0638,0.128425,-0.1815
0.55305004,0.54495,9.430051,0.007975,0.11715,-0.1590875
1.3050001,-0.028050002,10.27005,0.0312125,-0.0163625,-0.039875
0.94305,0.20505,9.813001,-0.06985,-0.125675,0.15125
1.02495,0.32700002,9.246,-0.0177375,0.0119624995,0.131725
1.2210001,-0.01905,9.816001,0.045649998,-0.0325875,-0.0611875
1.5439501,0.057000004,9.849001,-0.0545875,-0.12979999,0.2187625
1.7550001,0.351,9.76305,-0.0132,-0.168575,0.20955
1.5589501,0.052050002,10.60095,0.09625,-0.1588125,0.20515
1.9770001,-0.10005,12.1710005,-0.0501875,-0.0177375,0.3157
1.9540501,0.38700002,9.483001,0.0015125,0.065175,0.15345
0.3,0.43995002,8.57295,0.140525,0.1684375,0.12155
-0.80505,-0.39900002,9.99705,-0.0111375,0.4648875,-0.0721875
-0.78900003,0.112050004,9.16005,-0.124575,0.4907375,-0.1291125
0.15795001,-0.56205004,8.382,0.04675,0.3977875,-0.2487375
-1.4490001,-0.10005,8.454,-0.268125,0.0930875,0.36987498
-1.6789501,-0.67905,8.88,-0.138325,0.4874375,-0.10285
-1.6170001,-0.28005,10.440001,-0.253825,0.3042875,0.3212
-1.9519501,-0.16005,11.26395,0.061875,0.172425,0.0488125
-0.89400005,-0.93600005,12.195001,0.16293749,0.17545,-0.1920875
-1.54005,-0.55005,10.49295,-0.2963125,-0.2325125,1.0429375
-0.68805003,-1.2709501,10.243951,-0.119625,-0.0235125,0.2387
-0.82395005,-1.1080501,9.691051,-0.19139999,-0.19855,0.44935
-0.92700005,-1.2060001,10.1629505,-0.203775,-0.10175,0.628375
-1.2360001,-0.65595,10.536,-0.083875,0.003575,0.3892625
-0.537,-0.85905004,10.002001,0.1626625,0.092675,-0.2388375
-0.42705002,-1.1890501,10.038,0.0578875,-0.091575,0.0605
-0.58695,-0.68205005,9.35805,-0.1095875,-0.1940125,0.31033748
-0.56595004,-0.54300004,9.37005,-0.0257125,-0.1379125,0.2396625
-0.67395,-0.29205,9.01095,0.0807125,-0.12155,-0.087037496
-0.98505,-0.27,9.054001,0.0829125,0.0122375,-0.2198625
-1.116,-0.25095,9.121051,0.105325,0.1672,-0.2729375
-1.2550501,-0.273,9.29895,0.012925,0.0308,0.0275
-0.23295002,-0.86595005,9.226951,0.0532125,0.0603625,-0.23265
-0.78900003,-0.34695002,10.536,-0.0037125,-0.1181125,0.0097624995
-0.86505,-0.49800003,11.90295,0.1824625,0.0182875,-0.514525
-0.90105003,-0.98100007,11.187,-0.0240625,-0.031625,-0.3306875
-1.54305,-0.483,9.00405,-0.093637496,0.0900625,-0.1681625
-0.78405005,-0.78195006,9.624001,0.028875,0.293425,-0.695475
-1.00395,-0.35895002,9.0400505,-0.1678875,0.0075625,-0.2762375
-0.93000007,-0.97605,9.658051,0.107525,0.1874125,-0.5979875
0.10095,-0.75405,7.563,0.0358875,0.050875,-0.2055625
0.87900007,-1.39995,10.15995,-0.064899996,-0.4477,0.5721375
2.0329502,-0.48795003,10.321051,-0.1645875,-0.88673747,0.68694997
1.9920001,-1.6369501,11.56305,0.0517,-0.8443875,0.2476375
1.2760501,-0.70095,9.042001,-0.2495625,-0.319825,0.3762
0.441,-1.4790001,10.56,-0.068475,-0.0237875,-0.003575
0.65400004,-1.029,9.568951,-0.0576125,0.3454,-0.3381125
0.58905005,-1.5289501,10.225051,0.0314875,0.192775,-0.4181375
0.75705004,-0.9480001,9.63105,-0.092675,0.099275,-0.1265
0.88395005,-1.23705,9.48795,0.037125,-0.014712499,-0.1728375
0.45495003,-1.299,9.739051,-0.02035,-0.073425,0.184525
0.46695003,-1.0890001,9.978001,-0.0100375,0.1258125,-0.0070125
0.40005,-1.1850001,10.231951,0.0356125,0.09515,-0.12375
0.44805002,-1.074,9.67905,0.006325,0.07865,-0.155375
0.441,-1.2780001,9.92805,6.875E-4,0.0242,-0.056649998
0.53895,-1.09095,9.717,-0.02805,-0.0048125,0.0609125
0.94605005,-1.05495,9.658051,0.024475,-0.0908875,0.1815
1.3740001,-1.2400501,9.946951,0.0374,-0.1837,0.119625
1.3240501,-1.2970501,10.174951,0.003575,-0.242,0.1161875
0.45000002,-0.61200005,10.825951,-0.0132,-0.1076625,0.1643125
1.14495,-0.96900004,11.368951,0.1925,0.1698125,-0.0996875
1.302,-1.0510501,9.92805,0.1269125,0.0650375,0.0955625
1.8220501,-0.9979501,7.6009502,0.03135,-0.110275,0.27335
1.7860501,-1.1410501,7.73505,-0.0554125,-0.364375,0.5077875
1.10595,-0.78495,9.495001,-0.0383625,-0.2057,0.1958
-0.48195,-0.651,8.24295,0.088825,0.2778875,-0.2107875
-1.8559501,-0.246,8.33205,0.0061875,0.7722,-0.372625
-1.8079501,-0.52905005,11.42205,0.15565,1.1004125,-0.95755
-1.19805,-1.01505,11.90505,0.110825,0.619025,-0.687225
-0.82695,-0.711,10.45695,-0.14093749,-0.047575,0.7137625
-0.91305006,-0.555,9.67905,-0.09075,-0.1769625,0.7668375
-1.2409501,-0.43095002,9.721951,0.0020625,-0.0449625,0.319
-1.215,-0.43995002,9.80595,0.080025,0.071225,0.089925
-0.74805003,-0.69600004,9.98295,0.01375,-0.0224125,0.2910875
-0.79305005,-0.15795001,9.66495,-0.015262499,-0.137225,0.2597375
-0.67800003,-0.30405003,9.916051,0.0694375,-0.144925,0.1117875
-0.53505003,0.078,9.064051,0.079475,-0.111375,-0.0408375
-0.67395,-0.24405001,9.48795,0.1310375,-0.0699875,-0.1810875
-0.528,-0.47805002,10.08405,-0.0627,-0.0427625,0.225225
-0.96795005,-0.12900001,9.21195,-0.0658625,-0.0232375,0.1964875
-0.88005006,-0.049950004,9.279,0.088275,0.0592625,-0.1794375
-0.86295,-0.26805001,9.64605,0.067375,0.08085,0.0125124995
-0.85305005,-0.26295,9.96405,-0.0572,0.018975,0.2176625
-0.76695,-0.40695003,10.31295,-0.0039875,0.03795,0.0132
-0.76695,-0.32505003,9.562051,-0.0396,0.009075,0.054175
-0.65205,-0.59595,9.625951,-0.0581625,-0.0169125,-0.0556875
-0.528,-0.80595005,9.98595,-0.13585,-0.0600875,0.0427625
-0.85800004,-0.711,9.397051,-0.095699996,-0.0339625,0.0449625
-0.68100005,-0.9670501,9.94005,-0.1219625,0.0180125,0.249975
-0.62805,-0.86895007,10.243951,-0.1010625,-0.03025,-0.17325
-0.59205,-0.83505005,9.873,-0.0099,-0.053075,-0.108625
-0.597,-0.72300005,9.516001,0.011825,-0.0306625,-0.19635
-0.64500004,-0.90195006,9.693001,-0.014025,-0.0232375,0.048125
-0.50595003,-0.98295003,10.01895,-0.0499125,-0.0224125,0.27335
-0.62595004,-0.84705,9.66495,-0.0265375,-0.0174625,-0.018975
-0.69795,-0.91395,9.918,-0.0039875,0.00275,-0.023924999
-0.68595004,-0.897,9.916051,0.003025,0.048675,-0.006325
-0.73800004,-0.711,9.559051,0.0111375,0.03135,-1.375E-4
-1.0690501,-0.43500003,9.705001,0.081675,0.0925375,-0.153725
-0.034950003,-0.93600005,10.52595,0.2124375,0.1804,-0.418275
-3.7230003,1.8229501,9.87495,0.22453749,-0.0011,-0.34925
-0.022950001,-0.60105,10.15995,0.82362497,0.46805,-1.7381375
-0.23295002,0.03795,9.460951,-0.36313748,-0.5231875,0.9559
-0.126,-1.4980501,9.769951,-0.100375,0.0312125,-0.3232625
-0.04695,-0.24105,7.8190503,-0.4937625,-0.263725,-0.0017875
-0.69495004,0.29595003,9.19095,0.053625,-0.0935,-0.7965375
1.04205,-1.5649501,10.825951,0.3108875,0.0521125,-1.3761
2.3719501,-1.33095,7.9819503,-0.338525,-0.5946875,0.3282125
2.35605,0.41595003,9.19995,-0.0969375,-0.95315,0.5819
3.1240501,-0.67200005,11.43795,0.349525,-0.5776375,-0.2633125
2.325,-1.1389501,10.9789505,0.1137125,-0.42515,-0.0891
2.3050501,-0.13095,7.4700003,-0.1425875,0.00165,0.1216875
1.6210501,-1.2250501,9.44505,0.0369875,-0.1062875,-0.1596375
2.2740002,-0.54795,9.241051,-0.18205,0.150425,0.014575
1.9440001,-1.6200001,12.15705,-0.1579875,0.075625,-0.0548625
1.7500501,-1.1389501,9.283951,-0.2156,0.187825,-0.2937
2.4420002,-1.2780001,9.636001,-0.11495,-0.0026125,-0.014712499
2.061,-1.0890001,10.2300005,-0.0669625,-0.1274625,-0.014712499
1.63995,-0.93105006,9.922951,0.059675,0.1478125,-0.194425
1.4479501,-0.61005,9.15705,0.0658625,0.242,-0.3839
1.7860501,-0.86595005,9.220051,0.0928125,0.12045,-0.1397
2.0040002,-0.708,9.42105,0.0094875,-0.0281875,0.1131625
2.70495,0.064050004,9.82005,0.1304875,-0.139975,0.0429
3.4999502,-0.84495,10.243951,0.2542375,-0.44055,0.124575
1.8079501,0.41595003,8.78895,0.1507,-0.4767125,0.3377
3.10695,-0.43800002,10.500001,0.21835,0.117699996,-0.1640375
1.3069501,-0.53805,12.453001,0.0540375,0.296175,-0.04235
1.67295,-0.177,9.318001,-0.12265,0.6076125,-0.0015125
1.437,-1.06005,9.828,-0.0103124995,0.117699996,0.0592625
1.6849501,0.35595003,8.03205,0.0287375,0.325325,-0.0092124995
0.78300005,-0.924,7.5319505,0.238975,0.2024,-0.28765
0.01695,-0.91395,7.9459505,-0.3223,0.4065875,0.080575
-0.609,-2.1060002,9.423,-0.3707,0.581625,-0.1881
-1.7580001,-1.3069501,10.816051,-0.68145,0.381975,0.7722
-2.0719502,-1.3429501,13.486951,-0.0394625,0.523325,-0.234025
-0.504,-2.60205,12.903001,0.229625,0.363825,-0.2352625
-1.0879501,-1.0819501,9.847051,-0.197725,-0.1621125,0.8936125
-0.73800004,-1.302,9.220051,-0.091437496,-0.1549625,0.43408749
-0.291,-1.58895,10.452001,-0.0944625,-0.2589125,0.5372125
-0.80805004,-1.0669501,9.885,-0.0845625,-0.3234,0.5014625
-0.564,-1.16505,10.641001,0.0523875,-0.075075,0.1357125
-0.63105005,-1.0170001,9.592951,0.1337875,0.043725,-0.3026375
-0.22095,-1.3260001,10.033051,0.0158125,-0.083875,0.237325
-0.09,-1.2420001,10.28505,-0.043449998,-0.1601875,0.4255625
-0.20505,-1.0390501,9.708,0.033825,-0.0699875,0.113299996
-0.61095005,-0.81600004,9.436951,0.0416625,-0.022824999,0.093775
0.18705001,-1.2400501,9.78705,0.0682,0.1029875,-0.02365
-0.109050006,-0.88500005,9.5119505,-0.0375375,-0.18727499,0.2211
-0.51600003,-0.75600004,9.58605,0.0275,-0.1057375,0.0048125
0.10305001,-0.99300003,9.507001,0.100099996,0.12705,-0.2476375
0.46005002,-1.0000501,9.700951,0.067925,0.0143,-0.266475
0.273,-0.72495,9.436951,-0.084975,-0.221925,0.1827375
0.12705001,-0.70605004,9.50895,0.131725,-0.0493625,-0.2105125
-0.47505003,-0.63405,9.4129505,0.084975,0.0121,-0.013612499
-0.597,-0.72300005,9.50895,0.0529375,0.2061125,0.0435875
-0.18105,-0.10695001,10.02105,-0.013475,0.0347875,-0.0286
-0.46500003,-0.23400001,12.228001,0.1772375,-0.161975,-0.40205
-0.66195005,-1.06005,10.617001,0.0682,-0.0658625,-0.1117875
-1.7410501,-0.90000004,9.648001,-0.2888875,-0.061875,0.5077875
0.024,-0.96000004,8.66895,-0.1236125,0.394625,-0.2897125
0.33495003,-0.040050004,7.4460006,-0.0209,-0.190025,-0.0108624995
0.38805002,-0.85395,8.86095,0.175725,-0.2965875,-0.1725625
0.8880001,-1.2709501,9.70995,-0.097625,-0.155925,-0.0551375
0.9480001,-0.744,9.0400505,-0.1247125,-0.1841125,-0.1684375
0.65895003,0.040050004,8.260051,0.04235,-0.1145375,-0.4580125
2.112,-0.01905,10.078951,0.1772375,-0.12705,-0.30525
0.90795004,-0.81405,11.470051,0.1310375,-0.42185,-0.1104125
1.09905,-0.50205004,10.63395,-0.0246125,0.006875,-0.1148125
0.79695004,-0.62205005,9.48495,-0.002475,0.0433125,-0.1989625
1.2550501,-0.63600004,9.129001,-0.072875,0.0402875,-0.0224125
0.67095006,-0.45705003,9.78195,-0.0686125,-0.0413875,0.2853125
0.64695,-0.51405,10.024051,0.0411125,0.1799875,-0.21395
0.94095004,-0.58395004,9.45195,0.0358875,0.1676125,-0.1975875
0.312,-0.38505003,9.59805,0.009075,0.0578875,0.015125
0.48600003,-0.42795002,9.83205,0.0174625,0.1683,-0.0358875
0.57000005,-0.43800002,10.143001,-8.25E-4,0.05115,-0.1029875
0.73305005,-0.69105005,9.859051,-0.0070125,0.007425,-0.0499125
0.49305,-0.63195,9.555,-0.019524999,-0.0165,0.0726
0.666,-0.52395004,9.604951,-0.009075,0.0125124995,0.0419375
0.58905005,-0.44295,9.873,0.0154,-0.0308,0.0121
0.51000005,-0.38505003,9.74895,0.046475,5.5E-4,0.003575
0.61995006,-0.423,9.8539505,0.0391875,0.01265,-0.1126125
0.69195,-0.50205004,9.8560505,0.0088,-0.0044,0.06435
0.70605004,-0.39195,9.945001,0.0028875,-0.0380875,0.0760375
1.2,-0.804,10.486051,0.0642125,-0.0213125,-0.1420375
1.2090001,-0.26295,9.35595,-0.016775,-0.0919875,0.2206875
1.24695,-0.41895002,9.672001,0.0471625,-0.17985,0.1364
0.88095003,-0.35595003,10.82295,-0.003025,-0.103125,0.0422125
0.64905006,-0.63600004,11.625001,6.875E-4,0.0672375,0.0705375
2.2480502,-1.1340001,11.491051,-0.0339625,0.0482625,0.040425
2.6809502,-0.18195,7.8030005,-0.04015,-0.3100625,0.4497625
1.4820001,-0.94305,9.721951,0.1450625,-0.5797,0.4202
0.69195,0.13305001,8.394,-0.0031625,0.055275,0.2168375
-0.49395,-0.46395,9.59805,0.124025,0.352825,-0.2019875
-0.34605002,-0.65595,7.97205,-0.0543125,0.6601375,-0.203225
-1.8370501,0.26700002,8.66895,-0.11385,0.4745125,0.1463
-2.5530002,0.17595,11.527051,0.25135,0.8789,-0.7979125
-0.91305006,-0.651,11.448001,0.1610125,0.53075,-0.3606625
-1.31505,0.54,8.856,-0.2704625,-0.1731125,0.9845
-0.40095,-0.46395,10.206,0.09845,-0.0444125,0.0188375
-0.53205,0.21495001,9.724951,-0.0270875,-0.206525,0.309375
-0.822,-0.045,9.744,0.1577125,-0.06325,-0.0592625
-0.303,0.0,9.38895,0.037675,0.0020625,0.0287375
-0.50595003,0.35595003,8.985001,-0.0253,-0.15565,0.2880625
-0.71895003,0.17400001,9.571051,0.1067,-0.043725,0.0116875
-0.38895002,-0.112050004,10.15995,0.0125124995,0.0149875,0.155375
-0.504,0.022950001,9.724951,-0.0474375,-0.0471625,0.1841125
-0.88005006,0.17595,9.448951,0.0078375,0.0389125,-0.0144375
-0.82695,-0.0019500001,9.868051,0.024475,0.113025,-0.02255
-0.92505,0.076050006,9.427951,-0.0341,0.055275,0.021724999
-0.753,-0.031050002,9.625951,-0.0039875,0.0611875,-0.013475
-0.84795004,-0.16695,9.82005,-0.0477125,-0.0097624995,0.152075
-0.71400005,0.057000004,9.49995,-0.0429,0.0204875,0.0375375
-0.73605,-0.061950002,10.066951,0.0320375,9.625E-4,-0.0400125
-0.49395,-0.13095,11.029051,0.0526625,-0.0174625,-0.1214125
-1.5949501,0.51195,10.861951,0.056925,-0.0600875,-0.050049998
-2.739,0.66705,9.49005,0.0785125,0.097625,-0.3513125
-1.2600001,-0.109950006,9.816001,0.0061875,0.0606375,-0.3246375
-0.432,-0.462,9.109051,-0.0906125,-0.185075,-0.41799998
-0.049050003,-0.62895006,10.13595,-0.2453,-0.18535,-0.4742375
-0.123,-0.009000001,9.28905,-0.1505625,-0.2014375,-0.4420625
0.15105,-0.043050002,7.4749503,0.094325,-0.1934625,-0.5113625
1.4989501,-1.07895,8.39595,-0.043175,-0.26565,-0.093775
1.9800001,-1.2589501,11.42205,-0.2193125,-0.6516125,0.5377625
0.99405,-0.63195,10.75905,-0.0741125,-0.49101248,0.494725
1.4170501,-0.16005,10.729951,0.097625,0.1018875,-0.2550625
1.6900501,-0.90195006,10.708051,0.1706375,-4.125E-4,-0.4098875
1.281,-0.80895007,9.088051,0.0325875,0.0180125,-0.06875
1.0390501,-0.82605004,9.934951,-0.0779625,0.1079375,0.039875
0.52005005,-0.22905001,9.588,-0.0539,0.0895125,0.0485375
0.93600005,-0.27495003,9.769951,0.147675,0.2292125,-0.344025
0.73305005,-0.49800003,9.684,0.1122,0.0719125,-0.18053749
0.69000006,-0.31605002,9.904051,0.0154,0.0213125,0.1958
0.82905006,-0.35895002,10.005,0.032175,0.0218625,0.13035
0.71595,0.054,10.065001,0.0661375,0.057475,-0.140525
1.0129501,0.10695001,9.18105,0.1051875,-0.0752125,-0.0268125
1.245,0.28395,8.844001,0.11495,-0.1714625,-0.0397375
1.1880001,-0.024,10.74705,0.11055,-0.179575,0.2140875
1.8750001,-0.14295001,10.876051,-0.040975,-0.0103124995,0.227975
0.711,0.24300002,10.72305,-0.0457875,-0.1238875,0.403975
1.3789501,-0.0019500001,9.15705,0.0897875,0.1582625,-0.150425
-0.11100001,-0.29700002,8.48205,0.0507375,0.0391875,-0.0787875
-0.33600003,-0.66495,7.4100003,-0.1447875,0.3817,0.00385
-1.746,-0.46605003,8.877001,-0.3232625,0.6018375,-0.139425
-1.30095,-0.864,9.082951,-0.33467498,0.4211625,0.1794375
-0.61905,-1.338,9.373051,-0.27513748,0.2409,0.2343
-1.6170001,-1.5169501,11.08695,-0.0724625,0.29315,0.0328625
-1.7869501,-1.2349501,12.085051,-0.10065,0.300575,0.27335
-1.29795,-1.5340501,10.287001,0.10175,0.2432375,0.058025
-0.33900002,-1.5990001,8.892,-0.1731125,-0.06435,0.62273747
-0.291,-1.4569501,9.01395,-0.312675,-0.41387498,0.886325
-1.7910001,-0.55305004,8.797951,-0.125675,-0.350625,0.4497625
-1.5109501,-0.75600004,10.053,0.1687125,0.16445,-0.1166
-0.64995,-0.90195006,8.949,0.1947,0.2288,-0.17847499
-2.115,-0.061950002,8.94705,0.0078375,-0.1183875,0.39214998
-2.8140001,0.049950004,10.18395,0.410025,0.325325,-0.27225
-1.88205,-0.38295,10.80405,0.0397375,0.2294875,0.1909875
-1.78005,-0.23400001,9.49695,-0.036575,0.0950125,0.218625
-2.2369502,0.112050004,8.406,0.2297625,0.132275,-0.0644875
-2.811,1.6129501,10.78695,0.357225,0.2325125,-0.4855125
-2.8540502,0.38205,13.573951,0.6650875,-0.0551375,-0.89485
-3.867,-0.65805006,9.424951,0.0622875,0.175725,-0.3645125
-1.914,0.91605,8.073,-0.064899996,0.3760625,-0.26345
-1.6860001,-0.37995002,10.953,0.5093,-0.2091375,-1.1955625
-0.10605001,-0.72705,8.425051,0.0298375,-0.26221249,-0.604725
-0.75495005,-0.58905005,8.478001,-0.1843875,-0.38334998,-0.060225
0.18195,-0.41595003,6.879,-0.16499999,-0.34045,-0.1155
2.0680501,-0.54300004,7.386,-0.1720125,-0.56993747,0.19305
3.49005,0.94995004,10.46895,0.0831875,-0.87725,0.163625
2.028,0.057000004,13.212001,0.5597625,-0.851125,-0.439175
0.522,-0.31995,11.215951,-0.0537625,0.1049125,-0.092125
0.89100003,0.14295001,9.208051,-0.1782,0.289575,-0.032725
1.2739501,-0.10005,8.82195,-0.1012,0.144925,-0.16335
0.56505,0.0019500001,9.865951,-0.10395,-0.0309375,0.0180125
1.302,-0.52605003,10.404,-0.026675,0.0347875,-0.0127875
0.83805007,0.18105,9.708,-0.0856625,-0.109725,0.2292125
0.92205006,-0.14595,9.64995,0.0743875,0.1137125,-0.2784375
0.85005003,-0.18195,9.40905,5.5E-4,0.0790625,-0.0930875
1.1400001,-0.124050006,9.684,-0.014162499,0.0451,0.027224999
0.97200006,-0.076050006,9.90705,0.0297,-0.0132,-0.0589875
1.149,0.042000003,9.121051,0.0088,-1.375E-4,-0.072875
0.45000002,0.30600002,10.440001,0.0449625,-0.0697125,0.11385
0.84105,0.68595004,9.837001,0.10285,0.0856625,-0.2259125
1.79595,-0.20295002,10.111951,0.1747625,-0.115775,-0.091575
3.3040502,0.42795002,11.505,-0.2343,-0.3036,0.7866375
1.6210501,0.47100002,8.08695,0.0864875,-0.439725,0.19607499
3.7339501,-0.057000004,7.76205,0.139975,0.1442375,-0.480975
3.2650502,-0.88095003,6.56295,-0.0262625,-0.4566375,0.2567125
0.20595,-0.012,9.150001,-0.0457875,-0.4016375,0.4123625
1.9099501,-1.6300501,12.54705,0.07975,0.6628875,-0.4948625
-0.37005,-1.5169501,10.902,-0.2365,0.78113747,-0.4360125
-0.81195,-1.1220001,8.88405,-0.60445,0.805475,-0.176825
-1.07595,-1.33095,11.781,-0.24213749,0.6604125,-0.158125
-1.2739501,-0.86100006,11.223001,-0.0713625,0.2088625,0.430925
-0.88395005,-1.12905,12.846001,0.0270875,0.1406625,0.427075
-1.19805,-0.16995001,8.93505,0.0044,-0.107525,0.67155
-0.717,-0.49005002,9.813001,0.088275,0.072875,0.2891625
-0.81000006,-0.47595003,9.5119505,0.1527625,0.1139875,-0.22385
-0.87705004,-0.63900006,9.918,-0.0015125,-0.0231,0.2179375
-0.88005006,0.010950001,9.59805,-0.011275,-0.0451,0.2314125
-0.50100005,-0.021000002,9.448951,0.22,-0.020075,-0.109037496
-1.07805,-0.22695,9.523951,0.1098625,-0.0273625,0.1626625
-1.07295,-0.076050006,10.227,0.0064625,0.056649998,0.223025
-0.64305,0.064050004,9.74895,0.0611875,0.0391875,-0.0627
-0.61605,-0.064050004,9.117001,0.05995,-0.129525,0.056925
-0.83595,-0.109950006,9.3820505,-0.015262499,-0.055275,0.152625
-0.762,-0.031050002,9.46605,-0.0182875,0.060775,-0.0196625
-0.87495005,-0.14595,10.6390505,0.0452375,0.0455125,-0.2168375
-0.15405001,-0.79005,13.179001,0.079475,-0.0048125,-0.1837
-2.1340501,0.39705002,10.870951,0.032449998,0.016775,-0.04235
-0.17805001,-0.72495,9.63105,0.17545,0.301125,-0.7654625
0.28500003,-0.684,8.66895,-0.3249125,-0.2369125,0.3889875
0.13005,0.24300002,7.7070003,-0.2154625,-0.2583625,0.0743875
-0.597,0.42105,7.0750504,0.014025,-0.31501248,-0.327525
-0.16395001,0.28395,8.2879505,0.0055,-0.0968,-0.3509
0.120000005,0.70095,9.99705,0.2695,-0.0653125,-0.7709625
2.1450002,0.67395,11.580001,0.4274875,-0.3014,-0.6821375
1.79295,1.35405,10.857,0.276925,-0.7712375,0.195525
2.2770002,0.37305,11.56305,0.142175,-0.289025,-0.2319625
1.60395,-0.19095,10.88805,-0.08305,-0.134475,-0.039875
1.6350001,0.0139500005,9.61905,-0.234025,0.064625,0.1868625
1.95105,0.09,9.946951,-0.13365,-0.0495,0.21573749
1.0200001,0.0139500005,10.28205,0.0165,-0.0122375,0.182325
0.99105006,0.13095,9.49695,-0.0416625,0.2968625,-0.1016125
1.1850001,-0.22200002,9.67695,-0.0394625,0.20253749,-0.0059125
0.96000004,-0.22695,10.31295,-0.1296625,0.0441375,0.1527625
0.18900001,0.33405003,8.752951,-0.0581625,0.07535,0.0539
-0.24000001,-0.23895001,9.873,0.02255,0.2501125,-0.1860375
0.29700002,-0.651,10.11705,-0.1607375,0.133925,-0.01815
0.333,-0.68700004,9.40905,-0.2787125,-0.0609125,0.2223375
0.55305004,-1.1509501,10.2630005,-0.183975,0.0143,0.069025
0.24000001,-0.77505004,9.670051,-0.1370875,0.060775,0.09295
0.64695,-1.20105,10.087951,-0.0224125,0.1227875,0.0342375
0.41400003,-0.78000003,9.72,-0.0908875,-0.0603625,0.2347125
0.35205,-0.88500005,9.8560505,0.047025,-0.0232375,0.2800875
0.063,-0.63600004,9.877951,0.0292875,0.044,0.0510125
0.24000001,-0.735,9.816001,0.0878625,0.1590875,-0.3350875
0.26595002,-0.66,9.576,0.0273625,0.044275,-0.0881375
0.47400004,-0.98805004,10.371,0.006325,-0.052525,0.1249875
0.17505,-0.62700003,9.700951,-0.026675,-0.036575,0.15125
-0.03705,-0.56895,9.77505,0.040425,0.0683375,-0.146575
0.17505,-0.53595,9.715051,0.0433125,0.077825,-0.09735
0.06705,-0.64095,10.155001,0.039325,0.028324999,-0.108899996
0.10605001,-0.59295005,9.732,-0.0015125,-0.0350625,0.058849998
0.40695003,-0.76605004,9.765,0.0081124995,-0.044825,-0.032725
0.44595003,-0.69600004,9.729,-0.0342375,-0.0768625,0.0911625
0.36705002,-0.58605003,9.765,-0.0237875,-0.0430375,0.0138875
0.31395,-0.69600004,9.916051,0.0191125,-0.0045375,-0.077
0.261,-0.62895006,9.777,0.0182875,0.0066,0.1137125
0.46500003,-0.66795003,9.712951,0.00275,-0.006325,0.0418
0.25605002,-0.60105,9.933001,0.0067375,-0.0196625,0.0309375
0.30195,-0.49800003,9.898951,0.0251625,0.0138875,0.078375
0.28500003,-0.31800002,9.696,0.047025,0.0119624995,-0.0603625
0.13695,-0.25605002,9.739051,0.1197625,0.0196625,-0.0312125
0.35895002,-0.27705002,9.913951,0.1087625,0.0504625,0.0466125
0.10095,-0.052050002,10.069051,0.0702625,0.0119624995,0.1441
0.028950002,0.102000006,9.49695,0.074525,0.0246125,0.004675
0.15405001,-0.22005,9.777,0.0906125,0.0631125,-0.167475
0.13905,-0.061950002,9.397051,-0.0292875,0.0020625,0.0815375
0.216,-0.25800002,9.93795,-0.0094875,-0.0044,0.0072875
0.076950006,-0.12705001,9.84195,-0.0100375,-0.0037125,0.0044
0.156,-0.23895001,10.024051,0.0031625,0.0171875,0.0378125
0.13005,-0.31995,9.741,-0.033,0.0116875,-0.07755
0.09105001,-0.28905,9.69795,-0.045925,-0.0056375,0.0699875
0.16305001,-0.43800002,10.042951,-0.0339625,-0.0061875,0.031625
0.109950006,-0.33705002,9.727051,-0.077,-0.035475,0.079475
0.15795001,-0.47400004,9.945001,-0.013612499,-0.0012375,0.0320375
0.06705,-0.342,9.516001,-0.0358875,-0.0083875,-0.032175
0.28305,-0.49800003,9.64605,-0.0083875,0.0323125,0.041249998
0.14400001,-0.402,9.880051,-0.0229625,-0.012375,-0.053625
0.41400003,-0.60795003,9.918,-0.0015125,-0.006875,-0.124025
0.36705002,-0.42795002,9.712951,-0.049225,-0.0831875,0.0862125
0.22305001,-0.45405003,9.97605,-0.0015125,-0.0864875,0.2035
0.23700002,-0.354,9.712951,0.0088,-0.012925,-0.0202125
0.216,-0.43305,9.8539505,0.048675,0.0196625,-0.14905
0.40695003,-0.57705003,9.922951,0.008525,0.013062499,-0.0671
0.381,-0.47400004,9.79905,-0.0199375,-1.375E-4,-0.088275
0.42405003,-0.45405003,10.002001,0.0031625,-0.0097624995,0.075625
0.31395,-0.342,9.816001,0.00165,-0.02475,0.162525
0.23700002,-0.615,10.026,0.0089375,0.01045,0.043449998
0.28995,-0.51900005,10.030951,-0.059125,-0.0323125,0.0983125
0.21795002,-0.30795002,9.660001,-0.032175,-0.0213125,0.152625
0.13005,-0.34695002,9.66495,0.052249998,0.054725,-0.13145
0.18705001,-0.58395004,10.242001,0.0264,0.0488125,-0.0925375
0.094050005,-0.34395,9.74895,0.0023375,0.0462,-0.0364375
-0.16095,-0.18405001,9.825001,0.0686125,0.081125,-0.004675
0.07005,-0.28500003,10.182,0.0603625,0.055825,0.044825
-0.10605001,0.018000001,9.49995,0.028324999,0.0264,0.0776875
-0.08205,-0.20595,9.72,0.07535,0.077,-0.21367499
-0.08505,-0.19605,9.745951,-0.0158125,0.013475,0.1260875
-0.16395001,-0.162,9.96195,-0.005775,0.00605,-0.012375
-0.06795,-0.09105001,9.519,0.008525,0.0026125,0.0064625
-0.17295001,-0.22200002,9.79605,0.032725,0.0138875,-0.0627
-0.09705,-0.25305,9.729,-0.0207625,5.5E-4,0.0094875
-0.17595,-0.19605,9.9210005,-0.0119624995,0.005225,-0.0363
0.01695,-0.21000001,9.868051,0.018975,0.0396,-0.1095875
-0.039,-0.22905001,9.780001,-0.00715,-0.034925,-0.0265375
-0.015000001,-0.23895001,9.736951,-0.0185625,-0.014162499,-0.039875
0.16095,-0.21495001,9.64605,-0.0209,-0.060775,0.0301125
0.28500003,-0.031050002,9.70995,0.0246125,-0.0581625,0.07425
0.43395,-0.124050006,10.311001,0.0385,-0.14355,-0.0011
0.9889501,-0.39195,11.005051,0.0215875,-0.2112,0.1441
0.82905006,-1.1580001,11.812051,0.014025,-0.2453,0.3531
0.38295,-1.098,11.625001,-0.2552,-0.194425,0.680625
-0.18105,0.12900001,8.620951,-0.128975,0.0848375,0.154
-0.86805004,-0.25605002,9.63405,0.071775,0.028875,-0.1123375
-1.4640001,-0.58605003,9.732,-0.065175,0.2833875,-0.0078375
-1.2430501,-1.0530001,7.5150003,-0.214225,0.4554,0.09075
-0.9799501,-1.2900001,8.214001,-0.3551625,0.462275,0.298375
-2.04795,-0.78195006,9.094951,-0.1656875,0.2992,0.2454375
-2.148,-1.5150001,12.066001,0.2558875,0.7101875,-0.306625
-2.7799501,-0.23205002,10.74195,0.0650375,0.1854875,0.19745
-1.6810501,-1.338,10.917001,0.1491875,0.1758625,0.0757625
-1.9900501,-0.69405,9.258,-0.1194875,-0.0642125,0.4745125
-1.6650001,-1.1370001,9.11205,-0.1744875,-0.150975,0.3386625
-1.296,-1.6180501,10.45005,-0.1986875,-0.091437496,0.4813875
-1.50405,-1.0030501,9.543,-0.13915,-0.0969375,0.3229875
-1.27005,-1.3260001,9.64305,0.0012375,-0.0559625,0.1343375
-1.0710001,-1.149,9.62895,8.25E-4,-0.013475,0.10175
-1.4970001,-0.9670501,9.097051,0.012375,-0.0897875,-0.0221375
-1.45395,-1.4479501,9.94005,-0.0548625,-0.061875,0.17215
-1.863,-1.10595,10.14105,-0.0644875,-0.0149875,0.0290125
-2.019,-1.0360501,9.82995,0.0653125,0.1346125,-0.1098625
-1.8870001,-0.74700004,9.258,0.030524999,0.15619999,0.0286
-1.12605,0.13800001,9.492001,0.1678875,0.111925,-0.1263625
-0.13995,-1.3470001,12.802951,0.3801875,-0.4200625,-0.4763
-1.2529501,-2.733,10.95495,-0.031075,-0.3271125,-0.135025
-1.6570501,-1.27995,9.849001,-0.3581875,0.308,-0.264
-1.11195,-0.21795002,7.2349505,0.094325,0.293425,-1.08735
-0.54195005,-1.02705,7.2619505,0.3711125,-0.0317625,-1.2881
0.25605002,-1.6369501,7.4119506,-0.29645,-0.5916625,0.2864125
1.7809501,-1.9789501,10.62705,-0.291225,-0.6276875,0.3620375
1.8460501,-1.1920501,9.411,-0.025575,-0.747175,0.08305
1.48395,-0.51705,10.96695,0.1181125,-0.7316375,-0.1032625
1.812,-0.45000002,10.6369505,0.262625,-0.4098875,-0.2899875
2.868,-1.35195,10.407001,0.09295,-0.1216875,-0.1431375
1.5799501,-0.82305,10.290001,-0.0397375,-0.258225,0.10175
1.9369501,-0.86595005,8.85105,-0.032725,0.025575,-0.0928125
1.8030001,-0.97905004,9.607051,0.006875,-0.041249998,0.03795
1.7070001,-1.455,10.14105,-0.0427625,0.052249998,-0.044275
1.3960501,-0.56505,8.743051,-0.1794375,0.031625,0.32381248
0.98700005,-1.24695,9.98805,0.0873125,0.1747625,-0.1596375
1.26405,-0.99495006,9.62895,-0.0328625,0.1370875,0.2250875
1.7410501,-1.077,9.877951,6.875E-4,0.13653749,0.0638
1.1880001,-1.5439501,11.982,0.0446875,0.013612499,0.0270875
0.80205005,-1.2400501,11.053051,-0.0389125,0.0785125,0.0056375
0.9979501,-1.0669501,9.892051,0.0188375,0.19305,0.006875
0.62295,-1.3759501,10.491,-0.066825,-0.0339625,0.164725
0.41700003,-0.58095,9.691051,-0.039875,0.0193875,0.1056
1.5829501,-0.99495006,9.265051,0.154275,0.053075,-0.029424999
1.60905,-0.933,10.728001,0.0627,-0.2794,0.1736625
-0.28605002,-0.84900004,12.666,0.065175,-0.092125,0.198275
0.56505,-0.71295005,10.213051,0.0523875,0.22715,0.124437496
0.29205,-0.711,9.507001,-0.0785125,-0.155925,0.53295
-0.38205,-0.73200005,9.109051,0.0133375,-0.1593625,0.33261248
1.01505,-0.84705,7.97205,0.1164625,0.6120125,0.02035
-1.4640001,-0.47100002,8.08005,0.0677875,0.3081375,0.207625
-2.4550502,-0.31305,9.238951,0.029975,0.505175,0.004675
-2.11905,-1.26405,9.35595,0.048675,0.7781125,-0.26015
-1.54305,-1.04595,10.717951,-0.4321625,0.18287499,0.631125
-1.5690001,-0.46605003,11.41695,0.1843875,0.2019875,-0.1071125
-1.0900501,-0.44295,10.675051,0.4156625,0.0163625,-0.17435
0.055050004,-1.3230001,10.91895,-0.0089375,-0.2410375,0.517825
-0.21195,-0.73695004,9.121051,-0.351725,-0.5889125,0.9948125
-0.46800002,-1.36395,11.041051,-0.0823625,-0.2066625,0.367675
-0.98205006,-0.61005,9.406051,-0.0639375,-0.05335,0.1331
-1.107,0.14805001,7.5340505,0.1417625,0.067925,-0.2074875
-0.9799501,-0.10305001,8.65905,0.2193125,0.1043625,-0.20047499
-0.37695003,-0.13395001,8.746051,0.18287499,0.0605,-0.1563375
-0.94695,0.36600003,9.030001,0.1401125,0.0545875,-0.059125
-1.116,1.1839501,10.6369505,0.28215,-0.0996875,-0.3207875
-0.126,0.30795002,11.781,0.38005,-0.090475,-0.4494875
-1.57095,0.21495001,10.01895,0.007425,-0.1335125,0.1970375
-1.389,0.37500003,10.10505,-0.0182875,0.2228875,-0.0782375
-1.9260001,0.23895001,9.34395,0.0771375,0.045375,-0.5248375
-1.41795,-0.26505002,7.8769503,-0.10285,0.09845,-0.363
-1.31805,0.51405,7.14195,-0.13805,0.1016125,-0.316525
-0.60405004,0.09705,8.47995,0.197175,-0.1101375,-0.5973
0.67095006,-0.44505003,8.71905,-0.106975,-0.426525,0.0405625
1.6969501,0.009000001,11.09595,-0.351175,-0.83187497,0.781275
1.401,-0.36795002,11.994,0.0279125,-0.7123875,0.3752375
1.12995,-0.282,11.781,-0.0297,0.0595375,-0.114675
0.73005,-0.34395,11.22795,0.0532125,0.005225,-0.179575
0.46500003,-0.45000002,9.736951,-0.0221375,0.19607499,-0.328625
-0.26205,-0.23895001,9.724951,-0.050325,0.234025,-0.1903
-0.35505003,0.38205,9.243,0.0105875,0.23595,-0.208175
0.22800002,0.22005,9.552,0.1082125,0.1467125,-0.239525
-0.079950005,0.23400001,10.09305,0.09845,0.02695,-0.14135
-0.102000006,0.12900001,9.564,0.0881375,0.06765,-0.2871
-0.31005,0.18105,9.550051,9.625E-4,0.0584375,-0.0199375
0.22305001,0.052050002,9.13605,-0.019524999,-0.065175,0.0116875
1.70895,-0.51000005,9.67905,-0.13145,-0.23375,0.29975
1.8550501,-0.49005002,9.85095,-0.117699996,-0.5545375,0.4173125
1.9369501,-0.62895006,11.721001,-0.116875,-0.367675,0.2528625
2.6089501,-1.07895,9.214951,-0.039049998,-0.391875,0.275
2.3490002,-0.38700002,11.476951,-0.095425,-0.2000625,0.1370875
1.161,-0.35595003,7.1250005,-0.1057375,-0.2272875,-0.02475
1.626,-1.7040001,9.865951,0.00495,0.1601875,-0.259875
0.97695005,-0.43305,9.406051,-0.20019999,0.1183875,0.3092375
0.74700004,-1.1920501,8.86095,0.0510125,0.323675,-0.2398
2.2380002,-2.2780502,8.535001,-0.12265,0.3202375,0.0589875
-0.38895002,0.51900005,7.4080505,-0.24365,-0.1159125,0.787325
-1.16205,0.36795002,10.48095,0.5127375,0.8190875,-1.33375
-0.777,-0.26805001,11.434051,0.2586375,0.586575,-0.67045
0.41400003,-1.0339501,11.236951,0.0026125,0.194425,0.466125
-1.0330501,-0.072000004,9.83205,-0.2629,-0.188925,1.302675
0.052950002,-1.065,10.14795,0.055275,0.1923625,-0.0748
0.29700002,-0.77295005,9.45705,-0.15125,-0.0567875,0.14973749
-0.45795003,-0.87600005,10.005,-0.0878625,-0.0397375,0.0919875
-0.36705002,-0.91200006,9.97095,-0.0699875,0.0823625,0.3004375
-0.57600003,-0.76095,9.729,-0.0435875,0.00275,0.21133749
-0.28800002,-0.52605003,9.282001,0.013062499,-0.0105875,0.1626625
-0.28605002,-0.44700003,9.523951,0.0543125,-0.0301125,0.21505
-0.56100005,-0.67905,9.904051,0.0759,0.012375,-0.0044
-0.61905,-0.804,9.574051,-0.0138875,0.098725,0.0584375
-0.84795004,-0.675,9.804001,-0.0705375,0.121,0.021724999
-0.58005005,0.006,10.029,0.088825,0.06985,-0.21065
-1.7869501,0.025950002,11.39805,0.2685375,0.026675,-0.3546125
-1.5810001,-0.44295,10.10805,0.3128125,0.161975,-0.64405
-0.86295,-1.3470001,10.849951,-0.2712875,-0.004675,0.278575
-0.71895003,-0.58395004,9.552,-0.3053875,-0.00275,0.0457875
-0.492,-0.82995003,8.98305,0.029424999,0.0638,-0.61861247
-0.54195005,-0.82605004,8.311951,-0.037675,-0.0672375,-0.4101625
-0.18795002,0.034950003,7.044,0.0631125,0.098037496,-0.5718625
0.32805002,-0.76305,8.84895,0.2407625,-0.0347875,-0.6122875
1.5130501,-0.47100002,9.612,-0.076725,-0.4357375,0.2913625
2.2380002,-0.76605004,10.339951,-0.005225,-0.8270625,0.463375
0.85995007,-1.09605,10.34895,0.0389125,-0.5566,0.11055
1.7190001,-0.62895006,9.516001,-0.154,0.0438625,0.2476375
0.62700003,-1.0390501,10.255951,-0.015675,-0.0917125,-0.2673
0.93105006,-1.3930501,10.210951,-0.0840125,0.2409,-0.2165625
0.59205,-0.93600005,10.443001,-0.17545,0.11,0.0765875
0.25395,-0.15,9.150001,0.0842875,0.2168375,-0.2237125
0.261,-0.39195,8.776951,0.2226125,0.190025,-0.3685
0.50505,-0.94995004,10.363951,0.0484,0.1054625,0.0372625
0.61995006,-0.55995005,9.871051,-0.041249998,-0.00495,0.1810875
0.55605,-0.82305,9.567,0.0479875,-0.0155375,-0.1414875
0.76395005,-1.125,9.78705,-0.0556875,-0.0688875,0.1518
0.61095005,-1.0530001,10.1629505,-0.1318625,-0.0752125,0.277475
0.36195,-0.675,9.97605,-0.0446875,0.0055,0.0506
0.28500003,-0.70095,10.038,0.0809875,0.10615,-0.1815
0.55995005,-0.25605002,9.705001,0.087037496,0.094875,-0.07205
0.30900002,-0.19395001,9.523951,0.18535,0.028875,0.01705
0.43800002,-0.009000001,9.753,0.1304875,0.0050875,0.045925
0.32805002,0.24300002,9.64605,0.1841125,0.0155375,-0.12045
0.21105,0.04695,9.904051,0.16005,0.017324999,0.0620125
0.37395,-0.069000006,9.8539505,0.0485375,0.0251625,-0.074525
0.37905002,-0.12900001,9.898951,-0.0081124995,-0.001925,-0.0246125
0.21795002,-0.048,9.84195,-0.0286,0.00935,0.0823625
0.20400001,-0.097950004,9.918,-0.003025,0.0507375,-0.046475
0.23505001,-0.141,9.703051,-6.875E-4,0.0490875,-0.042625
0.07005,-0.00405,9.784051,-0.0075625,0.0149875,0.0174625
0.16800001,0.061950002,9.87495,0.009625,0.020075,-0.04015
0.24000001,0.045,9.861,0.036575,0.019524999,-0.1056
0.24900001,-0.021000002,9.92805,0.0242,-0.0048125,0.0092124995
0.24900001,0.076050006,9.868051,0.0064625,0.0086624995,0.067375
0.252,0.07395,10.08405,0.011,0.0015125,-0.013475
0.08400001,0.12105001,9.753,0.0177375,0.011275,-0.122099996
0.11805001,0.057000004,9.849001,0.0059125,0.0207625,0.105325
0.13695,0.11895001,9.79395,-0.0064625,0.007975,0.0911625
0.156,0.076050006,9.95205,0.0044,0.00935,0.035475
0.19905001,0.10005,9.696,0.0341,0.0143,-0.1309
0.22500001,-0.009000001,9.847051,0.0023375,-0.0072875,0.0246125
0.18705001,-0.009000001,9.885,-0.0380875,-0.0298375,0.04895
0.24900001,0.054,9.97395,-0.0154,-0.001925,0.1524875
0.028950002,0.11895001,9.739051,0.0154,0.0045375,0.032175
0.094050005,-0.012,9.92805,0.015675,0.0336875,-0.1123375
0.13005,0.058950003,9.77505,-0.0177375,0.0232375,0.005775
0.079050004,0.07095,9.934951,-0.0103124995,-0.015125,-0.0906125
-0.03705,0.10005,9.62205,0.011275,0.0056375,-0.0638
0.11805001,-0.009000001,9.868051,0.0053625,0.0198,0.057475
0.08205,0.066,9.733951,-0.023375,0.0022,0.0072875
-0.07005,0.07095,9.922951,-0.0,-0.0023375,-0.115775
0.16800001,0.15,9.5449505,0.0081124995,0.034649998,-0.0603625
0.120000005,-0.048,9.82005,-0.0116875,-0.033275,0.032175
0.201,-0.097950004,9.769951,-0.0562375,-0.0413875,0.2292125
0.096,0.010950001,9.700951,-0.040975,-0.04675,0.09295
0.19395001,-0.009000001,9.849001,0.0023375,0.0081124995,-0.077
0.25905,-0.076050006,9.892051,6.875E-4,0.001375,-0.0121
0.25605002,-0.08295,9.693001,-0.011825,-0.01705,0.039875
0.15105,-0.079050004,9.861,-0.0226875,-0.042075,0.1714625
0.14400001,-0.093,9.94995,-0.0248875,0.010175,0.0306625
0.17295001,-0.14595,9.901951,-0.0045375,0.0193875,0.0017875
0.22500001,-0.22500001,9.727051,-0.019524999,0.00825,0.04235
0.14400001,-0.10305001,9.78705,-0.0226875,-0.0251625,-0.044275
0.18900001,-0.055050004,9.934951,-0.0011,0.0,0.12815
0.076950006,-0.048,9.727051,0.0411125,0.00495,-0.1296625
0.13695,-0.025950002,9.624001,0.0033,0.017324999,-0.0411125
0.24000001,-0.033,9.76305,0.002475,0.010175,0.0408375
0.11505,0.009000001,9.942,0.00715,-0.00825,0.017324999
0.16095,0.021000002,9.715051,0.023375,0.004125,-0.0386375
0.13905,-0.040050004,9.784051,-5.5E-4,-0.0243375,0.1027125
0.13905,-0.072000004,9.883051,0.0015125,-0.0224125,-0.0507375
0.17295001,0.022950001,9.94995,1.375E-4,-0.0023375,-0.0782375
0.10305001,0.054,9.79605,0.007425,0.0042625,-0.00935
0.10095,-0.057000004,9.880051,0.0119624995,0.0237875,-0.075075
0.17505,-0.08805001,9.777,-0.022824999,0.0089375,0.0837375
0.16095,-0.009000001,9.85095,-0.023375,-0.0078375,-0.0048125
0.20400001,0.09,9.765,0.0015125,-0.018424999,0.0265375
0.10305001,-0.025950002,9.77505,0.036575,-5.5E-4,-0.126225
0.201,-0.00705,9.813001,-0.0253,0.0198,0.0633875
0.27795002,-0.052050002,9.901951,-0.0127875,-0.0196625,0.0077
0.096,-0.060000002,10.00905,0.001925,-0.019524999,0.0242
0.097950004,-0.016050002,9.757951,-0.0023375,0.03135,0.0210375
0.20400001,-0.18195,9.880051,0.0022,0.00605,-0.018424999
0.18195,0.04695,9.588,-0.03575,-0.010175,0.0317625
0.112950005,-0.055050004,10.038,0.016775,-0.014025,-0.076725
0.22305001,0.049950004,9.801001,0.0067375,0.0015125,0.0202125
0.19695,-0.036000002,9.85095,0.016775,-0.017875,-0.0158125
0.075,-0.043050002,9.780001,-0.01375,-0.0086624995,0.045649998
0.13695,-0.060000002,9.877951,2.75E-4,0.01595,-0.0639375
0.13695,-0.072000004,9.883051,0.0070125,0.011,0.0782375
0.16800001,-0.012,9.80595,-0.010725,0.006875,-0.0160875
0.09105001,-0.08595,9.825001,-0.0169125,9.625E-4,0.065725
0.18900001,-0.036000002,9.682051,-0.0116875,0.00935,0.1227875
1.0510501,0.33,9.13305,-0.00495,-0.0127875,0.0933625
0.795,-0.057000004,11.415001,0.131725,-0.3026375,-0.060775
0.77595,-0.58605003,11.671051,-0.0292875,-0.2344375,0.1362625
-0.76695,1.725,11.842951,0.0066,-0.1249875,0.2228875
3.34905,-1.6969501,9.969001,0.26455,0.37125,-0.4574625
2.39895,-0.67905,7.8480005,-0.4398625,-0.37661248,0.534325
-0.55200005,0.03795,4.58295,-0.135025,-0.1353,0.0592625
-1.8750001,-0.70095,7.5370502,0.0807125,1.1466125,-0.4466
-0.89895004,-1.0860001,10.5720005,-0.24653749,0.8405375,0.1071125
-1.21695,-0.94005007,10.062,-0.0814,0.1771,0.402875
-1.8970501,-1.01505,9.96405,0.0534875,0.36355,0.033275
-0.99000007,-0.38505003,11.529,-0.3001625,0.1406625,0.8419125
-1.27005,0.92100006,10.833,0.534875,0.0196625,-0.5016
-1.06605,-0.23700002,10.849951,0.4090625,-0.17985,-0.1533125
-2.529,0.67200005,9.769951,0.0290125,0.0011,0.37345
-1.6840501,0.23595001,9.74895,0.0099,0.215875,0.1978625
-1.2100501,0.25500003,9.492001,-0.0796125,-0.032449998,0.1964875
-1.3080001,0.80100006,8.97795,-0.0273625,-0.175725,0.24213749
-1.215,0.42495003,9.897,0.0735625,-0.18493749,0.19525
-1.7200501,0.72195005,8.443951,-0.056649998,-0.12979999,0.273625
-1.251,0.624,9.238951,0.117699996,0.120175,-0.1364
-0.62295,0.63405,10.02105,0.106425,-0.00495,-0.022275
-0.95595,0.98100007,11.680051,0.186175,-0.3425125,-0.21505
-1.8349501,0.64605004,10.428,0.072875,-0.086625,-0.3518625
-2.2699502,-0.54300004,10.335,0.064625,0.41799998,-0.6182
-1.12605,-0.055050004,8.844001,-0.4890875,0.26221249,-0.0715
-0.135,-1.02705,9.910951,0.0265375,-0.114125,-0.9475125
0.01905,-0.59295005,6.91695,-0.265375,-0.4409625,-0.09405
-0.71205,-0.273,6.4170003,-0.2536875,-0.3881625,-0.0760375
0.16800001,-0.66795003,8.652,-0.1731125,-0.297275,0.1098625
0.26595002,-0.36105,10.2300005,-0.15413749,-0.3392125,-0.021175
1.0180501,0.59295005,9.424951,0.2487375,-0.340725,-0.348425
1.23105,0.052050002,12.001051,0.26015,-0.5951,0.0251625
1.7070001,-0.79905003,10.56,0.124575,-0.2083125,-0.0059125
1.14195,0.65805006,7.2900004,-0.137775,-0.2627625,0.494725
-0.35805002,0.77505004,8.70705,0.122925,-0.1777875,-0.0375375
0.73305005,-0.36600003,10.986,0.2325125,0.26455,-0.27995
0.58005005,-0.079050004,11.2879505,-0.073699996,0.132275,0.01705
0.52500004,0.72195005,8.587951,-0.037125,0.1082125,0.015125
0.44295,0.26505002,9.208051,0.201025,0.1155,-0.4772625
0.23700002,-0.55005,10.882951,-0.01595,0.0416625,-0.1120625
0.42900002,-0.15795001,9.837001,-0.275,0.18933749,0.136675
1.02195,0.22905001,9.061951,0.0050875,0.0719125,-0.149875
2.9850001,0.62595004,9.4800005,0.1313125,-0.34045,0.1439625
0.52500004,0.68595004,11.920051,0.24653749,-0.9207,0.2116125
0.13395001,0.124050006,10.797001,0.0210375,0.26235,-0.22055
1.8240001,-0.76995003,9.700951,-0.1700875,0.2619375,-0.0275
2.6119502,0.078,8.10705,-0.337425,-0.3540625,0.3777125
-0.492,0.37305,8.596951,-0.19525,-0.3675375,0.1318625
-1.713,-1.3230001,12.5779505,0.0598125,0.7156875,-0.7429125
0.321,-1.7659501,10.371,-0.4483875,0.99137497,-0.587675
-3.45,1.24905,5.81295,-0.375375,0.25355,-0.1918125
-0.38595003,-0.65595,5.064,0.1447875,0.57915,-1.001275
-0.28395,-2.025,7.7550006,-0.4582875,0.180125,0.93953747
-1.26495,-2.6809502,14.569051,-0.6623375,-0.23567499,1.8492374
-0.94395006,-1.1869501,11.10105,0.046475,0.21175,0.6210875
-2.1409502,-1.6300501,12.192,0.265375,0.111375,0.2836625
0.58005005,-4.4760003,9.0709505,0.117837496,0.30621248,0.5379
0.68700004,-1.074,11.24205,-0.590975,-0.249425,1.2156374
-1.26195,-0.045,7.8769503,0.4200625,-0.135575,-1.0945
-0.04695,-1.26795,8.703,0.5223625,0.37785,-0.9307375
-1.332,0.09705,8.76,-0.0364375,-0.1694,0.2484625
-0.11805001,-1.0030501,10.09095,0.44288749,0.253825,-0.5451875
-0.24300002,-0.060000002,8.23305,-0.00935,-0.3411375,0.7547375
-0.63795,0.294,9.14295,0.1596375,-0.3256,0.6215
0.26805001,-0.19395001,9.95205,0.29273748,-0.071775,0.1777875
-0.231,0.25095,9.96195,0.0265375,-0.2666125,0.468325
-0.25995,-0.30795002,10.045051,0.2344375,0.1815,-0.361625
-0.76005006,0.17205001,9.61005,0.054725,0.2701875,-0.0042625
-0.597,0.29595003,8.64,0.04015,0.1694,0.04455
0.036000002,0.67905,13.576051,0.1552375,0.0045375,-0.1951125
-0.46995002,0.028050002,11.698951,0.1450625,-0.291225,-0.0963875
-2.95005,0.44205,10.596001,-0.0232375,0.265925,-0.3139125
-0.61395,-1.55805,8.293051,-0.05775,0.5742,-0.555775
-2.25105,-0.61005,10.33005,-0.5328125,0.078925,0.2244
-1.2600001,-0.26295,8.334001,-0.0952875,0.311575,-0.6098125
-2.4739501,0.60705,9.865951,0.3194125,0.2003375,-1.4836249
0.69195,-0.028050002,7.314,0.49101248,0.1381875,-1.5613124
1.41495,0.96405005,8.99895,0.0946,-0.7261375,0.1557875
4.65105,-0.423,11.03205,0.2836625,-1.008425,0.329725
3.423,-1.3620001,12.597,0.056925,-1.242725,0.9480625
2.15205,-0.63900006,9.97395,-0.2501125,-0.3898125,0.8509875
1.63995,-1.1010001,10.717951,-0.1013375,-0.044825,0.3795
1.89795,-0.591,8.74995,-0.084425,0.232925,0.036025
1.26195,-0.00405,9.162001,-0.0077,0.0022,-0.0253
1.29495,-0.11895001,9.64095,0.1304875,0.1992375,-0.311025
1.2709501,-0.273,9.934951,0.062425,0.1420375,-0.406175
1.10595,-0.49995002,9.922951,-0.050875,0.0807125,-0.027775
1.4820001,-0.27705002,9.435,-0.060775,0.0858,-0.0235125
1.3620001,-0.162,9.712951,-0.006325,-0.0675125,-0.0031625
1.245,-0.109950006,9.1380005,0.0086624995,-0.07865,0.0548625
1.2709501,-0.23400001,9.550051,0.0213125,-0.0433125,-0.0097624995
0.87405,-0.16695,9.877951,0.00165,-0.036575,0.095699996
1.31895,-0.273,9.66705,0.0108624995,0.06325,-0.0878625
2.4109502,-0.33,9.552,0.0262625,-0.133375,0.117699996
2.8249502,-0.63900006,9.873,-0.0094875,-0.4426125,0.342375
2.6520002,-1.5010501,12.931951,-0.0625625,-0.18865,0.14025
2.1790502,0.35595003,10.48095,-0.0067375,0.095975,0.00495
-1.0900501,1.28205,11.7640505,0.3048375,0.373725,-0.7668375
1.40295,-1.1029501,8.458051,0.1472625,0.21395,-0.4907375
-0.24000001,0.53805,8.499001,-0.241175,0.029975,0.0187
-0.75000006,0.16005,6.4120502,-0.0341,0.7392,-0.5385875
-1.131,-0.37095,4.083,-0.274175,0.5905625,-0.221375
0.59895,-1.3950001,8.475,-0.3400375,0.450725,0.075625
-0.97005004,-1.1010001,8.22105,-0.326975,-0.00935,0.704275
-1.2600001,-0.38505003,9.942,-0.09295,0.289025,0.518375
-1.2240001,-0.735,11.869051,0.2594625,0.3999875,-0.0044
0.18195,-1.623,12.640051,0.125125,0.05335,0.551375
-1.2859501,-0.57705003,9.46605,-0.014162499,-0.1612875,0.6183375
-1.24605,-0.65595,8.923051,0.0528,0.1128875,0.0738375
-1.2600001,-1.3810501,10.938001,-0.0350625,0.0429,0.0378125
-1.64505,-0.18405001,9.813001,-0.22275,-0.0886875,0.419375
0.43800002,-1.161,10.761001,0.162525,-0.06325,-0.125125
-0.87195003,0.56895,8.38395,0.04015,-0.3135,-0.0353375
-0.85605,-0.29895002,10.47105,0.3509,0.047025,-0.3141875
-0.73395,-0.12705001,9.97605,0.0482625,-0.010175,0.1832875
-0.74100006,0.061950002,9.379951,0.0532125,-0.007975,-0.058849998
-0.60405004,-0.201,9.50205,0.1150875,0.0466125,-0.1552375
-0.85800004,-0.18900001,9.5119505,-0.0405625,-0.014575,0.2288
-0.33405003,0.064050004,10.038,-0.0402875,0.0691625,0.0666875
-0.537,0.17895001,9.222,0.1111,-0.0672375,-0.14135
-0.29505002,-0.049950004,9.30795,0.025024999,-0.148225,-0.1659625
-0.93495005,0.066,10.078951,-0.0704,-0.20253749,0.3768875
0.16095,-0.67005,9.61695,0.044275,0.115775,-0.1764125
-0.279,-0.19800001,9.591001,-0.1302125,-0.159775,0.3524125
-0.33600003,-0.39705002,9.95895,-0.0237875,-0.038775,0.1216875
-0.74100006,-0.060000002,9.50205,0.0114124995,0.115225,-0.057475
-0.70500004,0.23400001,9.126,0.1353,0.17847499,-0.36107498
-1.368,0.22200002,11.14395,0.2270125,0.1375,-0.6688
-1.38705,0.37005,9.898951,0.0765875,0.1753125,-0.306075
-1.9060501,-1.1869501,10.548,0.0826375,0.31295,-0.4257
-2.12895,-0.49500003,7.8240004,-0.70454997,0.0237875,1.0157125
-0.54705,0.058950003,8.596951,-0.22385,0.160325,0.03795
-1.15995,0.17400001,8.72595,0.1797125,-0.1291125,-0.6342875
-0.91305006,-0.82095003,9.612,0.23333749,0.0435875,-0.9010375
0.0,-0.88995004,8.037001,-0.048675,0.046475,-0.1841125
1.0129501,-0.56505,9.15705,-0.3097875,-0.43065,0.5713125
1.2210001,0.0019500001,10.696051,0.01155,-0.72655,0.1827375
1.1179501,-0.57705003,10.76805,0.228525,-0.54725,-0.1797125
1.13505,-0.081,10.287001,-0.117975,-0.113575,0.238425
0.29205,-0.77805007,10.88805,0.11055,-0.0627,-0.1563375
0.94095004,-0.28500003,9.34395,-0.0375375,0.2088625,-0.2487375
0.582,-0.55695003,9.934951,0.03795,-0.0287375,-0.106975
0.23505001,-0.012,9.1380005,0.0462,0.0708125,-0.0372625
0.53400004,-0.17400001,9.04695,0.12155,0.1486375,-0.0341
0.65595,-0.44700003,9.94995,0.0265375,-0.0099,0.03575
0.54405004,-0.54105,10.354051,-0.0306625,-0.031625,0.024475
0.312,-0.29205,9.98805,-0.0446875,0.061875,-0.0785125
0.30900002,-0.069000006,9.67395,0.0188375,0.111237496,-0.214225
0.51495004,-0.354,9.670051,0.069025,0.0617375,-0.24653749
0.61305004,-0.51900005,10.174951,-0.036575,-0.045375,0.2256375
1.1560501,-0.20805001,9.8230505,-0.067375,-0.1530375,0.3067625
1.4080501,-0.47100002,10.08405,0.0209,-0.3372875,0.2107875
1.10895,-0.10005,9.62205,-0.0020625,-0.2358125,0.2220625
1.36995,-0.37095,11.071951,0.089375,-0.0702625,0.0254375
1.4389501,-0.9670501,11.86005,0.003575,0.1252625,-0.1571625
2.36505,-0.036000002,11.271001,-0.021724999,0.02915,-0.25795
2.9610002,-0.10005,8.089951,0.1442375,-0.3755125,-0.2376
0.67800003,0.22200002,7.5199504,0.0996875,-0.7082625,0.5784625
-0.042000003,-0.41595003,10.239,0.1255375,0.271975,0.0801625
0.20400001,-0.33705002,7.3669505,-0.1164625,0.88783747,-0.160875
-2.0719502,-0.17895001,8.809951,-0.087175,0.757075,-0.256025
-2.5480502,0.025950002,10.31295,0.006875,0.945725,-0.70248747
-1.5259501,-0.22500001,10.404,0.089375,0.693,-0.3053875
-0.96300006,-0.70605004,10.94295,-0.3147375,-0.0529375,1.155275
-0.73395,-0.88305,9.58605,-0.2451625,-0.1582625,0.69107497
-1.6099501,-0.555,9.847051,-0.2099625,-0.1777875,0.3372875
-1.9950001,-0.96000004,10.732051,-0.02145,0.15895,-0.2050125
-1.5690001,-0.82305,9.828,-0.04895,0.1918125,0.0064625
-1.2859501,-0.66,9.460951,-0.0363,0.0383625,0.0699875
-0.99195004,-0.85905004,9.315001,-0.02585,-0.1159125,0.1915375
-1.04205,-0.83295006,9.757951,-0.08305,-0.18493749,0.3290375
-1.1740501,-0.76095,9.682051,-0.0501875,-0.111375,0.18755
-1.59,-0.60495,9.29895,0.0077,-0.0017875,0.0198
-1.44,-0.92100006,9.80805,0.0116875,0.1329625,-0.0576125
-1.593,-0.49305,9.045,0.0199375,0.11275,-0.0664125
-1.69095,-0.78495,9.43995,0.079475,0.11605,-0.15455
-1.26705,-0.84195006,9.86295,-0.0468875,0.0460625,0.0702625
-0.88395005,-0.804,10.675051,0.0386375,-0.100237496,-0.0782375
-1.4830501,-1.98195,12.11295,0.0262625,-0.1205875,-0.056649998
-2.13105,0.054,9.174001,-0.2283875,0.158675,-0.1225125
-1.2070501,-0.77295005,7.96995,0.582725,0.5071,-1.6154875
-0.58500004,-1.4620501,9.32205,-0.034925,-0.146575,-0.185625
-1.1329501,-0.0019500001,8.596951,-0.0917125,-0.3177625,-0.21725
-0.61095005,-0.16695,7.9870505,0.3634125,-0.0119624995,-0.9079125
0.109950006,-1.1890501,8.290951,0.126775,-0.1463,-0.326975
1.2709501,-0.75600004,9.95895,-0.363825,-0.517,0.7093625
0.34305,0.109050006,10.552951,0.261525,-0.44701248,-0.1181125
1.3789501,-0.21300001,11.03205,0.2033625,0.0166375,-0.260975
0.51000005,-0.71295005,11.091001,0.082225,-0.1827375,-0.133375
0.91695005,-0.29895002,8.820001,-0.0573375,0.0339625,0.124437496
0.74700004,-0.873,10.375951,0.0086624995,-0.1390125,0.1397
0.34500003,-0.043050002,9.80595,-0.1027125,0.066825,0.1923625
0.64695,-0.17895001,9.516001,0.133925,0.1912625,-0.3856875
0.49305,-0.44505003,8.925,0.0919875,0.008525,-0.14025
0.44805002,-0.48795003,10.15995,-0.047849998,-0.006325,0.325325
0.41700003,-0.45705003,10.555051,-0.0083875,0.077825,0.032725
0.52500004,-0.37605003,9.724951,0.0268125,0.0628375,-0.14533749
0.46005002,-0.26805001,9.430051,0.04015,0.013062499,-0.1885125
0.558,-0.43500003,9.753,-0.00495,-0.044,-0.03025
0.89100003,-0.51195,9.564,-0.032725,-0.0523875,-0.0460625
1.16805,-0.46905002,9.705001,-0.053625,-0.2024,0.179575
0.74700004,-0.83295006,10.816051,-0.0039875,-0.1769625,0.072325
0.53205,-0.21795002,10.33695,-0.0356125,-0.0622875,0.22013749
1.7209501,-1.2610501,11.491051,-0.0121,-0.0213125,0.0554125
1.7310001,-1.67505,9.1050005,-0.1480875,-0.2145,-0.0097624995
2.0640001,-1.2280501,8.028001,-0.2061125,-0.4805625,0.5671875
2.11395,-2.085,10.797001,-0.053075,-0.0719125,-0.064625
-1.27005,-0.22500001,8.83395,-0.109725,0.402875,-0.12979999
-1.5310501,-1.3660501,9.696,0.046475,0.9340375,-0.5506875
-2.28705,-0.31305,8.905951,-0.0873125,0.67141247,-0.01045
-2.35905,0.033,10.030951,0.341,0.9739125,-0.8677625
-0.693,-0.18195,10.254001,0.26675,0.2418625,0.188375
-1.0830001,-0.37305,9.58605,-0.1918125,-0.4706625,1.717925
-0.85995007,0.36600003,9.2029505,-0.014575,-0.1034,0.624525
-0.60705,-0.711,9.54705,0.2704625,0.0213125,-0.3419625
-0.62595004,-0.79695004,10.278001,-0.187825,-0.0809875,0.551375
-0.53205,-0.73005,10.392,-0.1577125,-0.06655,0.3438875
-0.64995,-0.651,10.075951,-0.0495,-0.085525,0.0669625
-0.59205,-0.462,9.67905,-0.0193875,-0.0452375,0.0853875
-0.68100005,-0.48600003,9.684,0.0405625,0.0070125,-0.05335
-0.71400005,-0.46395,9.70995,0.025024999,-0.0011,-0.0385
-1.1050501,-0.35205,9.700951,-4.125E-4,0.054449998,0.0048125
-1.33395,-0.36600003,9.283951,0.0732875,0.2014375,0.0374
-1.5469501,-0.052050002,9.430051,0.06765,0.2355375,-0.0669625
-0.93495005,0.25095,9.721951,0.16293749,0.1544125,-0.2519
-1.7680501,0.15705001,10.00695,0.3339875,-0.0589875,-0.375925
-2.0310001,-0.72,11.211,-0.1043625,0.32505,0.108625
-2.1790502,-0.65805006,10.239,-0.4434375,0.21395,0.6153125
-1.437,-0.933,9.37005,-0.0664125,0.1241625,-0.2761
-0.43695003,-1.1340001,8.941951,-0.172975,-0.34141248,-0.14533749
-0.70695,-0.061950002,8.614051,-0.0218625,-0.330275,-0.3504875
-0.09705,-0.32295,8.134951,0.362725,-0.0048125,-0.864875
0.81195,-0.61995006,8.647051,0.1142625,-0.065725,-0.467775
2.8300502,0.040050004,11.886001,0.0105875,-0.8075375,0.0567875
2.00895,0.0019500001,12.21405,0.1782,-1.0423875,-0.050325
0.93105006,0.21495001,10.696051,0.08305,-0.24475,-0.3221625
0.63000005,-0.201,12.68595,-0.013062499,0.1469875,-0.290125
1.281,0.31995,8.523001,0.0232375,0.322025,-0.52635
1.5829501,-0.14595,9.504001,0.0281875,-0.11,-0.0867625
0.675,0.049950004,9.61905,-0.05115,-0.2660625,0.12815
0.19905001,0.23595001,9.0400505,0.014575,0.0356125,-0.2022625
0.81405,0.507,8.20695,-0.0309375,0.187,-0.1846625
0.51705,0.15,9.98295,0.064625,-0.0746625,-0.047575
0.89595,0.022950001,9.78705,-0.0548625,0.0028875,8.25E-4
1.2210001,0.13605,10.17195,-0.0064625,-0.0719125,0.0235125
1.1329501,0.19995001,9.918,0.089375,-0.1309,0.067925
1.6969501,0.62205005,10.07205,0.110825,-0.07205,0.1034
1.8720001,0.48000002,10.26105,0.1991,-0.1783375,-0.120175
0.54105,-0.91605,9.214951,0.105325,-0.0968,0.1962125
1.5270001,0.67395,10.725,-0.3482875,0.104499996,0.8328375
-0.85995007,-2.4390001,16.09395,0.0935,-0.4503125,0.2701875
0.32805002,0.105000004,6.2470503,-0.3235375,0.256575,0.7522625
-1.2580501,-0.933,9.68595,0.1109625,0.2976875,0.115775
1.6020001,-0.91395,7.3669505,-0.201025,0.84315,0.017324999
1.8840001,0.342,11.680051,-0.1123375,-0.3784,0.44288749
-1.8900001,0.72900003,10.219951,0.4527875,-0.0028875,-0.91905
-2.4739501,-1.35195,10.984051,-0.0100375,0.760925,-0.58753747
-2.1700501,-0.38700002,9.094951,-0.522775,0.780725,0.4791875
-1.6140001,-0.69405,10.512,-0.2707375,0.2904,0.7162375
-2.2699502,0.033,8.87205,-0.0853875,0.1276,0.4833125
-0.40605003,-0.36405003,8.710051,0.20487499,0.2481875,-0.3276625
-0.48495004,-1.05495,9.94995,-0.01155,-0.3224375,0.2303125
-1.93305,-0.462,9.507001,-0.2552,-0.281325,0.7434625
-1.116,-0.45405003,10.323001,0.0144375,0.1618375,0.0287375
-1.248,-0.44295,10.005,0.0716375,-0.0488125,-0.0988625
-1.4059501,-0.46605003,9.765,0.0760375,0.0477125,-0.143
-1.00395,-0.32295,9.468,0.02915,0.055275,0.069575
-0.83595,-0.423,9.898951,0.027224999,-0.0919875,0.0589875
-1.3609501,-0.273,9.61005,0.03025,-0.0386375,-0.069575
-1.3060501,-0.273,9.80805,0.0545875,0.1318625,-0.0380875
-0.36195,0.081,8.3890505,0.0424875,0.0675125,0.0100375
-0.35505003,-0.079050004,10.407001,0.064625,-0.2844875,0.22605
-2.0070002,-0.35895002,13.960951,0.083325,-0.044275,0.02145
-1.0879501,-2.2350001,10.917001,0.1571625,0.39435,-0.685025
-2.3490002,-0.53595,9.526051,-0.7569375,-0.21945,0.63002497
-1.93305,-1.19895,8.33205,0.1661,0.350625,-1.2035375
-1.2070501,-1.5120001,9.406051,-0.121275,0.0452375,-0.7825125
-1.15995,-0.30105,7.5220504,-0.1706375,0.0460625,-0.5165875
-1.00395,-0.32805002,11.28495,0.9480625,0.7423625,-2.3112376
0.97200006,0.72195005,9.238951,0.61215,-0.19085,-0.7178875
0.22305001,-1.71405,10.849951,0.1318625,-0.902,0.91368747
2.43495,-0.09105001,8.535001,-0.7236625,-0.738375,1.7093999
1.9920001,-0.40695003,10.14105,-0.0446875,-0.9673125,0.93445
1.0870501,-0.45405003,10.1650505,0.1604625,-0.2608375,0.108899996
0.60795003,-0.69900006,9.363001,0.0631125,-0.005225,0.0578875
0.55605,-0.61995006,9.712951,-0.1304875,0.1123375,0.23155
0.40695003,-0.55305004,10.024051,-0.06655,0.095425,-0.043175
0.18495001,-0.18900001,10.567051,0.1084875,0.199925,-0.12979999
0.63000005,-0.052050002,9.62205,0.08745,0.1101375,-0.082775
0.55305004,-0.31305,9.79395,0.1040875,-0.0499125,-0.04235
0.46500003,-0.105000004,9.859051,8.25E-4,-0.0496375,0.0642125
0.58905005,-0.13095,9.934951,0.0268125,0.0361625,-0.1984125
1.01505,-0.21495001,9.93795,0.0671,0.0094875,-0.0760375
1.7860501,0.0019500001,9.75105,0.02035,-0.1725625,0.1406625
1.5439501,-0.009000001,9.67905,0.046475,-0.3290375,0.16665
1.7260501,0.27705002,10.728001,0.048125,-0.2303125,0.257675
-0.01305,-0.30405003,10.94505,0.09955,-0.245575,0.0484
1.4440501,0.102000006,12.954,-0.0752125,0.236775,0.0232375
0.78300005,-0.18195,11.68305,0.2138125,-0.4010875,-0.100099996
1.40505,-1.9120501,10.61295,-0.0309375,0.16005,0.142175
0.192,-0.36105,9.757951,-0.2239875,0.314875,0.262625
1.3069501,0.54,9.625951,-0.06325,0.4244625,-0.007425
1.0510501,-0.06705,11.604,0.300025,-0.181225,-0.440825
-1.00605,0.48495004,9.049951,0.1890625,0.2321,-0.3884375
-0.31905,-0.74700004,9.74895,0.1527625,0.740025,-0.370975
-0.49695003,-0.58095,8.09895,-0.43821248,0.1731125,0.9348625
-1.38705,-0.105000004,10.80195,-0.1483625,0.260425,0.8265125
-0.57105005,0.35805002,10.146001,0.047025,0.3487,0.5852
-0.97005004,-0.00405,10.519051,0.0611875,-0.0842875,0.61105
-1.5880501,1.4089501,8.4199505,0.0671,0.0386375,0.033825
-0.81705004,0.08505,9.77505,0.5083375,0.1324125,-0.7222875
-1.15995,-0.165,9.82995,-0.120037496,-0.0812625,0.099
-1.167,0.60705,9.22395,-0.2355375,0.040425,0.347875
-1.00605,0.033,10.27995,0.08085,0.054175,-0.14973749
-1.26195,-0.33495003,10.512,-0.073975,0.013475,0.0774125
-0.72405005,0.34395,10.038,-0.175725,0.054175,0.2079
-0.74100006,0.40905002,9.562051,0.1436875,-0.02365,-0.3727625
0.16305001,-0.354,10.07205,0.1491875,-0.153175,-0.27513748
-0.77205,0.41595003,9.44505,-0.1159125,-0.25575,0.437525
-1.2859501,0.423,9.67695,0.066825,0.04895,0.0050875
-1.46595,0.717,8.254951,0.10395,0.18287499,-0.2773375
-0.91095006,0.51405,10.27305,0.1511125,0.192775,-0.3619
-0.63795,1.0360501,12.09195,0.3045625,-0.12773749,-0.377025
-0.45600003,-1.6699501,15.061951,-0.009625,-0.1750375,0.100237496
-1.6890001,-0.41895002,9.271951,-0.3641,0.19373749,0.41195
-0.97005004,-0.40395,9.13305,-0.25905,0.2517625,-0.0551375
-0.64005005,-0.079050004,7.9960504,-0.045925,-0.0416625,-0.599775
-1.07295,-0.64605004,8.96595,0.12485,-0.120725,-0.9736375
-0.34095,0.39195,7.7760005,-0.1051875,-0.0790625,-0.5159
-0.32700002,0.10005,8.875051,0.282425,-0.086899996,-0.797775
0.74205005,-0.84705,9.993,0.0537625,-0.30621248,-0.1584
1.3600501,-0.36795002,10.428,-0.2487375,-0.5654,0.6535375
0.56805,0.564,10.275001,0.0188375,-0.5454625,0.421025
-0.109050006,-0.18195,12.145051,0.2415875,-0.0067375,-0.1342
2.2459502,-0.49995002,9.918,-0.055,0.0815375,0.0471625
0.726,-0.55695003,10.087951,-0.0856625,-0.2534125,-0.025575
1.00605,-0.43305,9.80595,-0.1456125,0.056375,-0.106975
0.68505,-0.48600003,10.701,-0.0732875,-0.0011,0.106837496
0.76905006,-0.016050002,9.574051,0.0479875,0.0424875,-0.077825
0.37905002,0.17205001,8.51295,0.120725,0.064625,-0.2968625
0.46500003,-0.162,9.67695,0.061875,0.101475,-0.066275
0.24705002,0.049950004,10.1320505,0.0039875,0.0726,-0.041249998
0.55305004,-0.22905001,9.385051,0.034649998,0.09625,0.0092124995
0.60105,-0.58095,9.48795,-0.0416625,-0.015125,0.1709125
0.9670501,-0.81405,10.31805,-0.1794375,-0.075075,0.3645125
1.0699501,-0.43800002,9.28695,-0.1881,-0.224675,0.3931125
1.02705,0.44505003,8.70495,0.1461625,0.0358875,-0.301675
1.0030501,-0.44295,10.486051,0.256025,-0.1120625,-0.393525
2.3770502,-0.30405003,10.41195,-0.028324999,-0.0383625,-0.0213125
2.8630502,-1.6540501,10.749001,-0.0232375,-0.37125,0.091437496
1.5799501,-1.4310001,12.70005,-0.39214998,-0.1857625,0.58025
2.6190002,-0.72495,7.49595,-0.056925,0.408925,-0.4156625
1.764,-1.6110001,9.14295,-0.0143,-0.153175,-0.5127375
-0.42495003,-0.87795,8.740951,-0.25355,0.1243,-0.077
0.01695,-1.9290001,9.87495,-0.1098625,0.7060625,-0.3482875
0.10095,-0.92805004,8.29605,-0.116325,0.347325,0.045649998
0.39105,-1.16805,8.47305,-0.061325,-0.0977625,0.4148375
-0.006,-2.01,9.427951,-0.0826375,-0.1258125,0.63085
0.70605004,-1.4449501,12.595051,-0.17985,-0.106975,0.9711625
1.1539501,-1.0890001,11.854951,0.3422375,-0.001375,-0.1874125
0.261,-1.7659501,12.597,0.3086875,-0.0070125,-0.03355
1.3770001,-2.2690501,10.906951,-0.014575,0.1403875,0.6697625
0.68295,-0.70605004,9.052051,-0.1777875,-0.2872375,1.1012375
-0.18795002,-0.555,9.117001,0.177925,-0.050049998,-0.08745
-0.04695,-0.45900002,9.849001,0.1574375,0.1783375,-0.1065625
0.15795001,-0.079050004,9.15705,0.1665125,0.035475,0.168575
-0.0010500001,-0.45000002,9.792001,0.23333749,0.11055,-0.3304125
0.42600003,-0.86100006,10.455001,0.0881375,0.1486375,-1.375E-4
-0.066,-0.177,10.32495,-0.088825,-0.0757625,0.523325
-0.64305,0.23895001,8.418,0.0702625,0.036025,-0.042625
0.075,-0.186,9.14295,0.1255375,0.0636625,-0.23595
-0.102000006,-0.17400001,10.31595,-0.0308,-0.1084875,0.30827498
-0.40305,0.33,9.418051,0.0946,-0.056375,-2.75E-4
-0.17295001,-0.39495003,10.43805,0.2514875,0.17545,-0.4076875
0.80895007,0.010950001,9.234,-0.06435,-0.032449998,0.0743875
0.26595002,0.67005,9.9210005,0.02475,-0.30305,-0.1122
0.62295,-0.15300001,11.292001,0.1852125,-0.164725,-0.5702125
0.010050001,-1.08405,12.432,-0.0963875,0.0501875,-0.05775
-0.49395,0.10005,8.84595,-0.358325,0.11385,0.235125
0.20595,-0.53805,9.00195,-0.0790625,0.086075,-0.64845
-0.303,-0.094950005,9.076051,-0.0160875,-0.0347875,-0.8595125
-0.078,-0.025950002,8.575951,0.060775,0.12773749,-1.129975
0.59595,-0.64395005,9.0709505,0.0666875,-0.0081124995,-0.86845
-0.16905001,-0.32295,8.905951,-0.1280125,-0.2464,-0.2574
1.0890001,-0.924,10.12395,-0.0556875,-0.0501875,-0.3366
1.6620001,0.16005,9.89505,-0.2277,-0.419375,0.4272125
0.90495,0.46395,11.292001,0.2061125,-0.4426125,0.0581625
1.4599501,-0.093,11.13195,0.1948375,-0.02365,-0.0969375
1.338,-0.35205,10.629001,0.106837496,0.0017875,-0.1348875
1.1710501,0.34905002,7.9960504,-0.113437496,-0.0125124995,0.193325
0.54795,0.55200005,9.612,0.1192125,-0.009075,0.0284625
1.0009501,0.081,10.066951,0.193875,0.2228875,-0.2314125
1.36695,0.55005,9.078,-0.04895,-0.0548625,0.1214125
0.90795004,0.40605003,9.232051,0.08855,-0.249425,0.227425
0.97905004,0.28695002,10.122001,0.0691625,0.0416625,0.118525
1.6060501,0.60705,10.15995,0.053075,0.054175,0.064899996
1.2790501,0.78705,8.986951,0.114125,-0.091575,-0.153175
1.06605,0.51900005,9.40095,0.087037496,0.01815,-0.20845
1.4989501,0.717,10.30605,0.0235125,0.0605,-0.0572
1.812,0.62595004,9.35805,-0.0182875,0.076725,0.157025
2.01105,0.80595005,10.278001,-0.078375,-0.2800875,0.4571875
1.24695,-0.52605003,12.343051,0.076175,0.07975,-0.289025
0.25395,-0.07395,8.748,-0.2013,0.2607,-0.063525
0.051000003,-0.40905002,9.40095,-0.298375,0.3229875,-0.0594
-1.5880501,0.24300002,6.8640003,-0.4272125,0.1329625,0.42405
-0.915,-0.016050002,8.403001,-0.199375,0.0836,0.2220625
-0.123,-1.77795,9.825001,-0.2250875,0.25753748,0.1898875
-1.404,-0.99105006,8.08005,-0.38073748,0.2149125,0.5341875
-0.85095006,-2.1079502,9.946951,-0.114675,0.5949625,-0.0638
-1.1209501,-1.6390501,10.67205,-0.3892625,0.1005125,1.115125
-0.63105005,-0.31305,11.13195,0.0435875,0.01485,0.550825
1.03005,-1.6819501,12.766951,0.49568748,-0.08085,0.017875
-1.5109501,0.43995002,8.226001,-0.03025,-0.6510625,1.057375
-0.00795,-0.46905002,8.475,0.16335,0.034925,0.165275
0.192,-1.6110001,10.632001,-0.0155375,-0.0534875,0.3592875
-0.83595,-0.21795002,10.12905,-0.2605625,-0.1442375,0.85635
-0.45600003,-0.13605,9.267,0.2531375,0.1607375,-0.260975
-1.0519501,-0.39195,9.018001,0.253,0.07205,-0.047025
-0.90300006,-1.2079501,11.356951,-0.0812625,0.1769625,0.2833875
-1.2070501,0.294,7.8960004,-0.1992375,0.0952875,0.2580875
-0.94395006,0.09,8.121,0.311575,0.22935,-0.60335
-0.049050003,0.33900002,11.6970005,0.229075,-0.015675,-0.1568875
-0.15705001,-0.097950004,12.649951,0.226325,-0.3614875,-0.4312
-1.50195,-0.52905005,9.162001,0.128425,0.0364375,-0.4037
-1.99995,-1.66305,11.4529505,-0.109175,0.6950625,-0.648175
-1.5979501,-0.38700002,8.403001,-0.2754125,0.5465625,-0.5427125
-0.93900007,-0.045,7.4670005,0.19167499,0.1353,-1.1378125
-0.702,-0.55305004,8.6310005,0.1519375,-0.3447125,-0.6230125
-1.2550501,0.26505002,7.5420003,0.01595,-0.3862375,-0.38953748
-0.34305,0.094950005,9.250951,0.3025,-0.091437496,-0.9227625
0.38595003,0.12105001,8.917951,0.183425,-0.3845875,-0.4365625
2.664,-0.21300001,11.391001,0.2468125,-0.408375,-0.2300375
3.14805,0.555,10.29195,0.153175,-0.845075,0.4195125
1.2040501,-0.62700003,11.97,0.129525,-0.686675,0.26785
1.4580001,-0.62895006,10.534051,-0.242,-0.0672375,0.293975
1.575,-0.74205005,9.5449505,-0.217525,-0.0600875,0.14533749
1.28295,-0.24405001,9.492001,-0.1170125,0.0111375,0.01265
1.22595,-0.76095,11.038951,0.0165,0.049225,-0.12925
1.5160501,-0.08805001,8.82495,-0.0748,0.0507375,-0.0724625
1.7310001,-0.24105,8.962951,0.1104125,-0.1313125,-0.1194875
1.1880001,-0.177,9.8539505,0.068475,-0.1452,0.2338875
-0.018000001,-0.67200005,10.074,0.047575,0.128975,0.031075
1.3810501,0.076050006,12.33405,-0.0364375,0.490325,0.0254375
0.66300005,2.3070002,10.96905,0.1166,-0.0829125,0.312125
1.6660501,0.00405,10.29405,0.5517875,0.1425875,-0.448525
1.7860501,-1.13205,11.958,0.1507,-0.015262499,-0.058849998
1.07295,0.052050002,8.302951,-0.2022625,0.0419375,0.3172125
1.06305,-0.13095,7.1779504,-0.0473,-0.0477125,0.0625625
1.2070501,-1.149,9.84405,-0.2382875,0.1373625,0.243925
-0.34305,0.033,8.961,-0.286,0.1029875,0.4148375
-1.6020001,0.32205,9.736951,0.17215,0.6556,-0.693
-1.0639501,0.10695001,9.79605,-0.08855,0.575025,0.046475
-1.88505,1.27995,10.46205,-0.12979999,-0.0594,1.1033
-0.66195005,0.44205,9.604951,0.3084125,0.213125,0.2396625
-2.1340501,0.44505003,9.79605,-0.11275,-0.100925,1.0275375
-1.88505,0.17595,10.62195,-0.1672,0.1398375,0.5641625
-0.312,-0.35595003,10.46205,-0.0708125,0.2154625,0.0979
-0.62595004,-0.08595,10.524,-0.0686125,-0.106837496,0.117425
-0.58005005,0.105000004,9.43995,-0.0246125,-0.138875,0.17379999
-0.80100006,0.492,8.619,-0.0199375,-0.1632125,0.185625
-0.11595,-0.42105,10.93605,0.15413749,-0.01265,-0.367675
-0.25005,0.564,9.543,-0.0952875,-0.1846625,0.003025
-0.68100005,0.43500003,9.021001,0.1095875,-0.053625,-0.16775
-0.47505003,0.13800001,8.96595,0.104775,0.0694375,0.0441375
-0.68295,-0.35595003,9.660001,-0.133925,-0.00935,0.37867498
-1.7029501,0.29595003,9.715051,-0.1665125,0.0727375,0.3642375
-0.92700005,0.21495001,9.523951,0.060775,0.2167,-0.1661
-0.64305,0.86100006,9.591001,0.05995,0.1216875,0.042625
-0.80295,0.68100005,9.516001,0.1425875,-0.108075,0.168575
-0.98205006,0.54,9.835051,0.177925,-0.0787875,-0.2127125
-2.4139502,1.5769501,10.227,0.19525,0.0782375,-0.155375
-1.1910001,1.131,9.67395,0.228525,0.211475,-0.27995
-0.99705005,1.0639501,9.86295,0.1552375,-0.0416625,-0.0319
-0.18105,0.55905,10.222051,0.0479875,-0.0499125,0.091299996
0.060000002,0.56205004,10.227,-0.117975,-0.1626625,0.3823875
-0.61095005,0.837,9.69795,-0.097625,-0.2105125,0.133925
-0.039,0.648,9.648001,-0.0235125,0.016775,-0.091575
0.46695003,0.13095,10.644,-0.087037496,-0.0774125,0.0699875
-0.216,0.57405,9.243,-0.13365,-0.087037496,0.1442375
-0.058050003,0.6,9.3820505,0.0353375,0.009075,-0.2688125
-0.006,0.591,9.625951,0.05995,0.0708125,-0.24887499
-0.73395,1.74405,10.63395,0.121275,-0.028875,-0.53473747
0.65595,0.42795002,12.645,0.23265,0.0114124995,-0.72421247
-0.92295,-0.957,9.909,-0.1529,0.038775,-0.0218625
-0.90795004,-0.81795,7.635,-0.75185,0.455125,0.881925
-0.86805004,-0.98595005,8.547,-0.488675,0.460625,-0.077825
-0.432,-1.074,9.21195,-0.2033625,0.083325,-0.441375
-0.25005,-1.2540001,8.55195,-0.1087625,-0.0688875,-0.59482497
-0.40995002,-1.23705,9.59805,-0.151525,-0.0895125,-0.3953125
-1.12395,-0.109950006,7.9630504,0.0528,2.75E-4,-0.5256625
-0.77400005,-0.57195,9.3490505,0.2220625,0.0275,-0.540925
-1.06095,-0.097950004,10.045051,0.1346125,-0.147125,-0.258775
-0.18105,0.018000001,10.663051,0.2281125,-0.104225,-0.242825
1.03695,0.50205004,10.15095,0.2783,-0.315975,-0.060775
1.2280501,-0.78195006,12.130051,0.278575,-0.4983,-0.114675
1.2280501,-0.23400001,11.005051,-0.074525,-0.39105,0.1219625
1.1899501,0.19995001,8.599951,0.005225,-0.20735,-0.2264625
1.03695,0.40605003,8.619,0.0972125,-0.1266375,-0.0539
2.322,-0.072000004,10.6390505,0.012375,-0.202675,0.1439625
1.9390501,0.04695,12.352951,0.1280125,-0.215325,-0.073975
0.99405,0.46395,9.76095,0.0517,-0.106837496,0.0089375
0.68700004,0.67005,10.378051,0.058575,0.1483625,-0.31515
1.6900501,0.71295005,8.956051,0.12485,0.22715,-0.4046625
1.695,0.41295,10.651051,0.0919875,-0.161425,0.0812625
1.79805,0.37500003,9.76305,-0.055275,-0.08195,0.21133749
2.5180502,-0.165,8.865001,-0.0837375,-0.16995,0.3564
1.79295,0.25800002,9.373051,-0.131725,-0.324775,0.5036625
1.8529501,0.51600003,10.146001,0.0224125,0.062975,-0.1936
2.3410501,0.59505004,9.45405,0.0512875,-0.0881375,-0.0149875
1.6330501,-1.45305,9.229051,0.0408375,-0.2926,0.29205
2.016,1.08105,12.460951,-0.2816,0.1566125,0.89402497
2.6569502,-2.259,8.88405,0.0694375,0.12595,-0.121825
1.8220501,-2.91,11.68305,-0.347875,-0.2616625,0.8056125
-1.1329501,-0.99495006,15.27795,-0.0814,0.9040625,-0.5401
3.5740502,-1.6540501,6.5550003,-0.040425,0.9332125,-0.35035
1.6060501,-0.61995006,6.8550005,-0.108899996,-0.9108,1.2090375
1.7719501,-0.14595,9.82005,0.2088625,0.09295,-0.064625
1.5010501,-2.19495,12.84405,0.1299375,0.368225,-0.35694999
-0.90105003,-0.52605003,8.616,-0.1337875,0.3432,0.286
-0.91995007,-1.5990001,11.709001,0.0015125,0.6780125,0.5399625
-1.9780501,-0.744,10.359,-0.019524999,0.6070625,0.7071625
-1.6860001,-0.41595003,8.437051,0.0259875,0.3694625,0.3975125
-1.6980001,-0.097950004,8.278951,0.022,0.1463,0.0804375
-1.03695,-1.1560501,10.773001,0.23375,0.2569875,-0.4376625
-1.353,-0.648,11.194051,-0.073975,-0.1648625,0.1678875
-1.014,-0.08595,9.957001,0.1122,-0.11495,-0.0545875
-1.06095,-0.109950006,8.13,0.183425,-0.094325,-0.0836
-1.0879501,-0.60300004,10.701,0.1313125,0.02915,-0.144925
-1.42305,-0.34905002,10.182,0.053075,0.0636625,-0.22935
-1.095,-0.273,9.186001,-0.040975,0.0358875,0.082499996
-0.85305005,-0.675,10.440001,-0.0059125,-0.027775,0.0276375
-0.78405005,-0.90000004,10.219951,-0.1420375,-0.1590875,0.3408625
-1.03995,-0.033,8.68605,-0.122099996,-0.0735625,0.1518
-0.70500004,0.39405003,9.394051,0.205425,0.066825,-0.4367
-1.7770501,0.87105006,12.432,0.36987498,-0.2028125,-0.4530625
-2.4829502,0.22905001,10.09095,0.2619375,-0.084975,-0.400125
-2.65995,-1.005,12.384001,-0.0708125,0.2861375,-0.2292125
-0.666,-0.46605003,8.02005,-0.473825,-0.025575,0.4621375
-0.216,-0.957,8.65905,-0.0295625,0.14355,-0.6527125
-0.37695003,-1.7710501,10.13895,-0.0735625,-0.0488125,-0.65725
-0.432,-0.531,8.0130005,-0.148775,0.038225,-0.5484875
0.441,-0.66795003,8.592,0.058025,-0.27445,-0.4877125
-0.015000001,-1.4070001,10.531051,0.0664125,-0.3757875,-0.346225
0.47205,-0.66,9.078,-0.17765,-0.3694625,0.390225
2.09205,-0.22695,9.97605,0.16445,-0.27005,-0.116875
1.6620001,0.040050004,9.816001,0.38445,-0.4846875,-0.0829125
1.57305,-0.83295006,11.3550005,0.1601875,-0.17325,0.2129875
2.2789502,-1.041,11.484,-0.038775,-0.0862125,0.059675
0.15795001,0.72900003,9.744,-0.094875,-0.0221375,0.077275
0.984,-1.4170501,10.953,0.2127125,0.151525,-0.3169375
0.83100003,0.08295,8.34105,-0.1830125,0.1032625,0.423775
0.69000006,0.093,9.05895,0.1731125,0.0363,-0.2869625
0.771,-0.82305,10.275001,0.0969375,0.0517,-0.0999625
0.21300001,-0.105000004,10.368,-0.045925,0.135025,0.2063875
1.2229501,-0.081,9.27,0.12155,0.2173875,-0.229625
1.7689501,-0.41595003,9.283951,0.1227875,-0.091437496,0.03135
1.45605,-0.112050004,9.64605,-0.07425,-0.383625,0.321475
2.38905,0.27495003,11.472,0.15853749,-0.2211,-0.0688875
0.80700004,-0.79005,10.354051,0.2156,-0.130625,-0.164725
0.29700002,-0.012,10.543051,-0.1969,0.38115,0.2110625
-0.08505,-1.098,11.866951,-0.152075,0.18287499,0.1975875
0.69405,-1.0309501,9.691051,-0.2156,0.2072125,0.148775
2.1690001,-1.029,9.82995,-0.146025,-0.0732875,0.1502875
0.37905002,-0.13905,9.117001,-0.008525,-0.4390375,0.133375
-0.41505003,-0.86895007,8.98995,0.1896125,0.2605625,-0.457325
-0.40605003,-0.29205,7.6470003,-0.2146375,0.472175,0.2000625
-1.674,-0.522,8.776951,-0.064899996,0.429825,0.0930875
-2.0310001,-0.061950002,10.531051,-0.1359875,0.464475,0.54065
-1.7560501,-0.22695,12.262051,0.2707375,0.5949625,-0.160325
-1.74405,-0.41895002,11.191951,0.0801625,0.0988625,0.33935
-1.9090501,-0.16995001,10.387951,0.08635,0.069575,0.0726
-0.96795005,0.47100002,8.82705,0.0941875,0.0342375,-0.078925
-0.90795004,-0.39195,10.420951,0.2278375,-0.2311375,-0.2468125
-0.882,-0.39495003,9.933001,-0.20625,-0.2580875,0.489225
-0.80805004,0.22005,9.8230505,-0.12815,-0.1076625,0.44825
-0.48705003,-0.15795001,8.950951,0.1348875,-0.07975,0.036575
-1.131,-0.21000001,9.8869505,-0.0743875,-0.1199,0.3573625
-1.059,-0.07395,10.12395,-0.087725,0.0301125,0.1852125
-1.06095,0.054,9.885,0.0757625,0.145475,-0.086899996
-0.97305006,0.030000001,9.52095,0.0842875,0.058575,-0.241725
-1.00605,0.076050006,9.054001,0.04675,-0.0215875,-0.0545875
-1.1689501,0.363,8.425051,0.0603625,0.0495,-0.0793375
-1.7580001,1.74195,10.905001,0.192225,0.1359875,-0.36795
-0.78105,-0.049950004,12.71205,0.714175,-0.0627,-0.98175
-0.98700005,-0.49995002,9.66705,-0.4090625,-0.08415,1.01805
-1.5090001,0.141,9.6,-0.565675,-0.1632125,0.962775
-1.29795,0.13305001,9.102,-0.0565125,0.0925375,-0.347875
-1.2409501,-0.13395001,8.647051,0.083325,0.1161875,-0.82555
-0.99195004,-0.75105006,8.7619505,-0.0605,0.062425,-0.3460875
-0.85305005,-0.94005007,9.712951,-0.1733875,0.0435875,-0.2319625
-1.3609501,0.31800002,8.587951,-0.07535,-0.0309375,-0.2066625
-0.85305005,-0.16995001,8.925,0.3810125,0.187825,-1.1603625
0.22095,-0.11895001,9.727051,0.054725,-0.133925,-0.1750375
0.984,0.34395,11.350051,0.0834625,-0.6029375,0.3408625
-0.312,-1.09605,11.395051,0.0605,-0.5504125,0.5451875
0.16605,-0.08295,10.167001,-0.23539999,0.0765875,0.5044875
-0.19500001,-0.31605002,9.129001,-0.0309375,-0.0119624995,-0.0589875
-0.54,-0.46395,9.504001,-0.024475,0.105875,-0.187
-0.027,-0.75795,9.739051,-0.11165,0.062425,0.083875
-0.22605,-0.34695002,10.2630005,-0.115637496,-0.0240625,0.0858
-0.60195005,-0.10005,9.459001,0.1109625,-0.0045375,-0.259325
-0.47700003,-0.31605002,9.468,0.087725,0.15413749,-0.3075875
-0.79305005,-0.48600003,10.597951,0.0048125,0.132275,-0.2586375
-0.231,0.04695,9.48795,0.013612499,0.128975,-0.10945
-0.38895002,-0.54495,9.468,0.125675,-0.094325,0.003575
-0.27405003,-0.50505,9.67695,-0.12485,-0.0796125,0.3471875
-0.10395,-0.036000002,10.1320505,-0.0716375,-0.0573375,0.1978625
-0.36195,0.042000003,9.27705,0.1452,-0.098175,-0.221925
-0.73605,-0.47805002,9.423,0.03135,0.0290125,-0.044825
-0.39600003,-0.27,9.595051,-0.114125,0.1456125,0.2000625
0.975,-1.0819501,10.194,-0.093775,-0.1078,0.22013749
2.1709502,-0.60300004,7.9510503,-0.39627498,-0.7275125,0.8861875
0.795,-0.22905001,9.65295,-0.1219625,-0.775225,0.3784
-0.80805004,0.21495001,9.736951,0.262075,0.3210625,-0.60115
-0.09195001,-0.50205004,10.134001,0.2193125,0.5880875,-0.8525
1.86705,-0.12900001,8.67405,-0.0732875,0.091025,0.0881375
1.3980001,-0.63600004,11.38605,0.031625,-0.5974375,0.2107875
1.8270001,-0.73695004,12.90795,-0.0474375,-0.352825,0.137775
0.86895007,-0.061950002,12.216001,-0.0298375,-0.0012375,-0.1920875
2.4079502,-0.68700004,7.3500004,0.1153625,-0.095425,-0.7536375
2.5180502,-1.26405,8.134951,-0.2264625,-0.62796247,0.2734875
-0.14895001,-0.85905004,9.81795,-0.18053749,-0.2008875,0.1315875
-0.087000005,-0.60795003,9.603001,-0.0053625,0.90433747,-0.6733375
0.69900006,-1.79295,8.985001,0.010725,0.5176875,-0.232925
-0.051000003,-2.08695,9.74895,-0.32065,0.0331375,0.8292625
-1.0999501,-0.26505002,8.458051,-0.2904,0.1227875,1.2508374
-1.4059501,-0.63405,13.633051,0.4543,0.812075,-0.7624375
-0.19005,-0.23895001,11.464951,0.29205,0.4444,-0.091025
-0.18105,-0.40905002,10.693951,0.0364375,-0.36355,1.0802
-1.401,0.95205003,8.841001,0.037125,-0.32175,0.6925875
-0.67395,0.78900003,8.676001,0.4195125,0.147675,-0.07755
-0.18795002,-0.52605003,10.210951,0.4371125,0.203225,-0.326975
-0.975,-0.20295002,11.295,-0.319825,0.0297,0.7942
-1.3270501,0.66,9.9210005,-0.1104125,0.27101249,0.1838375
-0.9799501,0.109050006,9.3820505,0.2618,0.1032625,-0.70345
-1.095,0.22200002,9.583051,-0.091575,-0.0845625,0.0749375
-1.8199501,0.55200005,8.923051,-0.0408375,0.0356125,0.0677875
-1.1209501,0.43995002,7.7880006,0.155925,0.24915,-0.252725
-0.86295,2.52705,12.123,0.16665,0.0430375,-0.0512875
-2.60805,0.33900002,10.917001,0.53295,-0.308825,-0.6578
-1.5139501,-2.3100002,10.816051,-0.4096125,0.4178625,0.28105
-2.7150002,0.65505004,7.2709503,-1.33155,0.1502875,1.6531625
-1.9230001,0.08805001,9.804001,0.23265,0.4015,-0.874775
-1.6650001,-0.26295,8.511001,0.6446,0.26427498,-1.611775
-0.59505004,-0.624,8.262,0.0521125,-0.0389125,-0.534325
-0.93000007,-0.33,8.299951,-0.3174875,-0.45581248,0.3425125
0.61995006,-0.58095,10.15305,-0.088275,-0.4087875,0.12815
1.338,0.717,8.614051,0.0598125,-0.746075,0.434775
1.3410001,-0.75600004,12.319051,0.245025,-0.8644625,0.14739999
0.13905,-1.1370001,12.139951,-0.2195875,-0.51755,0.38005
0.47400004,-0.61995006,9.265051,-0.20955,0.2267375,0.1128875
0.25605002,-0.16995001,9.49005,-0.0757625,0.1920875,-0.2913625
1.3549501,-0.72,9.76305,0.1192125,0.0605,-0.5842375
0.50805,-0.69900006,9.95895,-0.0422125,-0.1252625,0.0045375
0.66300005,-0.57195,9.700951,-0.0765875,-0.05115,0.220825
0.56505,-0.16005,9.507001,-0.011,-0.0721875,-0.0886875
0.49305,-0.711,10.1650505,0.1282875,0.042075,-0.2338875
0.62295,-0.59295005,9.64995,-0.0396,0.0468875,0.1975875
1.10895,-0.44505003,9.5140505,-0.0061875,-0.082499996,0.155375
1.0540501,-0.58905005,10.12905,0.006325,-0.1518,0.0094875
1.33095,-0.95205003,10.49295,-0.015675,-0.2187625,0.0361625
2.463,-1.3429501,11.57205,-0.031625,-0.1035375,0.35145
3.8470502,-0.27495003,11.653951,-0.107525,-0.2842125,0.2660625
0.68505,0.71295005,8.32695,0.06655,-0.1485,-0.5874
-0.07305,-1.4070001,8.74995,0.0727375,0.3221625,-0.564025
0.49095002,-0.24105,9.021001,-0.34759998,0.3746875,0.212025
1.7550001,-0.42105,9.93795,0.041525,0.1285625,-0.1111
0.70605004,-1.74495,11.332951,-0.0086624995,-0.25575,0.1527625
-0.657,0.141,7.7239504,-0.126775,0.087175,-0.0727375
-0.58305,-0.39495003,7.7190003,0.28985,0.42941248,-0.7161
-1.02795,-0.52905005,9.33705,-0.0378125,0.2454375,0.3867875
-1.8540001,-0.20595,11.800051,0.0317625,0.411125,0.611875
-1.5520501,-0.591,12.927001,0.24447499,0.523325,0.011
-1.50195,-0.62205005,10.44495,0.014025,0.115225,0.59015
-0.24000001,1.09305,6.2179503,-0.00385,0.3223,0.3081375
-0.70005006,-0.00705,9.65295,0.399575,-0.1354375,-0.2080375
-0.83400005,-0.591,10.845,-0.0191125,-0.0627,0.176
-1.023,0.29595003,10.275001,-0.2486,-0.0677875,0.5383125
-1.1020501,0.282,9.68595,0.13859999,-0.0429,-0.0070125
-0.59505004,-0.23895001,9.80805,0.0968,-0.036025,-0.001925
-1.023,0.28395,9.283951,-0.1293875,-0.091025,0.3727625
-1.23405,0.483,8.81295,0.066275,0.076175,0.0543125
-1.095,0.36600003,8.33895,0.1428625,0.103675,-0.4519625
-0.82905006,1.572,13.429951,0.3460875,0.033,-0.4849625
-2.67,0.12900001,11.014951,0.29535,-0.0636625,-0.3697375
-2.6100001,-0.15300001,9.295951,-0.2959,0.4167625,0.4203375
-2.265,0.555,8.608951,-0.3562625,0.2673,0.2387
-0.822,0.40095,7.8360004,0.1896125,0.016224999,-0.724075
-0.35505003,-0.60795003,8.928,-0.013062499,-0.39765,-0.139975
-0.26895002,-0.057000004,8.302951,-0.3223,-0.5770875,0.2803625
-0.71895003,-0.22500001,8.34795,-0.16733749,-0.324775,-0.066
0.40695003,0.411,8.08005,0.1351625,0.1887875,-0.74525
1.0200001,-0.26805001,10.017,0.2105125,-0.29315,-0.4090625
0.88605005,0.064050004,11.529,-0.0180125,-0.487025,0.37345
3.3229501,1.9909501,10.522051,0.022824999,-0.596475,0.204325
-2.2750502,-0.11895001,14.605051,0.3441625,-0.4112625,-0.25355
-1.8510001,-0.39900002,7.5030003,-0.291225,0.95507497,-0.5091625
1.42005,2.094,6.8880005,-0.0946,0.7341125,-0.90021247
0.65895003,-0.22905001,9.540001,0.69795,-0.63002497,-0.566225
0.57705003,0.71505004,8.08005,0.16115,-0.4013625,0.1731125
1.6140001,0.124050006,7.872,-0.3224375,0.34155,0.7566625
-1.21905,0.83895004,11.464951,-0.5237375,-0.5357,1.9765625
1.4290501,1.0380001,7.3500004,0.0482625,0.2589125,0.2726625
-0.46500003,2.46705,8.434051,0.31625,-0.3350875,-0.2415875
-0.441,2.163,11.158051,0.7682125,0.2809125,-1.9173
-0.351,0.303,10.79205,0.1769625,0.119625,-0.77715
0.58395004,0.94005007,8.7960005,-0.58465,-0.0933625,0.9032375
0.75900006,0.54300004,9.427951,-0.2061125,-0.37454998,0.588225
1.7190001,0.33195,9.238951,-0.324225,-0.294525,0.639375
0.252,1.26795,10.30095,-0.050875,-0.2288,0.2655125
0.93900007,0.73200005,11.656051,0.1150875,0.2871,-0.5193375
0.22095,1.83,11.635051,0.168575,0.1310375,-0.3586
0.61800003,-0.097950004,11.967001,0.234575,0.11495,-0.578325
1.06095,0.36795002,10.24905,-0.46254998,0.1148125,0.2833875
0.86895007,-0.35205,9.65505,-0.2057,-0.028875,0.060775
1.3980001,0.43695003,8.073,0.0287375,-0.114125,0.2778875
-0.76695,-0.24105,10.05,0.274725,-0.0697125,-0.101475
-1.0020001,1.11,11.10105,-0.122925,0.4670875,0.0919875
-0.47700003,1.44,8.98005,0.3598375,0.5946875,-0.8138625
0.22095,0.34605002,10.234051,0.3986125,0.40713748,-0.738925
-1.9300501,0.17205001,13.387051,-0.2079,0.2673,0.6202625
-1.0519501,0.33195,10.45005,-0.3276625,0.279675,0.76615
-0.3,-0.45705003,10.467001,-0.31845,-0.0462,1.1429
-2.43105,2.2350001,8.113951,-0.3779875,-0.391875,1.05435
-2.7270002,1.53795,9.519,0.5108125,-0.016775,-1.1455125
-1.6980001,0.88995004,9.19305,0.4296875,0.17985,-0.88467497
-0.99405,0.39405003,9.258,-0.2726625,0.124025,0.61448747
-0.054,0.53805,8.89395,-0.1276,0.02365,0.308
-1.332,0.040050004,10.974001,-0.0133375,-0.1868625,0.2443375
-1.69605,0.15705001,10.49505,-0.23773749,0.21285,0.3620375
-1.6500001,0.80595005,8.241,-0.0911625,0.225775,-0.057475
-1.62195,0.80805004,7.5679502,0.2561625,0.29535,-0.351175
-1.6650001,0.96405005,8.99895,0.0444125,0.0367125,0.0518375
-1.7629501,2.5819502,13.842001,0.446875,-0.0484,-0.5839625
-1.6339501,-0.31800002,11.091001,0.572,-0.2168375,-0.792825
-2.1430502,-3.4060502,11.44305,-0.723525,0.1645875,0.892925
0.132,-1.8360001,8.17095,-1.7303,0.155375,2.15655
-0.53505003,-0.82605004,10.246051,-0.091299996,-0.1194875,0.0235125
-2.08095,0.26505002,8.06595,0.60555,-0.032175,-1.1540375
-0.29805002,0.52395004,8.205,0.376475,-0.134475,-1.21495
-0.86505,0.07095,7.3410006,0.2916375,-0.4552625,-0.8177125
-0.35295,0.59805006,8.478001,0.0281875,-0.110275,-0.33275
0.19905001,0.72900003,8.583,0.2167,-0.28215,-0.373725
0.21300001,0.80100006,8.98995,0.1255375,-0.3752375,-0.121275
0.30705002,1.2270001,9.528001,0.0460625,-0.4255625,0.1170125
-0.025050001,0.906,10.893001,0.1452,-0.4024625,0.2849
0.78105,1.503,9.2029505,0.0848375,-0.087037496,0.123475
0.19695,-1.1770501,9.61695,0.119625,-0.2261875,0.0026125
1.5130501,0.44895002,8.01105,-0.314325,0.0116875,0.130625
0.039,0.51195,10.054951,-0.0422125,-0.5105375,0.29865
0.55995005,1.1080501,9.379951,-0.0642125,0.0556875,-0.1364
1.9800001,0.19305001,9.624001,0.17379999,0.08305,-0.5025625
1.02195,0.46800002,9.16005,-0.0380875,-0.26345,0.149325
0.95295006,0.55200005,9.579,-0.0363,-0.0444125,0.0045375
1.4680501,0.43695003,10.143001,-0.0224125,0.0672375,-0.113299996
2.3149502,0.92100006,9.427951,0.0891,0.0198,-0.158125
1.6350001,1.2390001,10.929001,0.22495,-0.3796375,-0.011825
1.8220501,0.24300002,9.625951,0.0616,-0.2396625,0.041525
1.0339501,0.84900004,7.93905,-0.08635,-0.1973125,0.4866125
1.6710001,1.6129501,9.538051,0.130075,-0.0488125,-0.059675
2.01105,0.40095,9.957001,0.146025,0.0061875,-0.23815
0.0049500004,-0.40905002,8.442,-0.1478125,0.26785,0.341275
1.8270001,1.16295,13.674001,-0.02805,0.6593125,-0.1087625
0.77805007,-0.36105,8.248051,-0.13585,-0.1111,0.3900875
-1.0540501,-1.0309501,7.7980504,-0.3795,0.0614625,-0.0078375
0.17505,-1.6510501,10.88595,-0.17407499,0.654225,-0.4937625
0.86895007,-1.58895,8.31,-0.6249375,-0.5710375,1.66485
-0.53505003,-0.31995,7.8360004,-0.34553748,-0.1057375,1.605725
1.8529501,-0.423,12.1710005,0.3139125,0.789525,-0.46873748
-1.0519501,-0.66795003,11.7619505,0.2047375,-0.03025,-0.4778125
-2.0689502,-0.141,10.15305,0.058575,0.5803875,-0.2501125
-0.79305005,-0.93105006,10.45005,-0.0323125,0.453475,0.5132875
-1.30305,-0.0139500005,10.45005,-0.0757625,0.12155,0.7712375
-0.76500005,-0.88500005,10.728001,0.23773749,0.41593748,-0.124437496
-0.95100003,-0.20295002,9.082951,-0.0809875,0.0138875,0.3705625
-0.60405004,-0.15495001,8.29605,0.0264,-0.079475,0.0292875
-0.36495003,-0.21000001,9.436951,-0.064625,-0.2594625,0.4252875
-0.351,-0.59295005,11.01,-0.0435875,-0.3119875,0.3485625
-0.753,0.076050006,9.732,-0.0622875,-0.1681625,0.068475
-0.666,-0.10005,10.191001,0.1040875,0.0094875,-0.2987875
-0.00795,-0.27705002,9.00195,0.0262625,0.0028875,0.0253
-0.537,0.025950002,9.406051,-0.0229625,-0.12485,0.11495
-0.786,0.021000002,8.784,0.0812625,0.0070125,-0.1208625
-0.97005004,0.010950001,9.220051,-0.0939125,0.0334125,0.0515625
-0.22395001,-0.9480001,9.922951,0.0372625,0.2365,-0.342925
-1.0540501,0.279,9.052051,-0.082225,0.1890625,-0.107525
-2.115,0.43305,9.78195,0.29095,0.3881625,-0.5982625
1.116,-1.845,13.9129505,0.1123375,0.1947,-0.2380125
-2.2060502,0.79605,10.498051,-0.2182125,-0.583275,0.47547498
-1.9519501,-0.66795003,10.189051,0.20845,0.463375,-0.48345
-1.1359501,-0.162,7.9680004,-0.2613875,0.2305875,0.06215
-0.62805,-0.81405,9.47595,-0.050875,-0.024475,-0.18727499
-0.86505,-0.54795,9.061951,-0.054725,-0.2162875,-0.22013749
-1.107,-0.59805006,9.069,0.093225,-0.0759,-0.6054125
-0.16605,-0.624,8.784,0.1062875,-0.0297,-0.6307125
0.72795004,-1.16505,8.391001,-0.0298375,-0.26633748,-0.159775
1.0819501,-0.30405003,9.873,-0.3003,-0.6463875,0.6276875
1.1179501,0.057000004,11.5990505,0.198,-0.51315,-0.2080375
0.24900001,-0.97905004,12.453001,0.24007499,-0.2519,-0.2660625
0.87405,0.081,9.49005,-0.139975,0.1464375,0.0902
0.312,-0.924,11.059951,0.07095,-0.0713625,-0.304975
1.10595,0.058950003,8.43,-0.0374,0.1478125,-0.3711125
1.26195,-0.73905003,10.440001,0.12155,-0.0754875,-0.330275
0.81900007,-0.33495003,9.969001,-0.1265,-0.1170125,0.1769625
1.1400001,-0.201,10.33695,0.0078375,-0.013475,0.0242
1.2210001,-0.141,9.387,0.0988625,-0.0429,-0.1343375
0.79005,-0.35205,9.66195,0.0246125,-0.0477125,0.0138875
1.3050001,-0.13095,9.47595,-0.0176,-0.01375,0.14533749
1.6279501,0.093,9.32205,0.0397375,-0.1926375,0.18645
1.314,-0.13905,10.861951,0.0704,-0.1898875,-0.153175
0.97905004,0.17205001,11.589001,0.03795,0.1128875,-0.1645875
1.4080501,0.20805001,8.302951,0.1060125,0.0482625,-0.0609125
2.32005,-0.22005,8.547,-0.0383625,-0.0988625,0.3067625
1.149,-0.186,9.14805,-0.1269125,-0.450175,0.55027497
1.7910001,-0.34005,8.20005,-0.0776875,0.1414875,-0.131725
0.80505,0.058950003,6.7180505,-0.267025,0.2303125,0.166925
-0.264,-1.02195,8.298,-0.1868625,0.496375,0.0881375
-1.0519501,-0.51705,6.84705,-0.18095,0.5704875,0.441925
-0.84405005,-0.072000004,8.178,-0.076725,0.4065875,0.442475
-2.2699502,-0.33,12.145051,0.3333,0.3581875,-0.3491125
-1.9020001,0.47805002,13.20705,0.44825,0.6290625,-0.6604125
-0.62595004,-0.67905,10.053,0.22385,0.00385,0.2047375
-0.81195,0.49005002,7.4269505,-0.391875,-0.188375,1.6911125
-1.15995,0.45600003,10.77105,0.07865,0.0724625,0.2580875
-1.605,0.342,10.134001,0.3372875,0.137775,-0.3653375
-2.1739502,0.034950003,10.498051,0.103675,0.1879625,-0.0677875
-1.014,0.26295,9.46605,-0.1722875,0.2435125,0.4415125
0.17295001,0.13305001,8.406,0.00495,-0.2226125,0.1813625
-0.93900007,-0.49500003,11.644051,0.020624999,-0.380875,0.242825
-1.45395,-0.00405,9.86295,-0.303325,-0.115637496,0.491975
-1.059,0.279,7.18695,5.5E-4,0.1255375,-0.0881375
-0.08505,1.2270001,9.732,0.09735,-0.0301125,-0.2558875
0.41895002,0.90195006,15.89805,0.63855,-0.3752375,-1.1034375
-2.94495,0.76500005,10.27305,0.154825,-0.2407625,-0.0281875
-1.2270001,-1.0189501,9.361051,-0.1772375,0.5050375,0.2083125
-0.54,0.51600003,9.082951,-0.522225,0.1551,0.9249625
-1.23405,-0.61200005,9.84405,0.262075,-0.0174625,-0.6612375
-1.5690001,-0.282,8.37705,-0.133925,-0.03795,-0.386375
-1.9380001,-0.85905004,7.5919504,-0.0353375,0.1978625,-0.7231125
-1.0210501,0.342,7.9410005,-0.0727375,0.0416625,-0.8534625
-0.80505,0.63405,7.93695,0.344025,-0.0851125,-1.1100374
0.21795002,-0.016050002,9.62895,0.4560875,-0.0061875,-0.918225
2.32005,-0.21795002,11.57205,-0.0735625,-0.7090875,0.646525
1.37205,0.49695003,10.30095,-0.0752125,-1.16105,0.9692375
0.69900006,-0.25095,10.608001,-0.0721875,-0.373175,0.2849
1.19505,-0.52395004,8.48205,-0.16775,0.0856625,-0.1887875
0.81705004,-0.83295006,8.41005,-0.3144625,0.031075,-0.2765125
1.91295,-1.33305,10.75605,-0.28875,-0.020624999,-0.17655
1.9099501,-1.44105,11.656051,-0.21779999,-0.3452625,0.254925
1.1539501,-1.5960001,9.66495,-0.1887875,-0.0694375,0.062425
0.87600005,-0.94995004,8.78895,-0.17173749,0.1126125,0.090475
1.02495,-0.59295005,9.31095,0.085525,0.1563375,-0.1651375
1.53495,-0.88995004,10.24905,0.1238875,0.08635,-0.269225
1.0819501,-1.1389501,9.691051,0.033,-0.174625,-0.015675
1.5970501,-0.82305,9.45195,-0.012375,-0.07205,0.278025
0.68295,-0.88500005,10.05,0.0697125,-0.1013375,0.11165
0.80505,-0.54495,9.129001,0.0402875,0.2376,-0.0240625
4.01205,-0.72300005,11.44995,0.19607499,-0.0495,0.1804
3.9120002,-4.2840004,10.5379505,0.077825,-0.82885,0.741125
2.38905,-0.55305004,10.234051,-0.3641,-0.5005,0.8006625
2.3800502,0.033,6.3180003,-0.0229625,0.2182125,-0.697125
-0.18795002,-1.644,4.12305,-0.323125,-0.367675,0.066825
2.6790001,-0.77805007,5.3830504,-0.3169375,0.1458875,0.7880125
0.87900007,-1.3110001,8.446051,0.1661,-0.135575,0.0683375
3.1930501,-0.30405003,8.302951,0.1269125,-0.0567875,0.515625
1.26705,-0.53595,10.89,0.5190625,-0.2580875,-0.36519998
-0.92700005,-0.246,12.56295,0.3185875,0.9656625,-0.7753625
-0.53505003,-1.0510501,9.732,0.220275,1.1952875,-0.63195
-1.1190001,-0.95205003,10.687051,-0.1260875,0.439175,0.73095
-1.143,-1.005,10.543051,-0.1241625,0.2805,1.059575
-1.9540501,0.162,8.932051,-0.0361625,0.3601125,0.3645125
-1.2859501,-0.201,9.459001,0.3488375,0.462,-0.5704875
-1.023,-1.062,10.512,0.2446125,0.1667875,-0.600325
-1.011,-0.25095,9.916051,-0.2943875,-0.171325,0.566225
-1.44,-0.08805001,9.885,0.193325,0.08305,-0.24365
-0.82695,-0.44505003,9.780001,0.231825,0.1639,-0.4288625
-1.131,-0.73905003,10.383,-0.084975,-0.0471625,0.236775
-0.76500005,-0.33195,8.829,-0.0705375,0.0400125,0.2253625
-1.2790501,0.16695,9.66495,0.1087625,0.039049998,-0.0840125
-0.83205,1.66005,12.19005,0.3064875,-5.5E-4,-0.29425
-1.04505,-1.3879501,11.95995,0.3069,-0.18727499,-0.2187625
-0.15405001,-1.4430001,12.82005,-0.74085,0.0463375,1.2887875
-1.2889501,-0.37605003,9.220051,-0.49307498,-0.1958,0.531575
-2.39895,0.15495001,8.53695,0.292325,0.47465,-1.49325
-1.0999501,-1.5010501,8.923051,0.5630625,0.67553747,-2.0648375
0.57495004,-1.4770501,8.466001,-0.675675,-0.470525,0.75845
-0.23295002,0.52095,8.86305,-0.3771625,-1.0417,0.5302
0.73800004,0.64305,10.042951,0.687225,-0.39105,-1.1944625
1.09395,0.38700002,9.50205,0.4635125,-0.4602125,-0.579425
2.2480502,0.528,9.43305,-0.0165,-0.2949375,0.30621248
0.69195,0.069000006,10.720051,0.081675,-0.4554,0.296725
1.8030001,0.60705,9.109051,-0.0226875,-0.0540375,0.0672375
1.3290001,0.14295001,7.3720503,-0.012925,-0.0900625,-0.252175
1.0540501,-0.01905,8.236051,-0.137225,-0.001925,-0.27115
1.44105,-0.0019500001,10.38,-0.0504625,-0.00715,-0.212575
1.623,-0.081,11.149051,-0.0477125,-0.021175,-0.0078375
1.5469501,-0.56205004,7.5220504,0.0198,-0.09295,0.1067
2.2720501,-1.0170001,10.46895,-0.06765,-0.0991375,0.3447125
1.04205,-1.9120501,10.6050005,-0.220825,-0.2231625,0.177375
2.4180002,-1.33095,11.212951,-0.373175,0.23925,0.1918125
1.3600501,-2.32395,10.1629505,-0.1095875,0.025024999,0.238425
4.3900504,-0.75600004,13.116,-0.23155,0.0312125,0.3834875
1.7310001,-2.1400502,14.16495,0.22275,-0.4235,-0.39421248
1.116,-2.094,7.3410006,-0.2715625,-0.3111625,0.815375
0.99105006,-1.05495,7.97205,-0.2091375,-0.18493749,1.1264
1.03695,-1.1179501,9.703051,0.22605,0.27335,-0.1436875
0.60795003,-1.0510501,10.012051,0.29095,0.3498,-0.4054875
2.1019502,-0.49005002,10.255951,0.2242625,0.0727375,0.2336125
1.113,-0.62205005,8.590051,0.4291375,-0.3042875,0.2718375
0.312,-1.0819501,9.366,0.2212375,0.1359875,0.5825875
-0.69495004,-0.76995003,12.537001,-0.0160875,0.83105,0.4334
-1.0999501,-1.536,13.246051,0.099275,0.684475,-0.1903
-1.2,-1.0030501,9.79395,-0.20253749,0.34705,0.08305
-0.88005006,-0.80595005,7.9750504,-0.0708125,0.35035,-0.38334998
-0.16095,-0.48795003,8.52105,0.0292875,-0.0319,-0.0493625
-0.59205,-1.5439501,10.713,0.08305,-0.070125,0.111925
-0.84795004,-0.60495,9.837001,-0.131725,0.0202125,0.36781248
-0.86295,0.20505,8.121,0.07535,0.014712499,0.1727
-0.48900002,-0.80205005,9.772051,0.3029125,0.005225,-0.17379999
-1.45605,-0.36105,10.704,-0.0771375,-0.124437496,0.4433
-1.88505,1.041,9.92805,-0.0727375,-0.236775,0.411675
-0.62595004,0.91800004,9.114,0.6813125,0.381975,-0.9818875
-0.90105003,0.72495,12.109051,0.4756125,-0.26455,-0.56595
-1.9470001,0.112050004,10.64595,0.064075,-0.0968,-0.0686125
-1.18095,-1.23,11.611051,-0.14685,0.3141875,-0.1958
-2.598,0.22695,7.5030003,-0.745525,-0.3433375,0.0831875
