@ HyperIMU - ianovir
@ Date:Tue Aug 15 09:49:34 GMT+03:00 2023, Sampling Rate:100ms

bma4xy_accelerometer.x,bma4xy_accelerometer.y,bma4xy_accelerometer.z,oem_pseudo_gyro.x,oem_pseudo_gyro.y,oem_pseudo_gyro.z
0.21795002,-0.23400001,9.67395,0.080025,0.148775,-0.111237496
0.13395001,-0.27705002,9.724951,-0.0320375,-0.1665125,0.369325
0.201,-0.34695002,9.883051,-0.0680625,-0.1186625,-0.055825
0.22800002,-0.43095002,9.801001,-0.0490875,-0.066,-0.0760375
0.45795003,-0.76605004,10.347,-0.0532125,-0.0306625,-0.1441
-0.078,-0.32295,9.946951,-0.0352,-0.007975,0.1271875
-0.051000003,-0.32505003,9.79395,0.0554125,0.08085,-0.179025
-0.18795002,-0.19095,10.002001,0.029975,-0.0281875,-0.2897125
0.22800002,-0.38700002,9.66495,0.0092124995,0.022,-0.1255375
0.20895001,-0.14595,9.67695,-0.0528,-0.067925,0.12815
0.18900001,-0.423,9.555,0.00495,-0.0671,-0.039325
0.003,-0.43995002,10.251,0.0075625,0.0320375,0.159775
0.18195,-0.33495003,9.595051,-0.025575,0.0928125,-0.087037496
0.07005,-0.19605,9.816001,0.0468875,-0.004125,0.1343375
0.034050003,-0.246,9.918,-0.0099,-0.02805,0.2501125
0.15405001,-0.34905002,9.636001,0.02805,0.0246125,-0.2960375
0.08400001,-0.28500003,9.837001,-0.0694375,-0.0644875,0.278025
0.25395,-0.49995002,9.978001,2.75E-4,-0.0334125,0.4224
0.07005,-0.31305,9.76095,-0.02915,-0.0240625,-0.0411125
0.120000005,-0.31095,9.80805,0.016775,0.044,-0.3086875
0.112950005,-0.31605002,9.8560505,0.010175,0.0378125,-0.2330625
0.261,-0.39195,9.757951,0.0023375,0.010175,-0.159225
0.201,-0.37995002,9.82995,-0.022,-0.0471625,0.103675
0.192,-0.35895002,9.76095,-0.0092124995,-0.0177375,0.0518375
0.22305001,-0.41895002,9.922951,-0.0045375,-0.015125,-0.1214125
0.16305001,-0.41400003,9.897,-5.5E-4,-0.00165,-0.3436125
0.192,-0.31800002,9.94995,1.375E-4,0.0105875,-0.184525
0.14400001,-0.36600003,9.82995,0.0050875,-0.020075,0.1940125
0.112950005,-0.33495003,9.868051,0.021724999,0.01485,0.0559625
0.22800002,-0.31095,9.77505,0.009625,0.0158125,-0.0985875
0.14205001,-0.27,9.78705,0.0099,-0.0138875,0.080025
0.12195001,-0.31605002,9.80805,0.0053625,-0.0015125,0.051425
0.07005,-0.24105,9.89505,6.875E-4,0.0070125,-0.0592625
0.024,-0.201,10.09305,0.0154,0.0325875,-0.2259125
0.25395,-0.20295002,9.835051,0.028324999,0.0127875,-0.2072125
0.38595003,-0.26805001,9.880051,0.0295625,-0.041525,-0.04455
0.34995002,-0.14295001,9.732,0.025024999,-0.06765,0.0727375
0.41205,-0.20805001,9.739051,0.0235125,-0.0548625,0.229075
0.46500003,-0.25305,9.837001,0.012375,-0.040975,0.2143625
0.46005002,-0.21495001,9.79395,0.0081124995,-0.0276375,-0.0763125
0.38595003,-0.17205001,9.68595,-0.0169125,-0.033825,-0.1736625
0.333,-0.21300001,9.729,-0.011825,-0.0246125,4.125E-4
0.201,-0.17400001,9.816001,-0.01375,0.0045375,0.072875
-0.003,-0.165,9.8560505,0.01705,0.1546875,-0.0133375
-0.26700002,-0.16695,10.222051,0.027775,0.1414875,-0.0738375
0.031050002,-0.14295001,9.79605,0.0042625,0.1098625,0.029975
-0.039,-0.25305,9.745951,9.625E-4,0.0287375,0.0474375
-0.051000003,-0.15495001,9.79395,-0.0105875,0.023375,0.157025
0.02205,-0.17205001,9.816001,0.01155,0.014712499,0.0952875
-0.018000001,-0.15795001,9.868051,0.0067375,5.5E-4,0.184525
0.10605001,-0.21300001,9.7560005,-0.0064625,-0.016775,-0.1607375
-0.010950001,-0.177,9.828,0.0012375,-0.009075,-0.21065
-0.027,-0.20595,10.054951,-0.0012375,0.011,0.0675125
-0.006,-0.186,9.901951,0.0105875,0.0166375,0.058025
0.06705,-0.17400001,9.705001,4.125E-4,0.0023375,-0.0020625
-0.043950003,-0.13095,9.67695,-0.014575,-0.031625,-0.18865
0.036000002,-0.20595,9.92595,-0.0114124995,-0.013475,-0.2355375
0.097950004,-0.33495003,10.065001,0.006875,-0.0165,0.194425
-0.07305,-0.040050004,9.76095,0.009625,0.011,0.052249998
0.07005,-0.18195,9.94995,0.004675,-0.021175,0.2112
0.13005,-0.18405001,9.7890005,-0.0229625,-0.0548625,-0.1280125
0.26595002,-0.26505002,9.885,0.0033,-0.014162499,-0.0603625
0.14205001,-0.15495001,9.58605,0.0,-0.0213125,0.0275
0.060000002,-0.165,9.910951,0.0094875,0.0015125,-0.0658625
0.01695,-0.055050004,9.816001,0.014025,0.033825,-0.0567875
0.02205,-0.10305001,9.816001,0.03025,0.0331375,0.0320375
-0.087000005,-0.045,9.79905,0.0210375,0.0303875,0.136675
-0.022950001,-0.08805001,9.909,0.0127875,0.018424999,-0.0539
-0.003,-0.094950005,9.733951,0.011825,-0.0031625,0.1863125
0.064950004,-0.14295001,9.865951,-0.0033,0.0011,0.0342375
-0.022950001,-0.079050004,9.8539505,-2.75E-4,-0.00275,-0.093637496
-0.015000001,-0.093,9.8230505,0.002475,0.009625,0.028324999
0.031050002,-0.076050006,9.837001,-9.625E-4,0.00715,-0.216425
-0.003,-0.076050006,9.693001,0.0020625,-0.007425,-0.19525
-0.042000003,-0.117000006,9.696,-0.0017875,-0.00275,0.3168
-0.06105,-0.13905,9.96405,2.75E-4,0.0287375,0.3102
0.04095,-0.18900001,9.90705,0.01155,0.0114124995,-0.0771375
0.108,-0.22695,9.777,-0.0336875,-0.038775,-0.067925
0.063,-0.094950005,9.81105,-0.0347875,-0.036849998,0.29865
-0.10605001,-0.079050004,9.745951,-0.0011,-0.002475,-0.26565
0.0049500004,-0.15795001,9.828,0.00935,0.0336875,-0.1574375
-0.15705001,-0.141,9.82995,-0.007425,0.0083875,-0.0856625
-0.20505,-0.18405001,9.90705,-0.0022,0.050049998,-0.0193875
-0.030000001,-0.18405001,9.736951,0.0083875,0.0413875,-0.2618
-0.14895001,-0.08805001,9.772051,-0.0122375,-0.00275,-0.0191125
-0.102000006,-0.18195,9.80595,0.0097624995,0.0033,0.019524999
-0.13305001,-0.18195,9.7890005,-0.0155375,-0.0163625,-0.0264
-0.16605,-0.21795002,9.8539505,-0.0050875,0.024475,0.0735625
-0.123,-0.21495001,9.61695,-0.0045375,0.0174625,0.047849998
-0.303,-0.19605,9.86295,-0.0334125,-0.0121,-0.034925
-0.28095,-0.31800002,9.993,-0.0224125,0.0284625,0.07645
-0.16395001,-0.43800002,9.7890005,-0.0342375,0.0407,0.1428625
-0.279,-0.37095,9.70995,-0.0510125,0.028875,-0.17545
-0.44895002,-0.32505003,9.82995,-0.0473,0.02145,0.0493625
-0.18495001,-0.39705002,9.739051,-0.0066,0.036849998,0.146575
-0.24795002,-0.39000002,9.84405,-0.0226875,-0.0457875,0.3663
-0.24795002,-0.28005,9.712951,-0.003025,-0.033825,0.0158125
-0.291,-0.35205,10.12005,0.0517,0.006875,-0.0451
-0.19305001,-0.462,9.81105,0.0196625,0.018424999,-0.2536875
-0.279,-0.37800002,9.67905,-0.037125,-0.0229625,0.31501248
-0.24495001,-0.35595003,9.93,-0.0341,0.0020625,0.01705
-0.50895,-0.31995,10.087951,0.00385,0.0100375,-0.3078625
-0.351,-0.45000002,9.85095,0.0286,0.093775,0.01045
-0.11805001,-0.55305004,9.79395,-0.051425,0.00275,0.3034625
-0.48195,-0.47595003,9.837001,-0.053075,-0.0496375,-0.00825
-0.11100001,-0.342,9.804001,0.0086624995,0.0364375,-0.1357125
0.13695,-0.28905,9.65295,0.039325,-0.1126125,0.036025
-0.022950001,-0.186,9.825001,0.0598125,-0.13695,-0.157025
0.055050004,-0.20595,9.607051,0.0380875,-0.0446875,-0.22715
-0.12105001,-0.186,9.696,-0.003025,-0.0471625,0.026124999
-0.30495003,-0.261,9.86295,-0.0050875,0.0143,-0.295625
-0.030000001,-0.282,9.700951,0.0,0.0741125,-0.363
-0.010950001,-0.30795002,9.81105,0.002475,-0.0099,-0.013062499
0.11505,-0.40695003,9.80595,-0.0011,-6.875E-4,0.0097624995
-0.10395,-0.31605002,9.934951,-0.0350625,-0.045925,0.2432375
-0.14205001,-0.23400001,9.784051,-0.0070125,0.0111375,-0.046475
0.015000001,-0.36600003,9.8560505,0.0044,0.011275,0.0132
-0.09705,-0.35595003,9.934951,-0.00165,-0.011825,0.072325
-0.063,-0.28695002,9.583051,-0.0207625,0.015125,0.1375
-0.10605001,-0.31995,9.801001,-0.0017875,0.0202125,-0.0438625
-0.15195,-0.26295,9.792001,0.0125124995,0.0218625,0.060225
0.00795,-0.37305,9.81795,0.0083875,0.0015125,0.1241625
0.04605,-0.38505003,9.98805,-0.0012375,-0.01045,0.0741125
-0.043950003,-0.31605002,9.82995,-0.0045375,-0.0132,-0.1626625
-0.102000006,-0.27705002,9.81105,0.0020625,-0.001375,-0.077275
-0.063,-0.36600003,9.954,0.005225,0.01485,-0.083325
-0.06105,-0.27705002,9.85095,-0.005775,-0.0059125,0.1194875
-0.022950001,-0.41595003,10.033051,0.017875,-6.875E-4,0.049775
-0.147,-0.177,9.76305,-0.0022,0.00165,0.086899996
-0.19695,-0.17205001,9.813001,0.01705,0.0105875,0.0451
-0.17805001,-0.282,9.916051,0.0268125,0.0100375,-0.070675
-0.25500003,-0.11505,9.727051,-0.00165,0.0242,-0.0988625
-0.09,-0.07395,9.813001,0.06215,0.062975,-0.3914625
0.13905,-0.26295,10.218,0.0961125,-0.0100375,-0.5632
0.20895001,0.744,9.03495,0.013612499,-0.1428625,-0.2943875
0.177,0.55695003,9.889951,0.243375,-0.077825,-0.690525
0.67095006,0.36600003,10.00905,0.2338875,-0.072875,-0.5674625
0.34695002,0.76305,9.63105,0.11605,-0.1538625,-0.3194125
0.56295,2.33505,8.08695,0.21505,-0.0353375,-0.55825
1.0510501,2.1700501,6.8880005,0.579975,-0.265375,-0.7500625
0.58395004,-0.79005,8.611951,0.39435,-0.38334998,0.0449625
0.37905002,-3.4729502,11.314051,-0.77,0.498575,1.805925
-0.68595004,-2.283,11.347051,-1.541925,-0.0092124995,4.9820375
-0.537,-1.5600001,11.56995,-0.570075,-0.052525,2.2319
-0.81195,-0.711,9.957001,-0.0171875,0.0556875,0.3345375
0.37605003,-0.52395004,10.864051,0.245025,0.11825,-0.3711125
0.13905,-0.624,11.047951,0.396,-0.014712499,-1.2969
0.051000003,-0.11895001,10.660951,0.1868625,-0.0275,-0.72545
-0.15705001,0.094950005,9.427951,0.168575,-0.0908875,-0.6483125
-0.11100001,0.17205001,8.86995,0.2319625,0.246675,-0.5330875
0.73005,-2.2690501,14.767951,0.1500125,0.10835,-0.375925
-0.88005006,-2.973,14.172001,-0.5520625,-0.2143625,1.47895
0.18705001,-3.7740002,13.9470005,-0.54821247,0.1423125,1.855425
-0.59895,-0.77805007,9.066,-0.463925,-0.15455,1.4023625
0.17295001,0.66,8.785951,0.26785,0.1601875,-0.11495
2.4390001,1.2780001,5.16195,1.012,-0.1423125,-3.0575874
0.26805001,0.73200005,7.5990005,0.818125,-1.0209374,-2.622125
0.675,1.27005,7.8169503,0.130075,-0.0061875,-1.0935374
1.24695,-0.531,9.712951,0.0917125,-0.0309375,-0.82005
0.75195,0.30795002,9.574051,-0.2319625,0.0466125,0.3634125
0.43095002,-0.141,9.16695,-0.0444125,0.1881,0.079475
0.34305,-0.27495003,9.66495,-0.1772375,0.2336125,0.490325
-0.21405001,-0.44505003,10.1959505,-0.045925,0.2305875,0.0438625
0.012,-0.49500003,9.625951,-0.1144,0.192225,0.560175
0.13905,-0.52605003,9.68595,-0.082775,0.0501875,0.4296875
-0.19005,-0.42600003,9.837001,-0.056649998,-0.00825,0.3003
-0.18795002,-0.68700004,9.81105,-0.0589875,0.060225,0.097075
-0.17805001,-0.56505,9.588,-0.0798875,0.0466125,0.355575
-0.16605,-0.54105,9.954,-0.0015125,0.05775,0.2046
-0.078,-0.57900006,9.898951,0.0240625,0.0308,0.07865
-0.078,-0.52905005,9.918,0.0191125,0.0103124995,-0.086625
0.177,-0.69405,10.110001,-0.0086624995,-0.0490875,0.1892
-0.034950003,-0.34395,9.76095,-0.007425,-0.0694375,0.0132
0.24000001,-0.57705003,9.93,0.0438625,-0.0468875,-0.1401125
-0.16605,-0.33705002,9.861,0.0097624995,-0.0746625,0.3091
-0.066,-0.402,9.72,0.0341,0.0286,0.050325
-0.042000003,-0.402,9.83205,-2.75E-4,0.003025,0.19525
-0.006,-0.48600003,9.978001,0.01265,0.01595,-0.0251625
-0.15705001,-0.41895002,9.92805,0.0160875,0.0352,-0.089375
-0.32895002,-0.41895002,10.062,-9.625E-4,0.0353375,-0.042625
-0.216,-0.51705,9.966001,-0.0097624995,0.073975,0.113437496
-0.22095,-0.50205004,9.828,-0.012375,0.0771375,0.0066
-0.49395,-0.37605003,9.744,-8.25E-4,0.0460625,0.0312125
-0.48900002,-0.33705002,9.696,-0.0037125,0.063525,0.00825
-0.504,-0.34395,9.757951,0.02255,0.0477125,0.1876875
-0.34800002,-0.45000002,9.913951,0.002475,0.01925,0.1772375
-0.35505003,-0.282,9.67395,-0.0100375,-0.010175,-0.19373749
-0.36705002,-0.26295,9.792001,0.0411125,-0.0114124995,-0.1705
-0.18300001,-0.24900001,9.757951,0.0567875,-0.004125,-0.2374625
-0.24300002,-0.39000002,9.79905,0.04455,-0.0457875,-0.2217875
-0.25005,-0.162,9.62205,-0.0295625,-0.0331375,0.15853749
-0.31695002,0.049950004,9.5449505,0.0292875,-0.0485375,-0.1450625
-0.216,-0.069000006,9.562051,0.0979,-0.011275,-0.2212375
-0.042000003,-0.141,9.591001,0.0600875,-0.015675,-0.1370875
-0.29805002,0.16695,9.62205,0.01815,-0.038775,-0.0818125
-0.351,0.17895001,9.94005,0.04235,0.02035,-0.08085
0.20895001,0.73905003,8.6310005,0.122099996,-0.0306625,-0.5297875
0.23700002,0.72495,9.318001,0.2594625,-0.169125,-0.807675
-0.23295002,0.90405005,8.904,0.2085875,-0.108625,-0.5907
0.28500003,1.19595,8.48205,0.236775,0.0061875,-0.77715
-0.50595003,0.58305,8.31705,0.1896125,-0.09075,-0.3928375
0.88095003,-1.1700001,7.6639504,-0.3664375,0.1882375,0.56787497
-0.043950003,-2.39595,11.187,-0.935825,-0.16005,3.1714375
0.3,-2.11305,11.491051,-0.6582125,-0.2355375,2.434025
0.56505,-1.9549501,11.781,-0.20515,-0.10175,1.1831875
0.11805001,-0.60300004,11.094001,0.0191125,-0.078925,0.033825
-0.51105005,0.45900002,9.559051,0.3212,0.1551,-0.75515
0.01695,-0.67200005,10.074,0.3738625,0.2572625,-1.227875
0.20400001,-0.79005,9.22395,0.0418,0.0543125,-0.47547498
-0.39795002,-1.96695,11.704051,-0.1131625,-0.1027125,0.114125
-0.23595001,-2.74305,13.368001,-0.4629625,-0.0807125,0.999075
0.35205,-3.6070502,13.782001,-0.4063125,-0.031625,0.923725
-1.5109501,-0.23205002,6.0379505,-0.341275,-0.174625,0.7539125
-1.7320501,1.9879501,5.80095,0.4789125,0.3909125,-0.6854375
-1.2790501,1.33305,6.5890503,1.3762375,0.20253749,-3.6441624
-0.564,0.48495004,8.18805,0.3606625,0.0859375,-1.237775
-0.33105,0.20805001,10.75395,0.1507,0.1296625,-0.76353747
-0.46305,-0.27495003,10.452001,0.103125,0.06765,-0.5141125
-0.41805002,0.025950002,9.054001,-0.120725,0.0622875,-0.013062499
-0.88905007,0.38205,9.31995,-0.1340625,-0.0033,0.3014
-0.63495004,0.016050002,9.53295,-0.023375,-0.0460625,0.1197625
-0.73095006,0.45600003,9.234,-0.1379125,-0.1645875,0.40535
-0.528,-0.50205004,9.913951,-0.005225,9.625E-4,-0.0116875
-0.303,0.066,9.27,-0.2443375,-0.043175,0.704825
0.027,-0.483,9.98295,-0.0334125,-0.0650375,0.2140875
-0.17295001,-0.093,9.33195,-0.13653749,-0.16225,0.383625
-0.03195,-0.49305,9.684,-0.069025,-0.0796125,-0.17545
0.0049500004,-0.70095,10.005,-0.066275,-2.75E-4,-0.0325875
-0.23595001,-0.56700003,9.883051,-0.0518375,0.014712499,0.1918125
-0.051000003,-0.56505,9.757951,-0.0306625,0.0259875,0.1403875
0.10305001,-0.70605004,9.933001,-0.0196625,-0.014162499,0.0471625
-0.24495001,-0.43995002,9.79905,-0.0253,-0.0411125,0.158675
-0.09900001,-0.81795,9.946951,-0.01485,0.02255,0.1563375
-0.034950003,-0.60300004,9.934951,-0.0644875,-0.014025,0.26675
-0.15195,-0.15300001,9.31995,-0.0044,-0.0166375,0.0050875
0.07005,-0.47805002,10.014001,0.13695,0.0092124995,-0.4354625
0.12495001,-0.52395004,10.206,0.0521125,-0.045375,-0.0023375
-0.09,-0.26805001,9.97605,0.0078375,-0.0614625,0.2847625
-0.10605001,-0.31800002,9.918,0.0570625,0.0226875,-0.1799875
-0.027,-0.49305,9.97395,0.0297,0.0257125,0.0105875
-0.25695002,-0.165,9.595051,-0.018975,-0.0066,-0.0708125
0.012,-0.43095002,9.77505,0.033,0.032449998,0.02145
-0.16395001,-0.24405001,9.691051,-0.014712499,-0.0122375,0.1617
0.010050001,-0.45000002,9.98805,0.031075,0.0270875,-0.1056
-0.14205001,-0.37305,9.98595,0.0037125,-0.00495,-0.1634875
0.010050001,-0.50505,9.957001,0.0094875,0.0457875,-0.0809875
0.064950004,-0.58905005,10.206,-0.0386375,-0.0254375,0.1067
-0.13305001,-0.17400001,9.378,-0.07205,-0.0485375,0.088
-0.025050001,-0.24900001,9.880051,0.0479875,0.0207625,-0.248325
-0.07005,-0.294,9.957001,0.01155,-0.0397375,-0.1722875
-0.33600003,-0.18900001,10.074,0.0319,-0.0050875,0.093225
-0.11595,-0.11895001,9.81795,0.0457875,0.0317625,-0.0743875
0.00795,-0.29895002,9.77505,0.037675,0.0028875,0.0048125
0.048,-0.22200002,9.571051,-6.875E-4,0.0033,0.0881375
0.16800001,-0.35595003,9.715051,0.0083875,-0.0089375,-0.0749375
0.10605001,-0.42600003,10.189051,-0.0251625,-0.0402875,-0.090475
-0.06795,-0.20595,9.94995,-0.036849998,-0.0312125,-0.0207625
0.10605001,-0.13605,9.739051,0.0209,0.0204875,-0.11275
0.108,-0.17895001,10.18395,0.0653125,-0.0039875,0.0468875
-0.00795,0.11400001,9.859051,0.0609125,0.0116875,-0.095837496
0.08205,0.105000004,9.89505,0.103125,0.030524999,-0.0081124995
0.015000001,0.076050006,9.613951,0.0554125,-0.0286,-0.0622875
0.16305001,0.109050006,9.459001,0.010175,-0.0213125,-0.094325
-0.034950003,0.040050004,9.898951,-0.0059125,-0.0495,0.17655
-0.075,0.09705,9.64995,-4.125E-4,0.016775,1.375E-4
-0.051000003,0.13800001,9.6,0.017875,0.0408375,-0.2253625
0.060000002,0.26295,9.571051,0.0561,0.0023375,-0.11
0.015000001,0.48795003,9.37005,0.114675,-0.027224999,-0.2476375
0.109950006,0.99495006,9.44205,0.108625,-0.0735625,-0.5278625
0.216,0.93495005,9.106951,0.194975,-0.0834625,-0.73425
0.21795002,0.85605,9.30795,0.20487499,-0.026124999,-0.73039997
0.41400003,1.11,9.78705,0.1076625,-0.066275,-0.501875
0.69705003,1.7200501,8.55195,0.319825,-0.15853749,-0.957825
1.245,1.9720501,6.438,0.27513748,-0.3089625,-0.377575
-1.27695,-1.8430501,8.47305,-0.2300375,-0.2014375,0.8716125
-0.41805002,-3.3409503,9.7560005,-1.559525,0.2872375,4.34555
0.66105,-2.40105,10.515,-1.0153,-0.2520375,3.8632
0.58395004,-2.15595,11.668051,-0.24447499,-0.193325,1.403875
1.69305,-1.7710501,11.818951,0.0884125,0.0455125,-0.2968625
0.264,-1.1700001,11.57505,0.161975,-0.0218625,-1.4482875
-0.09705,-1.51005,10.67205,0.115775,0.2305875,-0.57722497
0.56505,-4.155,14.739,-0.0631125,0.1637625,0.3196875
0.40995002,-2.83905,13.408051,-0.3685,-0.1038125,0.9986625
0.216,-3.624,11.06295,-0.082225,-0.06875,0.4175875
-0.15195,-1.6680001,8.21895,-0.306625,-0.16445,0.87023747
0.726,0.61395,6.9,0.1247125,0.119625,-0.2509375
1.0320001,2.39505,3.22305,1.1306624,0.5058625,-3.0976
0.64905006,0.6,8.25,1.3622125,-0.3224375,-3.7332625
1.4389501,-0.28500003,10.519051,0.26427498,-0.1863125,-0.9293625
1.23105,0.057000004,10.254001,-0.27101249,-0.4376625,0.5330875
1.2,-0.78000003,10.876051,-0.128425,0.0424875,-0.1755875
-0.34305,-0.81405,10.833,-0.190575,0.1632125,0.23595
-0.03195,0.057000004,7.7830505,-0.357775,0.34375,1.03235
0.402,-0.28905,10.036051,-0.051425,0.198825,0.1115125
0.13005,-0.41895002,10.00905,0.0407,0.05335,-0.0121
0.21795002,-0.54300004,9.50895,-0.083325,0.0081124995,0.2541
0.30705002,-0.42105,9.77505,-0.125125,-0.086075,0.35901248
0.052950002,-0.94305,10.692,-0.01705,-0.0188375,0.075075
-0.23595001,-0.41595003,9.471001,-0.0842875,0.089925,0.2385625
0.30705002,-0.62895006,9.47295,-0.014575,0.1211375,0.274725
0.441,-0.65595,9.94005,-0.0512875,-0.0510125,0.5258
0.38295,-0.48600003,9.901951,0.049225,-0.104225,0.0631125
0.11505,-0.48795003,9.460951,0.0757625,-0.0644875,-0.1863125
0.027,-0.34395,9.045,-0.0301125,-0.0105875,0.302225
0.10095,-0.39495003,9.84405,0.013062499,0.033825,-0.050325
0.12705001,-0.342,9.97605,0.064075,0.0537625,-0.1150875
0.20895001,-0.19800001,9.636001,0.0814,0.046475,-0.146575
0.11805001,-0.28500003,9.672001,0.064075,-0.0286,0.1843875
0.201,-0.52395004,9.99495,-0.0011,-0.0067375,-0.039875
0.096,-0.31605002,9.732,-0.037125,-0.0067375,0.163075
0.201,-0.48795003,9.94005,0.028324999,0.015262499,0.1166
-0.17595,-0.13395001,9.65295,-0.033825,-0.01155,0.116325
0.18900001,-0.41595003,9.682051,0.0435875,0.049225,-0.007975
0.21105,-0.35895002,9.84,0.0088,0.0154,0.042625
0.19395001,-0.39900002,9.792001,-0.00825,-0.0163625,0.0301125
0.14895001,-0.37800002,9.660001,4.125E-4,0.001925,-0.06435
0.19695,-0.49305,10.041,0.0012375,-0.004125,0.1420375
0.051000003,-0.38505003,9.835051,-0.031625,0.00165,-0.067925
0.11505,-0.39195,9.883051,0.0020625,0.0385,-0.2552
0.06705,-0.52905005,9.847051,-0.0023375,0.00385,0.089237496
0.087000005,-0.43995002,10.026,-0.0391875,0.0246125,-0.153725
0.21105,-0.60795003,9.942,-0.0537625,-0.0490875,0.0108624995
0.70905006,-1.0360501,9.660001,-0.066825,-0.051425,0.1056
0.66105,-0.88095003,9.700951,-0.1582625,-0.1841125,0.0358875
0.42195,-0.933,9.981001,-0.0716375,-0.10285,0.124575
0.12195001,-0.69105005,9.526051,-0.0298375,-0.0144375,0.1771
-0.68100005,-0.29700002,9.45195,0.045649998,0.1590875,0.0672375
-0.61095005,-0.51405,9.729,0.122375,0.3422375,-0.102025
-0.63795,-0.53805,9.918,0.0642125,0.2385625,-0.0785125
-0.66195005,-0.52395004,10.054951,0.056375,0.165275,-0.1304875
-0.57600003,-0.59295005,9.97095,0.005775,0.062975,0.0165
-0.69000006,-0.51000005,9.80805,-0.0023375,0.02145,0.0207625
-0.59895,-0.47400004,9.847051,0.0193875,0.039049998,0.0367125
-0.44400004,-0.61995006,10.05,0.056925,0.0290125,-0.202125
-0.38895002,-0.507,9.873,-0.00605,-0.0457875,0.0798875
-0.54405004,-0.49005002,9.84,0.002475,-0.066275,0.0631125
-0.50895,-0.45195,9.910951,-0.002475,-0.0411125,0.11275
-0.59895,-0.62205005,9.82995,-0.0251625,-0.0364375,0.179025
-0.70995003,-0.37605003,9.837001,-0.0785125,-0.009625,0.3355
-0.609,-0.56205004,9.946951,0.0182875,0.0125124995,-0.16115
-0.73095006,-0.14805001,9.567,0.0012375,0.0548625,-0.0347875
-0.657,-0.28005,9.79395,0.093775,0.0166375,-0.2558875
-0.59205,-0.45900002,9.97605,0.02915,-0.0048125,0.0606375
-0.44595003,-0.34005,9.86295,0.0053625,-0.0020625,-0.1062875
-0.513,-0.483,9.916051,0.00715,-0.0424875,0.0210375
-0.43905002,-0.40905002,9.72,-0.0457875,-0.022,0.182325
-0.39105,-0.41595003,9.5140505,-0.0171875,0.004125,-0.1032625
-0.252,-0.462,9.883051,0.035475,0.0070125,-0.050875
-0.43905002,-0.45900002,9.79395,-0.053625,-0.055275,0.003575
-0.03705,-0.57900006,9.733951,0.0413875,0.0056375,-0.02365
-0.36,-0.021000002,9.45705,-0.0105875,-0.0908875,-0.0468875
-0.37695003,-0.040050004,9.79905,0.1464375,0.0125124995,-0.406175
-0.216,-0.14295001,9.804001,0.134475,0.0165,-0.3212
-0.075,0.21705002,8.856,0.1029875,0.02805,-0.474375
-0.147,-0.50505,11.173051,0.1469875,-0.0143,-0.4851
-0.24495001,0.88695,9.385051,-0.042075,-0.0664125,-0.0086624995
-0.31005,0.60195005,9.49695,0.3309625,-0.070675,-0.92235
-0.906,1.593,8.299951,0.2358125,-0.0089375,-0.6697625
0.32805002,1.4310001,8.17605,0.5713125,-0.010725,-1.3333375
-0.75495005,-0.93795,9.693001,0.1117875,-0.26221249,-0.1109625
0.56295,-3.07605,12.115951,-0.968,0.0121,2.1036124
1.03695,-2.6569502,11.838,-1.1715,-0.4758875,3.4993749
0.26595002,-1.98405,12.118051,-0.3350875,-0.1648625,1.7521625
-0.14895001,-0.51195,10.30605,0.0468875,0.0644875,0.131175
-0.351,-0.59595,12.133051,0.231825,0.082499996,-0.5237375
0.22095,-1.182,11.26095,0.24805,0.155375,-0.950675
-0.006,-1.4599501,12.23805,0.0490875,0.0363,0.022
-0.11400001,-1.47195,11.962951,-0.146575,-0.01925,0.4409625
-0.23805001,-2.53005,11.01,-0.1403875,-0.0573375,0.54202497
0.34695002,-2.463,10.431001,-0.353925,-0.13585,0.8273375
0.50100005,0.064050004,7.9080005,-0.0653125,0.1266375,0.2987875
-1.03005,1.335,6.1720505,1.02355,-0.04235,-3.2561374
-0.20205002,0.66705,5.8660502,0.4230875,-0.062425,-2.01575
0.9889501,-0.61200005,10.56,0.0517,0.2244,-1.498475
-0.50595003,-0.43500003,10.075951,0.038225,0.11165,-1.100275
0.37905002,-1.74495,10.246051,-0.2921875,0.0694375,0.0218625
-1.00605,-0.28695002,9.054001,-0.3141875,-0.13213749,0.824175
0.62700003,-0.43995002,10.275001,0.14575,0.1863125,0.1243
-0.063,-0.45000002,10.384951,0.1263625,-0.3779875,0.555775
0.28005,-0.96900004,10.062,0.0433125,0.008525,0.1687125
-0.25995,-0.26505002,9.31095,-0.0686125,0.0543125,0.5632
0.015000001,-0.81405,9.813001,0.078925,0.1535875,-0.274175
0.060000002,-0.65295005,9.624001,-0.0704,-0.014025,0.249975
0.096,-0.65595,9.724951,-0.0133375,-0.0573375,0.192775
-0.058050003,-0.84000003,10.033051,-0.018424999,-0.0284625,0.2332
-0.17595,-0.90705,9.65505,-0.072875,0.031075,0.370975
-0.303,-0.64605004,9.5119505,-0.066,0.0867625,0.0122375
-0.10605001,-0.744,9.90705,-0.004675,0.040975,-0.0545875
-0.07305,-0.78000003,9.468,-0.0424875,-0.044275,-0.0072875
0.10605001,-0.83295006,9.63105,-0.040425,-0.101475,0.3053875
0.108,-0.88305,10.11495,-0.0144375,-0.1205875,0.1527625
-0.01995,-0.67695004,10.207951,0.0207625,-0.0548625,0.0504625
0.252,-0.49305,9.82005,0.079475,0.039875,0.069299996
0.261,-0.36105,9.448951,0.1167375,-0.0787875,0.0858
0.46500003,-0.38505003,9.83205,0.048675,-0.1463,0.0441375
0.36195,-0.25605002,9.17595,0.025575,-0.0548625,0.25025
0.24705002,-0.31800002,9.35805,0.0391875,0.032725,-0.2437875
0.132,-0.31605002,9.250951,0.0539,0.032725,-0.0867625
-0.50100005,-0.186,9.106951,5.5E-4,0.0782375,0.1626625
-0.38595003,-0.70605004,9.80805,0.01925,0.2695,-0.1958
-0.36195,-0.78495,9.957001,-0.1056,0.1808125,0.0165
-0.36495003,-0.55995005,9.424951,-0.089237496,0.1013375,0.06435
-0.384,-0.74895006,9.969001,-0.0265375,0.0364375,-0.087037496
-0.25695002,-0.92805004,9.946951,-0.09185,-0.0180125,0.278575
-0.24795002,-0.8880001,9.934951,-0.0694375,-0.0158125,0.21779999
-0.41805002,-0.84900004,9.81105,-0.0391875,0.0114124995,0.1332375
-0.29805002,-0.77505004,9.847051,-0.0127875,0.02585,-0.154275
-0.22395001,-0.86100006,9.86295,0.0210375,-0.00715,-0.2036375
-0.003,-0.77295005,9.34395,-0.0149875,-0.0543125,0.018424999
0.14595,-0.79200006,9.588,0.0246125,-0.04895,-0.291775
0.076950006,-0.98805004,10.419001,0.0215875,-0.11,-0.0317625
0.19695,-0.68700004,9.66495,-0.042625,-0.114675,0.14685
0.35700002,-0.924,9.828,0.0325875,-0.038225,-0.13475
0.15405001,-0.80205005,9.804001,-0.0158125,-0.052525,-0.0086624995
-0.034950003,-0.80595005,9.93,-0.012375,-0.025575,0.097625
0.034050003,-0.84705,9.871051,0.0089375,0.04675,0.1364
0.024,-0.79200006,9.780001,-0.0204875,0.0303875,0.0468875
0.19395001,-1.01505,10.09305,-9.625E-4,0.014575,-0.0187
0.11805001,-0.85395,9.682051,-0.0361625,-0.0312125,-0.032175
0.19395001,-0.957,9.8560505,-0.020624999,-0.031625,0.0801625
0.45495003,-0.77505004,9.0400505,0.0055,-0.009075,-0.093225
0.46695003,-0.96000004,9.72,0.0048125,-0.1342,-0.0774125
0.71400005,-1.0390501,9.79395,-0.0375375,-0.10615,0.037125
0.50100005,-1.0189501,9.768001,-0.0301125,-0.0924,-0.0122375
-0.09,-0.72705,9.38895,-0.0292875,0.0237875,-0.0512875
-0.78405005,-0.73200005,10.34895,0.0155375,0.1496,-0.234575
-0.46500003,-0.86895007,9.691051,0.058025,0.30965,-0.01265
-0.58005005,-0.92805004,9.688951,0.009075,0.2508,0.2013
-0.74505,-0.91395,9.954,-0.018424999,0.1458875,0.1634875
-0.56805,-0.897,9.901951,0.0119624995,0.1535875,0.1329625
-0.762,-0.74700004,9.9210005,0.0367125,0.0501875,-0.20955
-0.28095,-1.02405,9.61695,0.047849998,0.01815,-0.14465
-0.324,-1.0339501,9.97095,-0.0573375,-0.0847,0.274725
-0.50895,-0.80205005,9.777,-0.0521125,-0.1106875,0.076175
-0.48495004,-0.88095003,9.79605,0.0048125,-0.0334125,0.0383625
-0.47505003,-0.78000003,9.693001,-0.0144375,-0.0884125,0.3301375
-0.15405001,-1.0170001,9.84405,-0.0050875,-0.054725,0.11055
-0.31500003,-0.76995003,9.672001,0.013475,-0.0158125,0.0268125
-0.13695,-0.99105006,9.552,0.028875,-0.003575,0.1551
-0.16095,-0.92100006,9.700951,-0.0391875,-0.0298375,-0.0726
-0.70695,-0.73005,10.02105,0.0521125,0.0554125,-0.3432
-1.1910001,-0.66,9.96195,0.0765875,0.175175,-0.231
-0.96795005,-0.65805006,9.53295,0.0765875,0.2374625,-0.068475
-1.09695,-0.78000003,10.194,0.0430375,0.1486375,0.12375
-0.83205,-0.85200006,9.978001,0.0210375,0.1310375,-0.0815375
-1.0159501,-0.71295005,9.910951,-0.01705,0.005225,0.087725
-0.89895004,-0.73005,9.612,0.0045375,0.0342375,-0.1786125
-0.87195003,-0.82305,9.904051,-0.06765,-0.05115,0.264
-0.74805003,-0.86895007,9.8230505,-0.029424999,-0.033275,0.0620125
-0.92505,-0.76095,9.768001,-0.0391875,-0.0710875,0.01705
-0.61095005,-0.91395,9.753,-0.0275,-0.0364375,0.1945625
-0.726,-0.82095003,9.97605,-0.0253,-0.08415,-0.02695
-0.83205,-0.74700004,9.74895,0.0232375,-0.0070125,-0.0457875
-0.73605,-0.78000003,9.68595,0.0341,0.038775,-0.09515
-0.62295,-0.92595005,10.00695,-0.0119624995,-0.010725,0.0616
-0.72900003,-0.76305,9.68595,-0.023375,-0.0372625,0.02805
-0.76500005,-0.80895007,9.8539505,0.0177375,0.0028875,-0.18645
-0.68295,-0.86895007,9.74895,-0.0100375,0.0094875,0.1095875
-0.73395,-0.82605004,9.736951,-0.014025,-0.006875,0.0776875
-0.64005005,-0.82995003,9.62205,0.0292875,0.0119624995,-0.366025
-0.75705004,-0.88500005,9.82995,-0.0017875,-0.023375,0.0416625
-0.83895004,-0.75405,9.693001,0.006875,0.02475,0.0561
-0.75000006,-0.648,9.58605,0.0138875,0.0187,-0.032175
-0.56100005,-0.59595,9.238951,0.05995,-0.002475,-0.1397
-0.28395,0.078,9.504001,0.0774125,-0.0529375,-0.0977625
-0.08205,-0.162,10.017,0.37675,-0.0422125,-1.1896499
-0.49695003,0.86100006,9.15705,0.1830125,-0.18755,-0.636625
-0.27600002,0.591,9.672001,0.3818375,-0.034375,-1.1061875
0.21300001,0.66495,9.02595,0.2806375,-0.100237496,-0.768625
0.651,1.19895,8.973001,0.5143875,-0.100237496,-0.7539125
0.97005004,1.131,7.1350503,0.270325,-0.436975,-0.2369125
-2.43105,-2.5129502,9.48495,-0.171875,-0.230175,0.718575
0.10605001,-4.0620003,11.44305,-1.7623374,0.5889125,4.420625
0.052950002,-2.259,10.464001,-1.3322375,-0.615175,4.1870127
0.87195003,-2.8459501,11.87895,-0.1238875,-0.26565,1.3253624
0.60405004,-1.31595,11.283001,0.08305,-0.1287,0.1766875
0.28800002,-1.77795,12.58695,0.3378375,0.0144375,-0.8872875
-0.22395001,-2.7840002,13.972951,0.030524999,-0.0710875,-0.460625
0.49095002,-2.98005,11.58705,-0.01155,0.17545,0.7469
0.35700002,-3.0610502,11.887951,-0.1590875,-0.02035,0.62645
0.201,0.016050002,6.43095,-0.036025,0.0317625,0.1038125
0.84105,2.0080502,7.2300005,0.4789125,0.147675,-0.7316375
1.4749501,-0.36105,9.591001,1.08625,-0.1527625,-4.1941624
0.108,0.79395,8.02005,-0.0592625,-0.375375,-1.0748374
1.7410501,-0.17205001,8.817,0.13145,0.0873125,-1.2821875
1.1850001,-0.14595,9.49995,-0.19373749,-0.529375,0.373175
0.40695003,-1.1029501,11.047951,-0.1381875,-0.0144375,0.001925
-0.22395001,-0.72,10.012051,-0.22,0.4338125,0.455675
-0.67605,-0.50505,9.42105,-0.128975,0.3949,0.375375
-0.93000007,-0.24105,9.238951,-0.09735,0.4103,0.264
-0.49695003,-0.45195,9.62895,0.058575,0.290125,-0.0840125
-0.49395,-0.51705,10.062,0.0625625,0.1623875,-0.07645
-0.36495003,-0.47400004,10.27305,0.0430375,0.1381875,0.0268125
-0.669,-0.46395,10.048051,0.0092124995,0.0198,0.1522125
-0.41505003,-0.21795002,9.303,0.013612499,-0.0066,0.1848
-0.39405003,-0.22695,10.074,0.0796125,-0.0449625,0.0977625
-0.22800002,-0.012,9.4470005,0.0521125,-0.0578875,0.154275
-0.043950003,-0.342,9.63405,0.0925375,-0.0350625,-0.19525
-0.027,-0.37995002,9.92595,0.0188375,-0.0886875,-0.1425875
0.010050001,-0.43305,9.85095,-0.0449625,-0.064075,0.450725
-0.26205,-0.22200002,9.772051,-0.025575,-0.068475,0.3460875
-0.28395,-0.06705,9.898951,0.019524999,-0.0075625,0.0408375
-0.28605002,-0.14805001,9.688951,0.056925,0.02255,-0.192775
-0.21900001,-0.14805001,9.705001,0.0352,0.0213125,-0.214225
-0.16095,-0.112050004,9.901951,0.018424999,0.004675,-0.0517
0.031050002,-0.261,9.739051,0.01815,0.01155,0.17325
0.010050001,-0.36405003,10.1320505,-9.625E-4,-0.0273625,0.028324999
-0.18495001,-0.32505003,9.916051,-0.0155375,-0.0097624995,-0.180675
-0.28605002,-0.36600003,9.733951,-0.0826375,-0.0243375,0.2061125
-0.279,-0.36105,9.765,-0.0435875,0.0422125,0.064625
-0.26700002,-0.31605002,9.777,-0.0276375,0.025575,-0.2332
-0.44400004,-0.33705002,9.873,0.0143,0.0331375,-0.034375
-0.432,-0.23895001,9.712951,-0.0039875,0.0814,0.217525
-0.29505002,-0.32805002,9.80805,0.014712499,0.0312125,-0.0628375
-0.30495003,-0.37800002,9.67695,-0.0199375,-0.0279125,0.240625
-0.279,-0.36405003,9.741,-0.0504625,-0.0495,0.11825
-0.279,-0.462,9.98295,-0.034375,-0.050875,0.213125
-0.087000005,-0.522,9.969001,-0.034649998,-0.013475,0.130075
-0.40095,-0.43800002,9.80805,-0.025575,-0.023924999,0.13475
-0.48000002,-0.112050004,9.66495,0.0427625,0.0955625,0.0455125
-0.40605003,0.061950002,9.4470005,0.1208625,0.0694375,-0.23155
-0.087000005,0.31005,10.038,0.176,0.0182875,-0.6006
-0.08505,0.14805001,10.404,0.2327875,-0.073425,-0.671275
-0.25695002,0.91395,9.708,0.1925,-0.0193875,-0.75116247
-0.41505003,1.5480001,9.13305,0.329725,-0.0331375,-0.96236247
-0.669,1.8040501,8.892,0.323125,-0.0587125,-0.7007
-0.70005006,2.151,6.1150503,0.488125,0.072325,-0.8251375
0.58005005,-0.924,8.710051,0.4412375,-0.14685,-0.71225
0.441,-3.9970503,12.906,-1.0313874,-0.1348875,2.710675
0.69900006,-2.6490002,10.861951,-1.4075875,-0.2080375,3.5256374
0.44295,-1.197,10.510051,-0.383625,0.0114124995,1.4245
0.33495003,-1.0339501,12.06795,0.084425,-0.0999625,0.452375
0.52005005,-0.124050006,11.302051,0.1815,-0.18933749,-0.0741125
0.216,0.25095,9.61905,0.2685375,-0.0644875,-0.975425
0.45495003,-0.45405003,10.762951,0.285175,0.032449998,-0.4637875
0.558,-0.64095,12.51105,0.1093125,0.089375,-0.45485
0.87900007,-2.1760502,14.434951,-0.0265375,0.013475,0.506275
0.18705001,-1.7370001,12.292951,-0.314875,-0.086075,0.8207375
0.66105,-2.05095,11.94795,-0.19373749,0.00715,0.90475
-0.67395,-0.201,5.67495,-0.2212375,-0.0312125,0.4318875
0.16800001,3.9300003,5.1529503,0.4712125,0.1986875,-0.876975
0.060000002,0.65505004,7.2949505,1.51195,-0.142175,-4.595525
-1.6140001,0.56700003,7.8240004,0.14245,0.0099,-0.93885
-1.9090501,1.95,8.028001,-0.29479998,0.3086875,0.2809125
-0.17805001,-0.52605003,10.30095,0.1214125,0.3246375,-0.6065125
-0.58500004,0.55005,9.504001,-0.5262125,-0.1161875,1.107425
0.076950006,0.29595003,10.363951,0.0408375,-0.0490875,-0.235125
0.048,-0.12900001,9.696,-0.0185625,-0.1793,-0.1632125
0.13395001,0.26505002,9.777,-0.30827498,-0.1687125,0.56595
-0.022950001,-0.22905001,10.174951,-0.01485,-0.0039875,-0.520025
0.24000001,-0.62700003,10.431001,-0.150425,0.0319,-0.0048125
0.0049500004,0.03795,9.67395,-0.116325,0.0328625,0.0782375
0.61800003,-1.8070501,11.545951,0.0284625,-0.0298375,0.0576125
-0.69495004,0.12900001,8.595,-0.3408625,-0.1452,0.98945
0.22995001,-0.55695003,10.048051,0.0710875,0.2085875,0.0699875
-0.25500003,-0.31995,10.251,-0.03575,-0.0543125,0.2855875
-0.18300001,-0.201,9.64095,0.00825,0.028875,-0.0853875
0.24195,-0.58395004,10.09095,0.0385,0.0407,0.127325
0.058050003,-0.54105,10.026,-0.0573375,-0.1120625,0.1307625
0.096,-0.53295004,9.898951,-0.063525,-0.0496375,-0.0100375
0.08895,-0.48795003,9.86295,-0.052249998,-0.0345125,0.1304875
0.14205001,-0.51000005,10.014001,0.0122375,0.022275,-0.0902
-0.00795,-0.32805002,9.724951,-0.004125,-0.0284625,0.2072125
0.010050001,-0.36600003,9.954,0.0314875,-4.125E-4,0.1485
-0.07305,-0.27705002,9.59805,0.02365,0.018424999,-0.2712875
-0.08205,-0.42105,9.8869505,0.0108624995,0.034925,-0.12485
-0.15900001,-0.42600003,9.871051,0.0105875,0.038775,-0.0979
-0.16905001,-0.29700002,9.77505,0.0176,0.037125,0.1348875
-0.19005,-0.38295,9.883051,0.0103124995,0.02145,0.2594625
-0.216,-0.29205,9.61695,-0.0015125,0.026124999,0.0686125
-0.039,-0.48795003,9.957001,0.0265375,0.0526625,-0.1995125
-0.19005,-0.36600003,9.612,-0.0176,4.125E-4,-0.059675
-0.09900001,-0.43305,9.85095,-0.0286,0.005775,0.0834625
-0.17295001,-0.47595003,9.64605,-0.0320375,0.0017875,-0.0702625
-0.135,-0.71505004,10.05,-0.0424875,0.02035,0.107525
-0.135,-0.79695004,9.78705,-0.12265,-0.0397375,0.0451
0.09105001,-0.897,9.85095,-0.099275,-0.020075,0.1172875
-0.123,-0.64095,9.909,-0.053075,-0.0202125,-0.0303875
0.096,-0.67905,9.745951,0.023924999,0.0078375,0.057475
-0.054,-0.462,9.66195,0.01925,-0.0561,5.5E-4
-0.09195001,-0.69105005,9.94005,0.0523875,0.015675,-0.1744875
-0.039,-0.67905,9.97095,0.0075625,-0.003575,0.1018875
-0.19995001,-0.591,9.913951,0.0089375,0.0221375,0.0408375
-0.24795002,-0.57900006,9.583051,0.0099,0.0352,-0.1727
-0.20505,-0.60495,9.8539505,0.0165,0.0286,-0.034375
-0.28395,-0.411,9.733951,-0.0037125,0.0108624995,-0.0281875
0.003,-0.711,10.00695,0.0523875,0.003575,0.067925
-0.063,-0.55305004,9.75105,-0.0248875,-0.039325,-0.084975
-0.31500003,-0.45000002,9.67905,2.75E-4,-0.0121,-0.14355
-0.28605002,-0.55995005,9.92805,0.014712499,0.029424999,-0.064075
-0.26205,-0.53595,9.80805,-0.0039875,0.022275,-0.18425
-0.14505,-0.57900006,9.4800005,-0.0044,0.021724999,-0.040425
-0.32700002,-0.49800003,9.877951,-0.032175,-0.02255,0.307725
-0.15900001,-0.36405003,9.564,-0.0248875,-0.0430375,0.087725
0.120000005,-0.71295005,9.96405,0.0215875,-0.036025,-0.075075
0.22995001,-0.80895007,9.813001,-0.033275,-0.0749375,0.109037496
-0.15900001,-0.49005002,9.753,-0.0474375,-0.088825,0.1819125
0.16095,-0.73695004,9.993,0.028324999,0.038225,-0.0050875
-0.018000001,-0.51705,9.816001,0.009075,-0.0105875,-0.0947375
-0.05595,-0.40695003,9.736951,0.013062499,0.00825,-0.0196625
0.027,-0.55695003,9.910951,0.0482625,0.0240625,-0.0023375
-0.018000001,-0.46605003,9.957001,0.0295625,0.0339625,-0.1439625
0.132,-0.522,9.772051,0.0171875,0.0246125,-0.4048
0.034050003,-0.56505,9.885,0.00385,-0.0378125,0.1958
0.064950004,-0.32805002,9.696,0.0100375,-0.0132,0.058575
-0.063,-0.24105,9.79905,0.0911625,0.018424999,-0.450725
-0.043950003,0.39900002,9.516001,0.16733749,0.0369875,-0.739475
0.051000003,0.37305,9.69795,0.2363625,-0.0336875,-0.6340125
-0.94395006,1.2220501,8.88,0.128425,-0.0309375,-0.6098125
0.21300001,0.86295,9.17595,0.253825,0.0704,-1.0830874
0.003,1.21305,8.93505,0.22247499,-0.1551,-0.452925
0.56505,2.1679502,7.3380003,0.4329875,-0.1172875,-0.8889375
0.11805001,0.32205,7.6470003,0.44494998,-0.278575,-0.6062375
-0.564,-3.2620502,12.23295,-0.5885,0.2712875,1.4053875
0.192,-2.6950502,11.628,-1.9391625,-0.1324125,5.732925
0.30900002,-1.67295,10.58205,-0.6271375,-0.3526875,2.94415
0.9289501,-2.11605,11.982,-0.015262499,-0.180125,0.83916247
1.67805,-1.70895,13.89,0.058025,-0.1480875,0.080025
1.233,-3.42705,17.692951,0.2099625,-0.0947375,-0.8273375
0.34695002,-3.219,13.012951,-0.1898875,0.038225,0.490325
0.67800003,-3.7360501,11.78295,-0.31707498,-0.15015,1.381875
0.027,-1.7160001,8.805,-0.28861248,-0.15675,1.0324875
0.771,0.40095,5.907,0.1346125,0.08635,0.115637496
-0.95595,2.3119502,3.4630501,0.77605,0.215325,-2.89025
1.2,-0.58605003,8.145,0.6534,-0.1915375,-3.2676876
0.58695,0.010950001,11.647051,-0.11385,-0.3466375,-1.023
0.89805007,-0.68700004,10.198951,0.0413875,0.098725,-0.8768375
0.04095,-0.14595,9.526051,-0.1626625,0.00825,0.16445
0.522,-0.67005,9.703051,-0.08415,0.2633125,-0.0947375
0.35700002,-1.2079501,10.6369505,-0.2013,0.1062875,0.7742625
-1.12605,-0.78495,10.098001,-0.19635,0.17875,0.3458125
-0.126,-1.4100001,10.1650505,-0.018424999,0.47905,-0.0193875
0.36705002,-1.25205,9.61695,-0.15345,0.0688875,0.4049375
0.055050004,-1.00995,10.042951,-0.052525,-0.2349875,0.227975
-0.17595,-0.71295005,9.01395,-0.0185625,-0.1617,0.3240875
-0.19500001,-0.99300003,9.784051,0.017324999,-0.0064625,0.3944875
-0.14205001,-0.9670501,9.933001,0.036849998,0.061049998,0.040425
0.055050004,-1.01505,9.564,0.027775,0.0325875,0.05555
0.17505,-0.88995004,9.576,-0.018424999,-0.0363,-0.1607375
0.264,-0.90900004,9.67695,0.0176,-0.104775,-0.028324999
0.32805002,-0.75405,9.745951,0.008525,-0.095425,0.0526625
0.18,-0.78000003,9.753,0.0625625,-0.05775,-0.19195
0.12705001,-1.1179501,9.81105,0.0105875,-0.0427625,0.0873125
0.16305001,-1.11,9.79905,-0.1122,5.5E-4,0.310475
0.21795002,-0.97905004,9.579,-0.063525,0.002475,0.23539999
0.21300001,-0.94305,9.804001,0.018424999,-0.0653125,0.292325
0.18705001,-0.9979501,10.029,0.04455,0.0039875,-0.0433125
0.13695,-0.88500005,9.816001,0.0339625,0.041249998,-0.0710875
0.28305,-0.88095003,9.81795,0.015125,0.0484,-0.43945
0.43800002,-0.68205005,9.98295,0.0611875,-0.0111375,-0.2673
0.30195,-0.555,9.571051,0.095425,-0.01815,-0.3425125
0.120000005,-0.19395001,9.531,0.0933625,-0.01485,-0.0779625
0.027,-0.097950004,10.099951,0.144375,0.104775,-0.4554
0.039,0.56205004,9.691051,0.2242625,0.122099996,-0.4769875
0.37605003,0.744,9.37005,0.3587375,0.007425,-0.7613375
0.11805001,1.4809501,8.69295,0.3559875,-0.0834625,-0.82115
0.08400001,1.08105,9.16395,0.4753375,-0.0372625,-0.979275
-0.43695003,2.5560002,8.116051,0.26785,-0.041249998,-0.27885
-0.56595004,-1.43805,10.960051,0.3700125,0.1049125,-0.780175
2.1349502,-3.0900002,12.678,-1.4059374,0.197175,3.893175
0.98700005,-2.592,11.766001,-1.194875,-0.627825,3.799675
-0.31905,-1.146,10.29195,-0.474925,-0.1632125,1.6209875
-0.10395,-0.77295005,11.842951,0.09625,0.25025,0.4675
0.34995002,-0.68205005,12.295051,0.1901625,0.1384625,-0.648175
0.20400001,-0.60300004,11.508,0.2344375,0.074525,-0.7651875
0.14205001,-0.48105,11.641951,0.1035375,0.023924999,-0.2242625
-0.09705,-1.44105,11.932051,-0.0655875,-0.1123375,-0.047025
-0.45795003,-1.8930001,10.94505,-0.175175,-0.1419,0.43285
1.18005,-2.2380002,9.700951,-0.296725,-0.097625,0.8413625
-0.15405001,1.1029501,6.096,-0.1661,-0.245575,0.1271875
0.02205,1.6870501,4.281,0.9725375,0.2699125,-2.3571625
-1.9300501,1.572,6.4570503,0.7561125,-0.107525,-2.7344625
-0.79605,0.75795,9.44205,0.24213749,0.3680875,-1.7631625
-0.9990001,0.49005002,8.425051,-0.077825,0.2721125,-0.6285125
-0.91995007,0.33900002,9.33405,-0.3260125,0.1524875,0.2919125
-0.29295,0.49995002,9.637951,-0.127325,0.0669625,0.1104125
-0.37695003,0.094950005,10.77105,0.0545875,-0.127875,0.399575
-0.26205,0.36600003,9.1050005,-0.062425,-0.0983125,0.50985
0.07005,0.30795002,8.985001,-0.038225,-0.1252625,0.52965
-0.17295001,0.12105001,9.708,-0.009625,-0.0490875,0.2690875
0.04605,0.081,9.64995,-0.0394625,0.032449998,-0.054175
-0.078,0.040050004,10.266001,-0.0358875,-0.074525,0.1343375
0.10095,-0.025950002,9.66195,-0.0746625,-0.0468875,0.2594625
0.07005,-0.13605,9.837001,-0.06325,-0.0710875,0.041525
0.15795001,-0.40905002,10.239,-0.0617375,-0.071225,0.1343375
0.18195,-0.21495001,10.14795,-0.1117875,-0.0501875,0.345125
0.16095,-0.33495003,9.81105,-0.0400125,-0.019524999,-0.2041875
0.06705,0.00405,9.241051,-0.104775,-0.037675,0.447425
0.33105,-0.36105,9.6,0.011825,-0.012375,0.0902
0.132,-0.282,9.861,-0.028324999,-0.0457875,0.3037375
0.19905001,-0.30105,9.933001,-0.0097624995,0.0273625,0.114125
0.24705002,-0.24900001,9.913951,0.003025,0.0185625,-0.0462
0.20400001,-0.10305001,9.93795,0.0089375,-0.02365,-0.1841125
0.015000001,-0.049950004,9.871051,0.0539,0.0331375,-0.3289
0.25395,-0.016050002,9.30105,0.0323125,0.0218625,-0.045925
0.112950005,-0.021000002,9.96195,0.0581625,0.015125,-0.033825
0.28800002,-0.12705001,9.993,0.02805,-0.0045375,-0.0895125
-0.00795,0.09705,9.591001,0.00715,-0.0254375,0.2226125
0.14205001,-0.10005,9.969001,0.0320375,0.029424999,0.0103124995
-0.0010500001,0.030000001,9.871051,0.0026125,0.01375,-0.050049998
0.14205001,-0.109950006,9.83205,0.0111375,0.039325,0.2277
-0.03705,0.069000006,9.727051,0.001375,0.0048125,-0.07205
0.064950004,-0.031050002,9.835051,0.0240625,0.021724999,-0.004675
0.052950002,0.08805001,9.7560005,0.019524999,0.002475,0.0385
0.156,-0.036000002,9.849001,0.02695,0.00165,-0.1159125
0.11805001,-0.028050002,9.97605,-0.0033,-0.0116875,-0.260425
0.048,0.042000003,9.82005,0.023375,0.035475,0.18205
-0.006,0.028050002,9.83205,0.0086624995,0.027775,0.1793
-0.054,0.006,9.873,-0.017875,0.0092124995,0.2413125
0.051000003,0.0019500001,9.801001,-0.021724999,0.022824999,-0.18727499
0.04095,-0.049950004,9.801001,-0.0229625,-0.0160875,-0.0847
0.031050002,-0.10695001,9.84,-0.014162499,-0.0114124995,-0.1219625
0.0049500004,-0.016050002,9.757951,-0.020624999,-0.02805,-0.01595
-0.078,0.07395,9.583051,-0.0031625,-0.0114124995,-0.014712499
0.08400001,0.010950001,9.825001,0.0121,0.016775,-0.224675
-0.08505,0.29895002,9.580951,0.034375,0.00605,-0.1846625
0.14400001,0.18105,9.607051,0.060775,0.015262499,-0.318175
-0.03195,0.44205,9.63405,0.0556875,-0.07425,-0.335225
0.27600002,0.27705002,10.177051,0.117699996,-0.008525,-0.529375
-0.00795,0.76005006,9.255,0.0705375,-0.064075,-0.646525
0.23700002,1.143,8.962951,0.14685,-0.07205,-0.5325375
0.097950004,1.3039501,8.88,0.1827375,-0.1145375,-0.6802125
0.59400004,1.1580001,9.95895,0.3246375,-0.122099996,-0.829125
1.03005,2.091,6.3109503,0.308,-0.1945625,-0.37565
0.76905006,-0.69600004,9.28905,0.43353748,-0.3125375,-0.5132875
-0.43905002,-3.6210003,11.002951,-1.0792375,0.4987125,2.786025
0.9670501,-2.5110002,11.299951,-1.5274875,0.070675,5.4901
0.82395005,-1.74495,12.315001,-0.527175,-0.4115375,2.5166626
0.72300005,-0.32295,9.94995,0.118525,-0.2101,0.121275
1.05795,-0.55695003,11.701951,0.3158375,-0.013062499,-0.0760375
0.57495004,-1.5079501,14.65305,0.2585,0.011825,-0.5927625
-0.66195005,-2.1730502,12.585001,-0.2542375,0.0375375,0.51507497
1.1370001,-1.6609501,11.833051,-0.21133749,0.169125,0.5742
-0.90300006,-1.3620001,9.543,-0.095425,-0.06215,0.379225
-1.2,2.0029502,2.697,-0.049775,0.141075,0.146575
-0.45795003,3.0970502,4.602,0.88605,0.4549875,-2.018225
-0.25005,0.61905,10.648951,1.3561625,-0.2982375,-5.2031374
0.04095,0.76005006,8.746051,0.131175,-0.1771,-2.046275
1.5589501,-0.50205004,10.60305,-0.104499996,-0.1601875,-0.76505
-0.22800002,0.69105005,9.00195,-0.2561625,-0.3309625,0.5476625
0.096,-0.64605004,10.218,-0.075075,0.181775,0.04235
0.08895,-0.522,9.351001,-0.2629,0.1947,0.603625
-0.34800002,-0.31995,9.880051,-0.22055,0.2380125,0.690525
-0.33900002,0.057000004,10.206,0.0622875,0.2550625,-0.2118875
-0.054,-0.45000002,10.31295,0.106425,0.0408375,-0.0334125
-0.19500001,0.04695,9.366,-0.02805,-0.0270875,0.41387498
-0.231,0.076050006,9.934951,0.0429,0.004675,0.3510375
-0.15195,0.049950004,9.77505,0.0240625,-0.051975,0.2244
-0.066,0.066,9.712951,0.0372625,-0.0884125,0.1258125
-0.18795002,0.034950003,9.526051,0.0438625,0.0022,0.2982375
-0.3,0.0,9.966001,0.01705,0.0336875,0.4167625
-0.24000001,-0.043050002,10.026,-0.0232375,-0.0075625,0.1852125
-0.018000001,-0.21300001,9.753,-0.0221375,-0.0215875,-0.0341
-0.03195,-0.21000001,10.086,-0.0581625,-0.0323125,0.1315875
-0.48705003,0.22395001,9.591001,-0.005775,0.010725,-0.058025
-0.35805002,-0.01905,9.84,0.0691625,0.0895125,-0.2264625
-0.42495003,0.10005,9.745951,0.0210375,0.0567875,-0.0704
-0.20505,-0.03795,9.92805,0.009075,0.0369875,0.133925
-0.17595,-0.08295,9.78705,-0.034925,-0.023924999,0.0154
-0.29295,0.016050002,10.01895,5.5E-4,-0.0254375,-0.0441375
-0.20895001,0.11400001,9.583051,0.0078375,-0.02475,0.0243375
-0.13995,-0.141,9.8539505,0.0114124995,-0.0270875,0.0064625
-0.01995,-0.13095,10.10295,-0.0207625,-0.0273625,0.0314875
-0.15405001,-0.076050006,10.02105,-0.00605,-0.026124999,0.022275
-0.13695,-0.06705,9.70995,0.0023375,0.0064625,-0.1384625
-0.09195001,-0.009000001,9.700951,-0.0015125,0.0059125,-0.1010625
0.064950004,-0.040050004,9.859051,0.01045,-0.0323125,0.052249998
0.19905001,0.049950004,9.739051,-0.0064625,-0.088825,0.15565
0.28995,0.13800001,9.78705,0.039049998,-0.0859375,0.0350625
0.076950006,0.32205,9.81795,0.0847,-0.087175,-0.2454375
0.20895001,0.11400001,9.79605,0.0911625,8.25E-4,-0.3207875
-0.432,0.63795,9.19995,0.04455,0.014712499,-0.1645875
-0.08505,1.218,9.04695,0.143,0.1428625,-0.577775
0.47700003,1.2940501,9.31995,0.3784,-0.0507375,-0.93665
0.55305004,1.57395,9.47805,0.3047,-0.2344375,-0.645975
-0.14895001,2.70705,8.254951,0.2877875,-0.2520375,-0.6303
0.19395001,2.4550502,8.2570505,0.5401,-0.1535875,-1.3017125
-1.047,1.419,8.061001,0.3898125,-0.112475,-0.5457375
0.034050003,-1.3230001,7.6330504,-0.70345,0.678425,1.0652125
0.28995,-1.43595,8.997001,-2.0175376,-0.0515625,6.3003874
-0.042000003,-1.9240501,10.464001,-0.846175,-0.2360875,2.930125
-0.039,-1.1850001,11.082001,-0.2365,-0.0405625,1.2604625
-0.87495005,0.15,10.12395,0.1230625,0.165825,-0.0529375
0.38595003,-0.12900001,10.33695,0.2259125,0.158675,-0.8624
0.14595,-1.9429501,13.747951,0.087725,-0.0314875,-0.45787498
-0.10605001,-1.44105,13.936951,-0.2079,-0.064625,0.1450625
0.55605,-2.07495,10.596001,-0.099275,0.0226875,0.2915
2.9539502,-4.617,12.53205,-0.3113,-0.158675,0.568425
-0.24000001,1.266,6.144,-0.383625,-0.2322375,0.3861
-0.01995,3.93405,4.4040003,0.7880125,0.3125375,-2.1176374
0.42195,0.753,9.492001,0.4753375,-0.1331,-6.4293623
0.29205,-0.555,10.054951,-0.104225,-0.271425,-2.1696124
-0.97005004,-0.58395004,7.6900506,-0.74195,-0.0364375,0.3102
0.252,-0.864,7.221,-0.8553875,-0.0743875,1.67805
1.29795,-0.56700003,9.50205,-0.3647875,-0.471075,1.1233749
1.6519501,-0.40395,9.427951,0.0471625,-0.3876125,0.1863125
0.71595,-1.33095,11.06505,0.0573375,-0.1232,-0.0413875
0.75705004,-0.79395,9.63105,-0.127875,0.221375,0.2151875
0.27105,-0.675,9.102,-0.00935,0.136675,0.050049998
0.192,-0.98805004,9.96195,-0.047849998,0.1364,0.30827498
0.31605002,-0.82605004,10.2300005,0.001925,0.15345,0.41415
0.16305001,-0.59295005,9.816001,0.0812625,0.139975,0.0924
-0.19995001,-0.51900005,9.98295,0.1368125,0.13255,-0.101475
0.0049500004,-0.46605003,9.373051,0.0418,0.1186625,0.34485
0.20400001,-0.29205,9.76095,0.0507375,-0.0207625,0.2171125
0.13005,-0.294,9.387,0.1155,-0.0587125,0.102025
0.12195001,-0.615,9.84405,-0.0402875,5.5E-4,0.24419999
-0.015000001,-0.38295,9.79395,-6.875E-4,0.02255,0.2299
-0.21195,-0.47595003,9.8230505,0.0463375,0.0303875,0.008525
-0.01305,-0.34695002,9.741,0.0253,0.0721875,0.062975
0.10095,-0.54300004,10.12905,0.065175,0.0314875,-0.216425
-0.04695,-0.39000002,9.81105,-0.044275,-0.045925,0.3001625
0.11505,-0.57705003,10.053,0.0143,0.022275,0.0372625
0.064950004,-0.51000005,9.922951,-0.0138875,-0.0045375,0.03355
0.043050002,-0.39195,9.93795,-0.0064625,0.001925,-0.13585
0.10305001,-0.47805002,9.8560505,0.0171875,0.01705,-0.1439625
0.10305001,-0.41895002,9.81105,0.018424999,-0.0108624995,-0.0774125
0.051000003,-0.39000002,9.877951,0.002475,-0.010175,0.1167375
-0.022950001,-0.31605002,9.712951,0.015675,-6.875E-4,0.039325
0.024,-0.35595003,9.780001,0.0246125,0.0199375,-0.0946
0.13395001,-0.39195,9.780001,-0.00495,0.00275,-0.02805
0.060000002,-0.46905002,9.64305,-0.0099,-0.02695,0.06435
0.051000003,-0.411,9.684,8.25E-4,0.0067375,-0.1241625
-0.01305,-0.40695003,9.768001,0.0122375,0.0281875,-0.1513875
0.096,-0.34695002,9.777,0.0166375,0.0331375,-0.1571625
0.08205,-0.40905002,9.85095,0.0372625,0.0089375,-0.0837375
0.015000001,-0.040050004,9.90705,-0.028875,-0.034925,-0.18259999
-0.0010500001,-0.024,10.18395,0.16499999,0.0790625,-0.8177125
0.33105,0.59505004,9.540001,0.142725,0.0026125,-0.39875
0.41895002,0.81795,9.267,0.2685375,-0.111925,-0.8289875
0.0049500004,1.3060501,8.772,0.238425,-0.1434125,-0.6485875
0.72105,1.24905,10.012051,0.2712875,-0.034649998,-0.6384125
0.80895007,3.7530003,7.8550506,0.386375,-0.2388375,-0.6188875
0.25605002,2.118,6.47205,1.109625,-0.593175,-1.59995
-2.979,-2.90805,10.395,-0.1898875,0.0551375,0.12773749
0.59595,-4.89195,11.60595,-2.7517874,0.9211125,6.0544
0.63000005,-4.557,13.059001,-1.840575,-0.7657375,5.135625
0.80895007,-2.463,12.07995,-0.2756875,-0.242275,0.45993748
1.212,-1.4860501,11.218051,0.306625,0.031075,-0.6975375
0.85005003,-1.386,13.18605,0.4181375,0.1040875,-0.9211125
1.5630001,-3.62805,13.375051,0.2033625,0.0966625,-0.333025
-1.6290001,-1.9270501,11.991,-0.2754125,-0.148225,0.5663625
0.16605,-2.9629502,11.962951,-0.0526625,0.23485,0.648175
1.4080501,-3.6840003,11.178,-0.1744875,-0.1709125,0.59455
1.29795,-0.24105,5.1720004,-0.258775,-0.26015,-0.069299996
-0.03705,2.8600502,7.76205,0.56595,0.2314125,-2.3876874
-0.0010500001,-1.029,9.954,1.044725,0.0616,-4.5984125
-1.24605,0.33900002,8.80305,-0.198,0.70565,-0.7528125
-0.693,-0.201,8.71905,0.0510125,0.6105,-1.144275
-0.32895002,-1.098,8.938951,-0.2402125,0.058849998,0.219175
-0.70005006,0.27495003,9.12405,-0.2721125,0.12705,0.4437125
-0.41295,-0.60300004,9.418051,0.0341,0.22605,0.0430375
-0.31500003,-0.36600003,9.507001,-0.1511125,-0.03025,0.421575
0.19905001,-0.79695004,9.59805,-0.0086624995,-0.014025,0.1579875
0.052950002,-0.615,9.612,-0.115637496,-0.21807499,1.00485
0.031050002,-0.60495,9.898951,-0.02585,-0.12155,0.3559875
0.112950005,-0.33195,9.691051,0.0050875,-0.069575,0.4662625
0.28500003,-0.63600004,9.9210005,0.12705,-0.066275,0.1419
0.01905,-0.13095,9.682051,0.0160875,-0.0859375,0.4464625
0.177,-0.47400004,9.92595,0.1128875,0.0396,-0.141625
0.13395001,-0.43995002,10.194,0.00275,-0.0077,0.061049998
0.048,-0.49995002,9.861,0.0246125,0.0413875,0.06875
0.08400001,-0.23400001,9.53295,-2.75E-4,0.0154,0.1560625
-0.06105,-0.17205001,9.724951,0.0430375,0.01485,-0.2688125
0.14205001,-0.591,10.443001,0.012925,0.0092124995,-0.1936
-0.11595,-0.27495003,9.81105,-0.0543125,0.009075,0.0121
-0.087000005,-0.36105,9.757951,-0.013475,0.0449625,0.1060125
-0.15195,-0.46605003,9.966001,-0.0108624995,0.062975,-0.1720125
-0.006,-0.49500003,9.873,-0.021175,0.032449998,0.0776875
-0.058050003,-0.47400004,9.922951,-0.023375,-0.013612499,0.056375
-0.10605001,-0.40905002,9.580951,-0.0380875,-0.018424999,0.141075
0.01905,-0.615,10.075951,-0.0048125,-0.016775,0.0188375
-0.16395001,-0.37800002,9.535951,-0.0331375,-0.014025,-0.175175
-0.027,-0.522,9.65505,-0.010725,-0.0202125,-0.0595375
-0.087000005,-0.51000005,9.81105,-0.014162499,-0.013062499,0.1120625
-0.07305,-0.34905002,9.64095,0.0072875,0.006325,0.380325
-0.14205001,-0.39705002,9.77505,0.021175,8.25E-4,0.0053625
0.051000003,-0.37305,9.736951,0.0253,-0.0072875,-0.0726
-0.075,-0.402,9.84405,0.020624999,-0.020075,-0.019524999
0.08205,-0.48105,9.871051,0.011275,-0.0099,0.192775
0.01905,-0.47100002,9.693001,-0.02695,-0.0231,0.0699875
-0.07005,-0.49005002,10.078951,0.00715,0.006325,-0.073425
0.01695,-0.49005002,9.993,0.0089375,0.015675,-0.202675
0.064950004,-0.39705002,9.672001,9.625E-4,-5.5E-4,-0.005775
-0.07005,-0.48600003,9.910951,-0.0086624995,-0.0204875,-0.028875
0.13695,-0.591,10.065001,-0.0,0.0077,0.0474375
-0.40995002,-0.45195,10.524,-0.0144375,-0.0070125,0.0402875
0.12495001,-0.29700002,9.49005,0.0144375,0.0224125,0.06655
0.156,-0.40695003,9.625951,0.0534875,-0.0493625,0.0688875
0.30195,-0.39900002,9.89505,0.014162499,-0.0485375,-0.2215125
0.30705002,-0.33495003,9.81795,0.0105875,-0.0666875,-0.24007499
0.30195,-0.37995002,9.780001,0.0158125,-0.0719125,0.39627498
0.25395,-0.31995,9.816001,9.625E-4,-0.0457875,-0.102437496
0.055050004,-0.109950006,9.637951,0.0064625,-0.0169125,0.0551375
-0.022950001,-0.201,9.81105,0.051425,0.063525,-0.02695
-0.14895001,-0.16005,9.95895,0.0499125,0.1203125,-0.0682
-0.23595001,-0.049950004,9.733951,0.0451,0.1013375,0.0295625
-0.15705001,-0.061950002,9.745951,0.0353375,0.073699996,-0.027775
-0.171,-0.14295001,9.910951,0.0262625,0.0408375,-0.0847
-0.28095,-0.117000006,9.78705,-0.006325,0.0237875,0.0361625
-0.11100001,-0.21300001,9.801001,2.75E-4,0.017324999,0.164725
-0.13005,-0.186,9.753,-0.0125124995,0.0053625,-0.143825
-0.09195001,-0.22500001,10.066951,0.008525,4.125E-4,0.069575
-0.21900001,-0.13395001,9.8869505,0.0022,-0.0044,-0.206525
-0.10395,-0.028050002,9.700951,0.0187,-0.003025,-0.196625
0.00795,-0.177,9.913951,0.0213125,-0.0312125,-0.042625
-0.043950003,-0.012,9.816001,-0.00275,-0.0418,0.2404875
-0.018000001,-0.12195001,9.922951,0.0089375,-0.0224125,-0.014162499
-0.11400001,0.18105,9.543,0.01485,-0.01045,-0.110825
0.08400001,0.13095,9.744,0.103125,0.0286,-0.41799998
-0.025050001,0.231,9.415951,0.048125,-0.0589875,-0.35694999
0.0,-0.009000001,9.50895,0.0353375,-0.0306625,-0.2492875
-0.279,0.22905001,10.42605,-0.019524999,0.10285,0.0257125
0.060000002,0.66,9.717,0.226325,0.103675,-0.722975
-0.513,1.4449501,8.500951,0.188925,-0.12705,-0.710875
-0.73800004,2.01195,8.28405,0.3823875,0.0070125,-0.9590625
0.201,2.22795,8.32695,0.50655,0.0314875,-0.949575
-1.368,0.79905003,8.446051,0.4846875,-0.285175,-0.6950625
-0.702,-2.9940002,10.299001,-0.7778375,0.454025,1.5323
-0.98205006,-2.18295,9.768001,-1.8349375,-0.0774125,4.7326126
-0.88005006,-1.6660501,10.354051,-0.623425,0.0191125,1.976975
-1.047,-1.02195,11.665951,-0.1145375,0.0814,0.81895
-0.31005,-1.36905,12.53505,0.2888875,0.20955,-0.1340625
-0.717,-1.1200501,14.452051,0.266475,0.0677875,-0.573375
-0.70995003,-2.6089501,13.830001,0.142725,0.121,-0.6337375
-0.76500005,-2.53905,12.384001,-0.271425,-0.13255,0.2391125
-0.80100006,-3.1740003,10.95495,-0.2987875,-0.11275,0.5732375
-1.176,-0.17205001,6.0670505,-0.451275,-0.2151875,0.9581
1.1040001,1.8060001,10.47105,0.1079375,0.0375375,0.347325
1.5799501,-0.41595003,10.30395,2.194775,-0.1131625,-5.0138
1.1520001,-0.39495003,7.9990506,0.2204125,-0.6549125,-0.7992875
-1.485,0.27495003,6.9409504,-0.3911875,-0.3821125,0.18205
-1.3939501,-1.6180501,9.705001,-0.3158375,0.5819,-0.7800375
-2.091,-0.08805001,9.579,-0.7451125,0.339075,0.2094125
-0.61605,-0.85905004,9.660001,0.0671,0.487025,-1.115675
-0.31005,-1.194,9.375,-0.1263625,-0.3240875,0.327525
0.261,-0.021000002,10.13895,-0.1610125,-0.3576375,0.6609625
0.37905002,-0.36795002,8.889001,0.2468125,-0.30085,-0.296175
-0.039,-0.63900006,9.969001,0.0595375,-0.1969,-0.015262499
0.52905005,-1.7539501,11.512951,0.0933625,0.035475,-0.22659999
-0.11400001,0.010950001,9.153001,-0.2017125,-0.22605,0.876975
0.23295002,-0.71805006,9.883051,0.143825,0.071225,0.2052875
-0.09705,-0.675,9.5119505,-0.0075625,0.0187,0.3499375
-0.043950003,-0.72,9.262951,-0.0732875,0.036575,0.1189375
-0.0010500001,-1.1869501,10.053,-0.12595,-0.0045375,0.3372875
0.112950005,-0.58395004,9.126,-0.139425,-0.072875,0.61036247
0.40695003,-0.97395,9.660001,-0.0268125,-0.106837496,-0.2275625
0.22500001,-0.83295006,9.835051,-0.0840125,-0.1507,-0.0385
0.48900002,-0.77805007,9.877951,0.015125,-0.0166375,0.0033
-0.022950001,-0.76095,10.705951,0.025575,-0.020624999,-0.120037496
0.21300001,-1.3230001,10.837951,0.121275,0.1706375,-0.4401375
0.17295001,-0.67005,9.403951,-0.039049998,0.016224999,0.210375
0.18705001,-0.90405005,10.255951,0.0985875,0.043725,0.050875
0.12705001,-0.39000002,9.339001,0.004125,-0.012375,0.1375
0.094050005,-0.53295004,9.58605,0.0506,-0.0235125,-0.025024999
-0.030000001,-0.36105,9.81105,0.0521125,0.013475,-0.0317625
0.120000005,-0.54300004,10.069051,0.08195,0.0331375,0.3009875
0.34305,-0.76605004,10.033051,-0.0584375,-0.07205,0.120037496
0.26595002,-0.735,9.978001,-0.0594,-0.03575,0.0017875
0.216,-0.52605003,9.4470005,-0.0248875,-0.03135,0.13213749
0.15105,-0.32295,9.34605,0.0418,0.012925,-0.4173125
0.17505,-0.162,9.121051,0.0594,-0.03025,-0.18205
0.41400003,-0.59595,9.13605,0.0746625,0.00165,-0.2094125
-0.40800002,-0.675,10.258051,0.0026125,0.0554125,0.15675
-0.54405004,-0.57405,9.757951,-0.00385,0.27225,-0.012375
-0.52305,-0.65295005,9.700951,-0.028324999,0.1802625,-0.0708125
-0.57795,-0.63195,9.90705,-0.0235125,0.1332375,0.1043625
-0.58005005,-0.61695004,9.769951,-0.04235,0.0548625,0.2013
-0.61095005,-0.63900006,9.898951,-0.007425,0.0363,-0.022275
-0.492,-0.69105005,10.042951,0.00385,0.0314875,-0.01045
-0.63795,-0.59295005,9.945001,-0.0078375,6.875E-4,0.2330625
-0.60195005,-0.45900002,9.84195,0.006325,0.005775,0.1959375
-0.55905,-0.48105,9.66705,0.0521125,-0.0017875,-0.2376
-0.432,-0.38295,9.576,0.011,-0.022275,-0.0391875
-0.59895,-0.22695,9.550051,0.0419375,-0.04015,-0.0991375
-0.38895002,-0.11505,9.150001,0.06765,0.0020625,-0.4191
-0.10395,-0.045,9.636001,0.102025,-0.065725,-0.3183125
0.132,0.15,9.550051,0.1595,-0.1164625,-0.4676375
-0.034950003,0.36105,9.45705,0.18315,-0.17379999,-0.6358
-0.07305,0.54705,8.887051,0.1546875,-0.0658625,-0.8536
0.060000002,1.5139501,8.488951,0.2369125,0.0209,-0.8514
0.33495003,2.493,8.238,0.4279,-0.1038125,-0.7390625
0.51705,-1.065,9.217051,0.67141247,-0.2803625,-1.018325
0.43800002,-4.63605,11.805,-0.7337,0.0319,1.5901875
-0.49905002,-3.28095,8.70705,-1.8987374,-0.3026375,5.3147874
-0.01995,-2.9220002,9.98805,-0.8971875,-0.3586,2.9744
0.48405004,-2.6160002,11.65095,-0.1684375,-0.2047375,0.7264125
0.21105,-1.7400001,11.92905,0.1995125,0.042075,-0.8647375
0.18705001,-1.6030501,11.070001,0.3136375,0.1343375,-0.8459
-0.40305,-0.72705,12.250051,0.3018125,0.12375,-0.6067875
0.003,-4.1070004,15.097951,0.2954875,0.2058375,-0.780725
0.13005,-2.7600002,13.143001,-0.3106125,0.003575,0.94476247
0.20895001,-3.6979501,11.865001,-0.101475,-0.17325,0.335225
-0.81195,-3.59295,7.3429503,-0.3806,-0.2088625,0.925375
-0.006,-0.43995002,7.3840504,-0.47575,-0.1508375,1.5892249
2.07795,2.02905,6.6850505,0.8372375,0.3509,-2.168375
0.09105001,0.27495003,8.691,0.727375,-0.5798375,-3.7596624
-0.054,0.31005,9.054001,0.232375,0.25575,-1.6918
0.87195003,-0.58605003,9.682051,0.0592625,0.1445125,-0.3641
1.008,0.0019500001,9.837001,-0.111375,-0.349525,0.8471375
0.024,0.25995,8.904,0.1123375,-0.05775,0.2897125
-0.20700002,-0.30405003,9.81795,0.1332375,0.4453625,-0.1923625
0.096,-0.53595,10.347,-0.1720125,0.3042875,0.5424375
0.42600003,-0.56895,10.363951,-0.1637625,0.082775,0.3823875
0.37605003,-0.39495003,9.670051,-0.071225,-0.095425,0.128425
0.21105,-0.27705002,9.693001,-0.0026125,-0.0616,0.2116125
0.34695002,-0.47400004,9.47295,0.0361625,0.011825,0.2825625
0.333,-0.38505003,9.571051,-0.0143,0.0160875,0.0075625
-0.025050001,-0.07395,9.507001,0.004125,0.023375,0.064075
0.19695,-0.38700002,9.910951,0.045649998,0.01815,0.2470875
-0.07005,-0.24405001,9.6,0.018424999,0.021724999,0.1656875
0.39495003,-0.37605003,9.63105,0.0215875,0.0782375,-0.2052875
-0.27405003,-0.16995001,10.629001,0.0358875,-0.0017875,-0.16555
-0.22095,0.20295002,9.318001,0.103125,0.13805,-0.3524125
-0.058050003,-0.201,10.239,0.1571625,0.17655,-0.2146375
-0.51795,-0.025950002,9.6,-0.0308,-0.0092124995,0.3432
-0.73095006,0.24300002,9.399,-0.0638,0.0424875,0.21367499
-0.60405004,0.09705,9.98805,0.027775,0.1144,-0.1496
-0.513,0.23895001,9.531,0.067925,0.0754875,-0.155925
-0.18495001,-0.25605002,10.275001,0.046475,0.022824999,-0.1420375
-0.69000006,0.26295,9.76095,-0.0257125,-0.0290125,-0.088
-0.34305,-0.10695001,9.883051,0.0312125,0.0474375,0.132275
-0.51105005,0.049950004,9.66195,-0.03575,-0.0033,0.2677125
-0.27195,-0.30795002,10.081051,-0.015125,0.0127875,0.2564375
-0.32895002,-0.061950002,9.868051,-0.073425,-0.0422125,-0.0026125
-0.20505,-0.177,10.146001,-0.0011,-0.0312125,-0.2035
-0.12105001,-0.11895001,9.82005,-0.00495,-0.0213125,-0.1181125
-0.37905002,-0.29700002,10.01895,-0.03355,-0.0642125,0.106425
-0.33900002,-0.105000004,9.898951,-0.050325,0.0132,0.306075
-0.051000003,-0.31995,9.83205,0.0119624995,0.01155,-0.15895
0.01695,-0.26805001,9.613951,-0.022,-0.038775,0.0853875
-0.079950005,-0.25800002,9.8539505,-0.0248875,-0.055,-0.10835
-0.31500003,-0.26505002,9.98805,-0.0352,-0.0275,-0.386375
-0.20895001,-0.28005,9.801001,-0.013062499,0.0364375,0.0895125
-0.31695002,-0.273,9.847051,-0.038225,0.0061875,-0.085525
-0.28095,-0.43995002,9.901951,-0.0017875,0.0292875,-0.0584375
-0.27405003,-0.30105,9.44505,-0.0418,-0.013062499,-0.0925375
-0.26895002,-0.32295,9.7890005,-0.0243375,-0.0039875,-0.079475
-0.15195,-0.03795,9.591001,0.0328625,0.0144375,-0.36519998
-0.21405001,-0.117000006,9.636001,0.1057375,-0.0380875,-0.1524875
-0.252,0.246,9.078,0.041249998,0.003575,-0.322025
0.34305,0.0019500001,10.000051,0.0792,-0.012925,-0.4893625
0.156,0.030000001,10.59105,0.0587125,-0.109037496,-0.7269625
0.21300001,0.33,9.29895,0.111237496,-0.0474375,-0.374
0.12195001,0.84195006,8.734051,0.158675,-0.048675,-0.472725
0.087000005,1.4620501,8.523001,0.2619375,-0.0895125,-0.7398875
0.16995001,2.355,8.16195,0.4466,-0.1392875,-0.79035
0.69195,1.15995,8.743051,0.6204,-0.2740375,-0.722975
-2.7229502,-1.55295,7.4670005,-0.1989625,-0.1417625,1.0869375
0.120000005,-3.3319502,9.700951,-1.2863125,0.87945,3.6062124
0.17295001,-1.3810501,10.774951,-0.9180875,-0.2838,3.4332376
0.46500003,-1.4860501,12.163951,-0.028324999,-0.0757625,1.5054874
0.69900006,-1.422,12.178051,0.190025,-0.0793375,0.2077625
0.76395005,0.51600003,11.6629505,0.1929125,-0.11825,-0.3961375
0.21105,-2.90805,16.51995,0.4043875,0.0375375,-0.969375
-0.231,-1.2870001,12.55395,-0.421575,0.0809875,0.8602
0.61995006,-2.02005,11.2570505,-0.1711875,-0.108625,0.5553625
-0.47505003,-2.83605,11.149051,-0.2591875,-0.0570625,0.3232625
-2.6749501,1.3399501,1.7989501,-0.2072125,0.0974875,0.29741248
-1.1880001,1.9600501,6.3760505,0.654225,0.5765375,-1.4102
2.3700001,-0.70605004,9.861,1.0879,-0.1519375,-4.5200377
-1.4280001,-0.29205,10.59105,-0.027224999,-0.524975,-1.0342749
1.0680001,-0.99105006,10.44495,-0.11,0.73095,-1.1119624
0.381,-0.097950004,9.507001,-0.078099996,-0.037675,-0.45993748
0.079050004,-1.18005,8.451,0.0658625,-0.0891,-0.2957625
-0.82395005,0.13305001,7.9219503,-0.3691875,-0.2253625,1.1765875
-0.57795,-0.13905,9.35595,0.0350625,0.2222,0.2409
-0.42000002,-0.423,9.67695,0.104225,0.2336125,0.102025
-0.03705,-0.65805006,9.97605,-0.056375,-0.034649998,0.45815
-0.44895002,-0.66495,9.672001,-0.066275,-0.0721875,0.4774
-0.10395,-0.82305,9.733951,-0.056925,0.043725,0.0418
-0.312,-0.648,9.468,-0.0510125,-0.047025,0.1441
-0.31695002,-0.804,9.92595,-0.01815,0.0323125,-0.072325
-0.11805001,-0.58905005,9.90705,0.011275,0.080575,-0.1095875
-0.33900002,-0.51000005,9.769951,0.087037496,-0.0077,0.06875
-0.25500003,-0.63900006,9.559051,-0.00495,0.007425,0.1351625
0.25605002,-0.55005,9.66195,-0.0127875,-0.0375375,0.243375
0.028950002,-0.68895006,9.780001,0.0518375,-0.1662375,-0.170775
0.16995001,-0.54495,9.580951,-0.0257125,-0.091575,-0.0086624995
0.42195,-0.61995006,9.90705,0.01925,-0.0477125,-9.625E-4
0.25395,-0.53805,10.12005,0.0325875,-0.0534875,-0.27981248
0.18705001,-0.42600003,9.94005,0.01595,-0.007975,-0.31185
-0.066,-0.70605004,10.02105,0.048125,0.07315,-0.3348125
0.12495001,-0.73695004,9.688951,-0.078925,0.0325875,0.2011625
0.052950002,-0.79905003,9.84,-0.0493625,-0.010725,0.3348125
0.051000003,-0.58395004,9.672001,-0.071775,-0.0380875,0.3751
0.30195,-0.80595005,9.910951,0.0204875,-0.0207625,0.055825
0.24405001,-0.68895006,9.877951,0.0075625,-0.0554125,0.17379999
0.051000003,-0.72705,9.768001,0.0050875,-0.013475,-0.085525
0.14400001,-0.91395,10.378051,0.014575,0.0930875,0.0265375
-0.32895002,-0.34905002,9.40905,-0.0242,0.030524999,0.128975
-0.087000005,-0.53595,9.550051,0.0600875,0.09955,-0.115775
-0.11100001,-0.531,9.765,0.040975,0.0165,0.0383625
0.051000003,-0.63600004,9.95205,0.0297,-2.75E-4,0.176275
-0.015000001,-0.51900005,9.871051,-0.00715,-0.0474375,0.166925
-0.16395001,-0.37800002,9.877951,0.039049998,0.0174625,-0.049225
-0.003,-0.531,10.177051,0.04675,0.036849998,-0.1436875
-0.3,0.028050002,9.744,0.023375,-0.001925,0.0114124995
-0.19995001,-0.057000004,9.684,0.1353,0.02035,-0.034649998
0.031050002,0.034950003,10.017,0.103125,-0.0265375,0.1808125
-0.042000003,0.46095002,9.59805,0.1269125,-0.0609125,-0.0826375
0.24195,0.28905,10.111951,0.225225,-0.0154,-0.1331
0.216,0.58305,9.58605,0.1282875,-0.0611875,-0.156475
0.22995001,0.79395,9.46395,0.115225,-0.0891,-0.272525
0.25905,0.63405,9.708,0.132,-0.0627,-0.175175
0.055050004,0.37005,9.583051,0.0022,-0.037675,0.010725
0.075,0.22005,9.7890005,-0.093637496,0.0460625,0.1419
0.15405001,-1.04805,11.629951,-0.0334125,0.161425,0.106837496
-0.51795,0.40395,8.016001,-0.4164875,0.094875,0.8591
-0.88395005,-0.77505004,8.74995,0.148775,0.3763375,-0.2525875
-1.6140001,-1.3950001,10.054951,-0.365475,0.3114375,0.43065
-0.56100005,-1.09605,10.222051,-0.504625,0.0614625,0.4992625
-0.93900007,-1.5169501,11.008051,-0.12155,0.005225,-0.3460875
-0.34605002,-0.75405,9.27705,-0.0636625,0.033275,-0.3301375
-0.702,-0.804,9.712951,0.1131625,-0.0628375,-0.274725
-0.62805,-0.57705003,9.17895,0.060225,-0.0358875,0.263725
-0.54195005,-0.88500005,10.55805,0.1034,9.625E-4,-0.0177375
-0.777,-0.14805001,9.613951,0.103125,-0.005775,-0.197175
-0.64500004,-0.177,9.658051,0.19813749,0.0292875,-0.540925
-0.69795,-0.14595,9.66705,0.156475,0.0086624995,-0.442475
-0.46995002,-0.15495001,9.61005,0.1122,0.0075625,-0.1722875
-0.64995,0.016050002,9.62895,0.0169125,-0.0477125,0.3416875
-0.609,0.081,9.354,0.0408375,0.00715,0.1936
-0.66195005,0.018000001,9.67695,0.11165,-0.0033,-0.3839
-0.57795,0.39405003,9.109051,0.0694375,0.01155,0.0364375
-0.52005005,0.291,9.95205,0.18053749,0.012375,-0.3542
-0.51600003,1.0690501,9.379951,0.175725,-0.042625,-0.5504125
-0.20895001,0.72705,9.729,0.2770625,-0.1601875,-0.5751625
-0.39405003,1.131,9.009001,0.167475,-0.1519375,-0.58753747
-0.80100006,2.11995,9.19305,0.3240875,-0.0224125,-0.7398875
0.00795,2.4070501,7.6180506,0.5281375,-0.1324125,-1.016675
-0.58995,1.371,7.05105,0.7106,-0.4483875,-1.1573375
-0.19005,-2.2399502,6.2080503,-0.709775,0.2996125,0.81345
-1.2859501,-4.2460504,10.225051,-2.29515,-0.1142625,4.84605
-0.762,-4.1719503,11.94795,-1.7106375,-0.4123625,3.5168376
-0.291,-2.86995,12.36705,-0.4239125,0.01595,0.7819625
-0.043950003,-2.4120002,12.25905,0.303875,0.2998875,-0.8892125
0.16995001,-2.661,12.82005,0.367675,0.233475,-1.0747
0.58395004,-3.55905,12.219001,0.062975,-0.0433125,-0.3466375
1.08,-3.2569501,12.087001,-0.150425,-0.30305,0.2677125
0.15105,-3.0970502,10.27305,-0.0559625,-0.3386625,0.5270375
-0.54,-2.98005,9.648001,-0.1865875,-0.4037,1.371425
1.9890001,2.4409502,8.437051,-0.0449625,-0.1331,0.572275
-0.21900001,2.25705,6.8380504,1.7290624,-0.04455,-5.0793877
0.027,0.18405001,8.99895,0.9691,0.1929125,-3.4986875
-0.46500003,-0.18900001,10.651051,-0.1579875,0.33275,-0.528
-0.58695,0.0019500001,7.6060505,-0.4642,0.3554375,0.1681625
-0.33600003,-1.02195,10.536,-0.3499375,0.2578125,0.1098625
-0.53205,-0.033,9.607051,-0.400675,-0.0163625,0.5278625
0.59400004,-0.35895002,8.262,-0.0407,-0.109037496,-0.163075
0.19695,-0.22005,8.69505,-0.0257125,-0.3598375,0.2671625
0.771,-1.10595,11.07705,-0.0380875,-0.1472625,0.262075
0.0,-0.17205001,9.813001,-0.0352,-0.14355,0.2380125
0.12705001,-1.6849501,9.934951,0.07755,0.0295625,-0.0325875
0.04605,-0.47100002,7.8310504,-0.317625,-0.09625,0.9315625
0.312,-0.85200006,9.717,-0.037125,0.048125,0.69025
0.21795002,-0.61200005,10.40205,-0.00165,0.010175,0.42075
0.14595,-0.89505005,9.700951,0.0889625,-0.0044,-0.080575
0.75000006,-1.67505,11.674951,-0.0059125,0.0072875,0.495275
-0.123,-0.68205005,9.31095,-0.1117875,-0.1034,0.42734998
0.16800001,-1.24905,10.11705,0.0163625,0.0477125,0.223025
0.027,-0.47805002,9.406051,-0.0554125,0.0185625,0.197175
0.063,-0.75105006,10.086,0.1428625,0.091299996,-0.36519998
0.18,-0.675,10.048051,0.043175,0.032725,-0.190575
0.06705,-0.60300004,9.954,0.06215,-0.00495,-0.1595
-0.027,-0.72,10.17195,0.069299996,0.0364375,-0.15619999
-0.14205001,-0.51405,9.613951,-0.0160875,-0.001925,0.161975
-0.042000003,-0.45000002,9.816001,0.0430375,0.051975,-0.081675
0.15105,-0.69900006,10.065001,0.0385,-0.0221375,0.0589875
0.063,-0.615,9.745951,-0.0213125,-0.0077,-0.109725
0.112950005,-0.74205005,9.78705,-0.0317625,-0.0092124995,-0.132825
0.048,-0.60795003,9.877951,-0.033,-0.004675,-0.0994125
0.015000001,-0.624,9.82995,-0.00715,0.0163625,-0.1049125
0.10095,-0.65295005,9.8869505,-0.04235,-0.018424999,0.091575
-0.087000005,-0.60495,9.84195,0.0347875,0.02915,-0.0061875
0.08205,-0.591,10.31295,0.0273625,0.020624999,0.0968
0.031050002,0.076050006,9.74895,0.06435,-0.049775,0.1288375
0.29700002,0.025950002,9.739051,0.1907125,-0.0627,-0.0380875
0.35505003,-0.079050004,10.00905,0.1678875,-0.065725,-0.0925375
0.29700002,0.12900001,9.90705,0.142725,-0.0072875,-0.0037125
0.14400001,0.12900001,10.213051,0.1175625,-0.0055,0.1573
0.13695,0.26700002,9.739051,0.042625,-0.0034375,-0.071225
0.18495001,0.14805001,9.880051,0.0248875,0.011,0.0738375
0.12195001,0.19995001,9.64305,-0.0017875,-0.0083875,-0.0306625
0.10605001,0.23595001,9.732,0.0048125,0.009075,0.181225
0.177,0.17895001,9.63105,0.004675,0.0163625,0.01925
0.192,0.109050006,9.82995,0.0114124995,0.005775,-0.011275
0.075,0.141,9.934951,0.0105875,0.0391875,-0.0248875
-0.015000001,0.38700002,9.61695,0.0303875,0.0345125,-0.4041125
0.08895,0.26295,9.571051,0.03795,0.0198,-0.304975
0.261,0.009000001,9.97095,-0.010175,-0.0177375,-0.0297
-0.135,0.49005002,9.30795,-0.0633875,-0.0611875,-0.1155
0.16800001,0.72495,9.114,0.062425,-0.011275,-0.451275
0.15105,0.79395,9.283951,0.110825,-0.098037496,-0.9092875
0.34305,0.73395,9.339001,0.1362625,-0.070675,-0.675125
0.028950002,1.3450501,9.16695,0.1161875,-0.07535,-0.455125
1.06305,3.111,8.86995,0.20927499,-0.0193875,-0.689425
1.2570001,1.5960001,9.5119505,0.9153375,-0.408925,-1.5890875
1.7190001,-2.1060002,9.69795,0.1188,-0.29645,0.167475
0.36900002,-6.49095,13.276951,-1.3508,0.3295875,3.3576124
1.0819501,-4.4760003,12.07995,-1.9729875,-0.3620375,6.1554623
1.0849501,-3.1350002,11.55105,-0.7698625,-0.48455,2.3813624
-0.14505,-2.22795,10.68,0.1802625,-0.0705375,0.4002625
-0.039,-1.28505,12.291,0.341275,0.1695375,-0.39325
0.11805001,-2.15595,14.272951,0.455675,0.1467125,-0.9933
-0.12105001,-4.7920504,15.369,0.05555,0.1181125,0.01155
1.2349501,-2.8219502,9.5119505,-0.374825,0.076175,0.661375
-0.18300001,-3.7510502,10.9480505,-0.170225,-0.18259999,-0.0061875
-0.753,-1.9770001,9.061951,-0.2624875,0.16775,0.1478125
-0.0010500001,0.11895001,7.5460505,0.183425,0.4543,-0.72435
1.7410501,0.768,6.66795,0.9147875,0.6521625,-3.2634249
0.23295002,-0.88500005,11.26395,0.9208375,-0.039325,-3.5871
0.78495,-0.62205005,8.36505,0.03135,-0.0688875,-0.627
0.89805007,-0.35205,8.74995,0.0339625,-0.2809125,-0.095699996
2.1709502,-1.125,11.668051,0.11495,-0.0600875,0.1082125
0.75900006,-1.218,11.158051,0.038775,-0.1131625,0.3689125
0.18,-0.53595,9.44205,-0.018424999,0.1166,0.1566125
-0.09,-0.40905002,9.15495,-0.0774125,0.1439625,0.3366
-0.025050001,-0.48600003,9.712951,0.0119624995,0.14465,0.3513125
0.381,-1.18005,10.14105,0.0044,0.048125,0.3075875
-0.03195,-0.81405,9.559051,-0.1401125,-0.0570625,0.671825
-0.21900001,-0.64395005,10.05,-0.0154,0.0724625,0.2112
-0.19995001,-0.65805006,9.741,0.06985,0.1720125,-0.3040125
-0.34800002,-0.49995002,9.64995,0.0086624995,0.0364375,0.1904375
-0.16605,-0.75405,9.79605,0.0603625,0.07535,0.0526625
-0.32205,-0.61695004,9.9210005,-0.02695,0.034649998,0.4334
-0.30495003,-0.62205005,9.61695,0.0259875,0.059125,0.038225
-0.48195,-0.47100002,9.555,0.00495,0.00605,-0.057475
-0.19500001,-0.78195006,9.918,-0.0187,-0.02585,0.2726625
-0.39600003,-0.69405,9.732,-0.0642125,-0.0746625,0.3040125
-0.45600003,-0.67005,9.63405,-0.0495,0.00935,0.32835
-0.40800002,-0.70605004,9.859051,-0.016224999,0.0237875,0.1307625
-0.47505003,-0.70095,9.792001,0.001375,0.0053625,0.00825
-0.54405004,-0.68205005,9.61905,-0.01815,0.0114124995,0.21615
-0.43005002,-0.75795,9.90705,-0.0031625,0.0551375,-0.0878625
-0.492,-0.25095,8.88195,-0.0210375,-0.0347875,0.2030875
-0.48705003,-0.62700003,9.849001,0.1392875,0.02475,-0.2088625
-0.48495004,-0.38295,9.721951,0.015125,-0.013062499,0.0044
-0.45105,-0.64605004,9.97605,0.0281875,-5.5E-4,-0.045925
-0.537,-0.42105,9.768001,-0.034375,-0.0121,0.38747498
-0.29805002,-0.71295005,9.729,0.05115,0.043175,-0.180125
-0.50100005,-0.63405,9.97605,-0.0275,-0.040975,0.133925
-0.372,-0.63195,9.8539505,-0.0105875,-2.75E-4,0.004675
-0.40800002,-0.63600004,9.5140505,-0.0055,-0.0081124995,0.0078375
-0.43695003,-0.768,10.206,-0.0015125,0.004675,-0.023375
-0.042000003,-0.648,9.922951,-0.0627,-0.0306625,0.2545125
-0.27405003,-0.46605003,9.757951,0.0441375,-0.046475,-0.088
-0.30705002,-0.43995002,9.904051,0.0539,-0.047025,-0.2531375
-0.31695002,-0.411,9.892051,0.081125,-0.0055,-0.1750375
-0.03705,-0.38505003,9.636001,0.051975,0.026124999,0.0573375
-0.28395,-0.34695002,9.835051,0.0413875,-0.0207625,-0.14093749
-0.23595001,-0.18900001,9.67905,0.0455125,0.01485,-0.2435125
-0.12105001,-0.261,9.82005,0.0671,-0.05335,-0.24035
0.01695,-0.043050002,9.40905,0.0309375,-0.0702625,0.2096875
-0.11805001,0.0019500001,9.87495,0.0774125,-0.0748,-0.29755
-0.10395,-0.060000002,9.682051,0.0625625,-0.0336875,-0.5894625
-0.06105,0.033,9.744,0.06765,-0.007975,0.001925
-0.28095,0.117000006,9.150001,0.086625,0.10505,-0.3377
-0.54705,1.20105,8.80305,0.0427625,0.049775,-0.1428625
0.051000003,0.47595003,9.727051,0.39421248,0.0213125,-1.0962875
-0.56595004,1.8019501,8.262,0.1662375,-0.09625,-0.5988125
-0.67800003,2.18895,8.236051,0.60115,0.08085,-1.66925
-0.35295,2.6950502,8.755051,0.49513748,-0.3212,-0.9689625
-0.64005005,-1.6680001,8.44905,0.3202375,-0.167475,-0.719125
0.441,-4.1119504,12.15705,-1.6476625,0.3045625,3.5308626
0.28005,-3.04005,10.38,-1.54385,-0.527175,3.9419875
0.60795003,-2.8530002,11.326051,-0.546975,-0.27445,2.05865
-0.19500001,-1.01505,11.403001,-0.110275,-0.1390125,0.72833747
0.058050003,-0.68895006,11.115001,0.360525,0.1973125,-0.307725
-0.18495001,-1.52205,10.46205,0.3311,0.1417625,-0.75734997
-0.26895002,-1.90005,12.68595,0.0583,0.0383625,-0.1618375
-1.0489501,-2.86695,12.243001,-0.1299375,0.09735,0.1458875
-0.171,-3.2910001,12.384001,-0.2321,0.198275,0.6219125
0.50100005,-2.05095,10.797001,-0.348975,-0.1945625,0.67045
1.4130001,1.0210501,10.416,0.3584625,0.023924999,-0.1989625
-2.7940502,2.2399502,7.9819503,1.6856124,-0.3557125,-4.1619873
-0.049050003,1.02405,6.9430504,0.6974,0.2046,-2.6837249
-1.3060501,1.30095,7.6540504,-0.0339625,-0.179575,-0.48785
0.31905,-1.1560501,11.953051,0.08305,0.2761,-0.957825
0.024,0.40395,10.09305,-0.3557125,0.073975,0.970475
-0.078,0.44505003,8.415,0.0418,-0.0064625,-0.2288
0.53205,-0.26295,9.70995,0.020075,-0.092125,0.2091375
-0.126,-0.39000002,9.966001,-0.16335,-0.2891625,0.51425
-0.21900001,-0.41400003,10.09095,-0.2165625,-0.01925,0.370975
-0.86505,-0.076050006,10.45905,-0.1571625,0.0809875,5.5E-4
-0.64305,-0.21795002,9.813001,0.0889625,0.2646875,-0.6326375
-0.10605001,-0.93105006,10.219951,-0.003575,0.1401125,-0.27995
0.015000001,-0.80895007,9.9210005,-0.2118875,-0.0878625,0.4129125
-0.15405001,-0.39000002,9.424951,-0.2079,-0.2244,0.615725
0.25395,-1.0720501,10.56,0.085525,-1.375E-4,0.2255
-0.030000001,-0.43095002,9.528001,-0.0818125,-0.142725,0.4024625
-0.53205,-0.34905002,10.033051,0.0540375,-0.0083875,-0.1810875
0.120000005,-0.49995002,9.871051,0.0836,0.1299375,-0.3106125
-0.05595,-0.48795003,9.990001,0.001925,-0.05115,0.296175
-0.384,-0.39495003,9.81105,-0.0177375,0.003025,0.23567499
-0.54405004,-0.68700004,10.065001,-0.0253,0.0625625,0.3224375
-0.56805,-0.49005002,9.523951,-0.091025,0.08305,0.4587
-0.42495003,0.00405,9.232051,-0.048675,-0.0226875,0.488675
-0.54195005,-0.45900002,9.556951,0.1376375,0.005225,-0.4178625
-0.432,0.066,8.62605,-0.02035,-0.01375,-0.1513875
-0.264,-0.112050004,9.45195,0.0804375,0.04235,-0.3620375
-0.042000003,0.26295,9.18105,0.069575,-0.0565125,-0.41181248
0.22095,0.36795002,10.002001,0.1967625,-0.106837496,-0.5465625
0.513,0.45600003,9.87495,0.226325,-0.2003375,-0.88715
0.62295,0.93795,8.755051,0.0818125,-0.2825625,-0.37345
0.642,0.93000007,8.587951,0.1659625,-0.23595,-0.40507498
1.8390001,2.22495,8.28405,0.3579125,-0.143,-0.7478625
0.8880001,3.10905,6.91905,0.586575,-0.5190625,-1.121725
1.212,-1.39005,8.7960005,0.6463875,-0.287375,-1.4414124
-0.078,-4.533,11.69505,-0.8635,0.3342625,1.9386125
0.53400004,-2.9530501,10.512,-1.8866374,-0.1945625,6.57305
0.60105,-2.6140501,10.91205,-0.609125,-0.2332,2.4607
0.99405,-0.46395,10.49295,-0.0264,-0.082225,0.4010875
0.63900006,-1.1340001,11.44305,0.419925,6.875E-4,-1.292775
1.3219501,-2.43405,13.729051,0.2303125,-0.0017875,-0.69107497
0.80505,-4.5690002,16.47705,-0.3029125,-0.056925,0.562925
1.0510501,-3.1230001,11.347051,-0.4202,-0.13915,1.0260249
-0.039,-2.46795,10.531051,-0.1645875,-0.1109625,0.5038
0.83100003,0.36600003,7.25895,-0.02805,0.0132,0.1951125
0.915,1.7850001,11.04405,0.6730625,0.4136,-1.9877
4.1680503,-0.96195006,14.11005,1.2684375,0.22,-5.0639873
1.4770501,0.84195006,8.334001,0.2429625,-0.161975,-1.376375
1.125,0.141,10.687051,0.31501248,0.0320375,-1.0934
-0.43005002,0.40605003,9.85095,-0.110275,0.2055625,-0.26565
0.522,0.21495001,8.85105,-0.279675,0.3345375,-0.5643
0.60795003,-0.64605004,10.30605,-0.3086875,0.04895,0.620125
-0.79800004,0.07395,9.901951,-0.2325125,0.015125,0.6754
0.84795004,-0.99495006,10.09605,-0.0012375,0.3130875,-0.37015
0.15105,-0.77505004,9.50895,-0.2695,-0.2145,0.4379375
0.23505001,-1.161,10.27995,-0.1098625,0.00385,0.119625
0.11505,-0.72495,9.492001,-0.1029875,-0.0397375,0.078099996
0.78105,-0.87600005,9.552,-0.0185625,0.012375,0.1007875
0.666,-1.3260001,10.38,-0.018424999,-0.1489125,0.3521375
0.14400001,-0.873,9.7890005,-0.02475,-0.0444125,0.3741375
0.31605002,-0.82995003,9.241051,0.0075625,0.086625,0.0650375
0.26805001,-1.1179501,9.89505,-0.012925,0.0341,0.0342375
0.216,-0.82800007,9.92595,-0.01815,-0.0176,0.385
0.21300001,-0.95205003,9.93795,0.068475,0.03795,0.128975
0.393,-0.91605,9.898951,-0.0044,0.0279125,-0.1122
0.13005,-0.94305,9.94005,0.0180125,-0.039049998,0.086625
0.43095002,-0.91200006,9.703051,0.0100375,0.036849998,-0.1670625
0.60105,-0.84705,10.030951,0.0462,0.0193875,-0.2805
0.67305005,-0.735,10.215,0.0334125,-0.1071125,-0.12815
0.41895002,-1.9890001,11.793,0.0765875,-0.0158125,-0.2212375
0.177,-0.45000002,9.21,-0.157025,-0.0125124995,0.5086125
0.18,-0.27705002,9.226951,0.08855,0.0474375,-0.3980625
0.402,-0.555,9.625951,0.0891,-0.0042625,-0.1882375
0.19695,-0.27705002,9.691051,0.053075,-0.0466125,0.0259875
0.36405003,-0.201,9.49695,0.1087625,0.0583,-0.169675
0.12495001,-0.09105001,9.745951,0.0950125,-0.0187,-0.2616625
-0.102000006,0.109050006,8.604,0.0638,0.07205,-0.2030875
0.37095,0.28905,9.81795,0.1065625,0.136125,-0.0408375
-0.109050006,0.624,9.52095,0.34375,-0.0026125,-0.79915
-0.42195,1.0570501,8.86995,0.24145,0.0523875,-0.5423
-0.93495005,1.77495,8.31,0.3697375,0.1958,-0.99165
0.14205001,2.9940002,9.44205,0.524975,0.1276,-1.3476375
-0.88395005,0.57405,6.9310503,0.80355,-0.3205125,-1.1433125
0.0,-2.7880502,8.50905,-0.304425,0.26235,0.61105
1.10895,-2.77395,9.229051,-2.1429374,-0.2558875,6.23095
0.49305,-1.5460501,10.086,-0.9480625,-0.391875,2.735425
0.56295,-1.5169501,10.593,-0.1252625,-0.0378125,0.898425
0.14205001,-1.383,11.058001,0.042075,-0.0804375,0.1986875
0.031050002,-1.074,11.625001,0.1777875,0.1568875,-0.3031875
-0.58995,-1.28295,12.196951,0.221925,0.0814,-0.6997375
0.66105,-2.7139502,14.670001,-0.0917125,-0.1505625,-0.0056375
-0.32700002,-2.424,11.641951,-0.31295,-0.2171125,0.3955875
-0.50100005,-2.463,9.4800005,-0.2476375,-0.061325,0.7539125
-1.62195,-1.74705,9.76305,-0.2897125,-0.067375,0.692725
0.333,4.092,8.293051,0.7060625,0.1794375,-1.3751374
-0.81000006,1.0690501,4.6309505,1.7202625,-0.007425,-5.3920627
0.91200006,0.92805004,6.807,0.30745,0.1491875,-1.2258124
-0.82905006,-0.22200002,9.315001,-0.0636625,-0.2992,0.0298375
-0.55905,-2.39805,10.660951,-0.345675,0.4437125,0.6040375
0.72105,-0.555,10.455001,-0.69795,-0.1628,1.371975
0.513,-0.42105,9.865951,-0.1013375,-0.1621125,-0.2454375
0.90795004,-0.58905005,10.62495,0.0603625,-0.1414875,-0.56155
0.132,-0.8880001,10.807051,-0.1093125,-0.1038125,-0.064625
-0.28095,-0.31095,9.571051,-0.1967625,0.1166,-0.1489125
0.36405003,-0.66495,9.76305,-0.011,0.134475,-0.1896125
0.37905002,-0.62895006,9.62895,0.00825,-0.018975,0.3339875
0.16605,-0.74700004,10.143001,-0.0391875,-0.0523875,0.3078625
-0.22605,-0.555,9.483001,-0.0528,-0.00935,0.4690125
0.02205,-0.63405,9.757951,-0.0424875,0.022275,0.54065
0.051000003,-0.897,10.029,-0.045925,0.0246125,0.132825
0.25605002,-0.88500005,10.02105,-0.0345125,0.020624999,0.013612499
0.37395,-0.69105005,9.583051,0.0451,-0.0760375,0.2022625
0.25905,-0.483,9.50205,0.0298375,-0.056375,-0.1500125
-0.075,-0.58905005,9.70995,0.06655,-0.0075625,-0.05995
0.108,-0.55005,9.50205,0.0477125,0.06215,0.1618375
0.015000001,-0.41595003,9.708,0.0037125,-0.010175,0.1876875
0.00795,-0.54795,9.873,0.0180125,0.0298375,-0.04015
-0.21900001,-0.53595,9.9210005,-0.009075,0.0352,-0.0658625
-0.126,-0.53295004,9.64995,-0.0133375,0.0506,-0.05775
-0.16905001,-0.58395004,9.579,-0.0191125,0.01155,0.0924
-0.006,-0.54795,9.792001,-0.020075,0.0121,0.1186625
-0.59895,-0.27495003,9.65505,0.026675,0.00935,-0.093775
-0.53205,-0.016050002,9.29895,0.0867625,0.119625,0.107525
-0.35295,-0.13905,9.84195,0.1172875,0.086899996,0.1662375
-0.55605,0.19800001,9.68595,0.11,0.0433125,-0.0345125
-0.40095,0.15705001,9.84405,0.13915,0.0627,-0.00605
-0.14205001,-0.06705,9.736951,0.104499996,-0.0138875,-0.09955
-0.34095,0.109050006,9.607051,-0.0199375,-0.0933625,0.076725
-0.44400004,0.033,9.576,0.0088,0.003025,-0.0796125
0.076950006,-0.55005,11.13,2.75E-4,0.0386375,-0.1835625
-0.32205,-0.16005,9.780001,-0.100237496,-0.082225,0.1040875
-0.087000005,-0.23400001,9.564,-0.0925375,-0.0242,9.625E-4
-0.252,-0.165,10.01895,-0.0059125,-0.02695,-0.068475
-0.24795002,-0.124050006,9.724951,0.015262499,0.0394625,-0.025575
-0.18495001,-0.35895002,9.942,0.006875,-0.0039875,0.1557875
-0.07005,-0.25605002,9.81795,-0.0078375,0.0400125,-0.17985
-0.15195,-0.23400001,9.523951,-0.037675,-0.032175,0.1711875
-0.25995,-0.33495003,10.11495,-0.0193875,-0.0143,-0.049775
-0.171,-0.35895002,9.957001,-0.0116875,0.0287375,-0.3210625
-0.147,-0.29205,9.523951,-0.0251625,-0.0127875,0.061875
-0.23295002,-0.273,9.64995,-0.0537625,-0.032725,0.228525
-0.34095,-0.273,9.729,-0.0213125,0.010175,-0.062975
-0.22095,-0.261,10.012051,0.0232375,0.014575,0.0067375
-0.28095,-0.32805002,10.002001,0.0199375,-0.0356125,0.0215875
-0.33405003,-0.031050002,9.66495,0.0265375,0.034925,-0.0257125
-0.18105,-0.30600002,9.861,0.0526625,0.029975,-0.0859375
-0.039,-0.097950004,9.693001,0.0033,-0.0044,-0.265925
0.052950002,-0.30600002,9.564,0.0559625,-0.07205,-0.3790875
-0.28095,0.41295,9.232051,-0.0292875,-0.0930875,0.047849998
0.16605,-0.00705,9.733951,0.1865875,0.047849998,-0.7016625
0.46500003,0.22695,9.898951,0.095699996,-0.0506,-0.3986125
-0.15705001,1.0360501,9.162001,0.0356125,-0.2828375,-0.4967875
0.16095,1.00695,9.03495,0.2358125,0.0081124995,-0.98945
0.14205001,2.2780502,9.02595,0.286,-0.08855,-0.745525
0.60105,1.93305,8.7960005,0.6378625,-0.09295,-1.2194875
2.13105,-1.46895,10.042951,0.3642375,-0.1403875,-0.198275
0.90495,-4.7410502,11.920051,-1.041425,0.384175,2.8142126
0.010050001,-2.058,10.357051,-1.6919374,-0.0556875,5.2634997
0.24195,-1.6849501,11.52,-0.4943125,-0.3045625,2.3824625
0.79995006,-0.49305,11.953051,0.124025,-0.2099625,0.903925
0.48105,0.052050002,11.515051,0.41593748,-0.15619999,-0.5223625
0.26595002,-0.38295,11.553,0.4085125,-0.012375,-1.1935
0.45000002,-1.0309501,12.666,0.1013375,0.0584375,-0.3623125
-0.14505,-1.67295,13.321951,-0.196625,-0.06985,0.5196125
-0.42195,-2.11605,12.231001,-0.3287625,0.0587125,0.792275
-0.21195,-2.19195,10.88595,-0.298375,0.110825,0.802175
0.46905002,1.218,7.1680503,-0.1964875,0.1205875,0.419925
0.108,0.49995002,8.853001,0.93005,0.201025,-3.1150625
1.69305,-0.67695004,8.986951,0.879175,-0.1703625,-3.9923124
-0.17595,0.12105001,7.2040505,-0.3113,-0.81345,-0.055275
0.67095006,-0.99300003,9.03495,-0.1725625,0.1276,-0.5091625
2.3410501,-2.80695,12.628051,-0.18645,0.213125,0.0708125
0.48600003,-0.34005,10.44495,-0.2872375,0.065175,0.297825
-0.74505,-1.86705,11.842951,0.11,0.18493749,-0.6452875
-0.43905002,-0.34005,10.075951,-0.2919125,0.0301125,0.55275
-0.01305,-1.1560501,9.265051,0.0875875,0.22495,-0.80396247
0.37605003,-1.2709501,9.528001,-0.1838375,-0.051975,0.1942875
0.034050003,-0.67695004,9.15495,-0.135025,-0.2891625,0.6435
0.19395001,-1.3980001,9.801001,0.0209,-0.0067375,0.176825
0.44295,-1.5120001,9.916051,-0.06435,0.005775,0.3199625
0.30900002,-0.97605,9.583051,-0.0600875,-0.100375,0.350075
0.393,-0.99105006,9.67695,0.0539,-0.081125,0.0422125
0.12705001,-0.84705,9.81795,0.045649998,-0.036025,-0.2039125
0.75405,-1.539,10.243951,0.109037496,0.015675,0.0924
0.216,-0.87105006,8.99895,-0.047025,-0.1357125,0.1727
0.26595002,-1.23195,10.057051,0.033825,0.07975,0.0116875
0.22800002,-1.0720501,9.804001,0.0064625,0.0336875,0.4818
0.24195,-0.97605,10.033051,0.00385,0.059675,-0.138875
0.19695,-0.93600005,9.883051,0.047025,0.0342375,-0.2806375
0.18,-0.85695004,9.61695,0.0433125,-0.0097624995,0.1929125
0.40995002,-1.16295,10.28505,0.0572,0.0279125,0.0026125
0.12195001,-0.54105,9.784051,0.04235,0.0015125,0.1309
0.024,-0.84705,10.227,0.0935,0.100375,-0.0441375
0.094050005,-0.65295005,9.757951,-0.01485,0.00715,0.2140875
0.063,-0.79695004,10.075951,0.0592625,0.013062499,0.097075
0.16605,-0.66300005,9.922951,0.031075,0.0174625,-0.07865
-0.171,-0.483,9.564,0.082225,0.04675,-0.14795
-0.17805001,-0.67005,9.76305,0.0308,0.0341,0.1579875
0.039,-0.675,10.075951,0.0111375,0.041525,-0.1181125
0.024,-0.52905005,9.62895,-0.0158125,-0.0061875,0.00605
0.11805001,-0.70305,10.09095,0.018424999,-0.049225,0.4461875
-0.08205,-0.39000002,9.555,-0.0061875,-0.028875,0.11825
-0.051000003,-0.67905,9.96195,0.0369875,0.018424999,-0.3091
0.027,-0.651,9.79395,-0.0317625,0.0221375,-0.14739999
-0.049050003,-0.53295004,9.741,-0.0042625,0.0116875,-0.044275
0.015000001,-0.59805006,9.901951,0.0375375,0.0243375,-0.078099996
-0.16095,-0.64605004,9.8560505,-0.00275,0.0169125,-0.12045
-0.17595,-0.42795002,9.283951,-0.02365,0.0460625,0.045925
-0.06105,-0.591,9.721951,-0.00715,-0.0023375,0.056649998
0.003,-0.76995003,9.97395,-0.0209,-0.025024999,0.2255
-0.20205002,-0.60495,9.67695,-0.0237875,-0.0099,0.22275
-0.087000005,-0.49800003,9.435,-0.016224999,0.020075,-0.0793375
-0.030000001,-0.11895001,9.50895,0.0218625,-0.0275,-0.2794
-0.16395001,-0.112050004,9.717,0.1508375,0.0204875,-0.5641625
0.11805001,0.30795002,9.84405,0.2160125,0.1079375,-0.800525
-0.04695,0.44895002,9.492001,0.2688125,-0.0108624995,-1.1048125
0.058050003,0.72705,9.064051,0.276925,-0.0221375,-0.8003875
-0.22095,1.2919501,8.724,0.3128125,-0.0363,-0.6015625
-0.13005,2.50305,7.9099503,0.4541625,0.031625,-0.905025
-1.0639501,2.403,7.149,0.7074375,-0.1518,-1.0828125
0.52695,-1.7490001,8.533051,-0.0840125,0.35475,-0.3702875
0.57495004,-2.9850001,10.366051,-1.8464875,-0.1274625,4.7089624
-0.60705,-2.32905,11.364,-1.3629,-0.566775,4.0678
0.37605003,-1.96695,11.541,-0.3289,-0.04455,1.70775
0.18900001,-1.70895,13.710001,0.192775,0.140525,0.2083125
1.0870501,-1.21095,12.25905,0.1890625,-0.0215875,-0.345675
0.82605004,-0.98595005,10.821,0.198,-0.0067375,-0.7222875
-0.00795,-1.0309501,11.665951,0.0983125,-0.0488125,-0.272525
-0.48495004,-1.1730001,12.151951,-0.042075,-0.006875,0.1401125
0.65595,-2.637,12.73095,-0.051975,-0.0248875,0.5746125
0.88095003,-3.1330502,11.017051,-0.367125,-0.1819125,1.00265
-0.32895002,1.368,4.18095,-0.319825,-0.2806375,0.6524375
0.58905005,4.1119504,4.2340503,0.7676625,0.14685,-1.4645125
0.79305005,0.33,8.84595,1.657975,-0.141075,-5.49395
-0.46500003,0.98295003,9.969001,0.230725,-0.1309,-1.6058625
1.09905,-1.575,14.751,0.0774125,0.484825,-1.2945625
0.558,-0.49305,11.191951,-0.4906,0.38115,-0.033275
0.34995002,0.09,9.16695,-0.32835,-0.0820875,0.477675
0.79995006,0.11400001,9.01395,-0.1940125,-0.141075,0.69025
-0.07005,0.67695004,10.17195,-0.026124999,-0.2803625,0.3686375
0.09105001,0.049950004,9.75105,0.09075,0.0165,-0.0991375
0.26805001,0.39705002,8.985001,-0.075075,0.070675,0.2451625
-0.07305,0.13305001,9.576,0.0281875,-0.0790625,0.2638625
0.087000005,0.15705001,9.978001,-0.069025,0.005775,0.20927499
0.028950002,0.16905001,9.82005,-0.07645,0.004675,0.1881
-0.03705,0.33705002,9.672001,-4.125E-4,0.0224125,0.032175
0.28500003,0.009000001,9.918,0.0039875,-0.0031625,-0.0891
0.13005,0.117000006,10.122001,-0.0642125,-0.0977625,0.2652375
0.23295002,-0.028050002,9.703051,-0.0237875,-0.0171875,0.2242625
0.031050002,-0.040050004,9.9210005,-0.0534875,-0.0375375,0.02035
0.097950004,-0.040050004,9.784051,-0.0771375,0.0166375,0.3735875
-0.09,0.025950002,9.877951,-0.038775,0.0034375,0.1912625
-0.03195,-0.08805001,9.880051,-0.0232375,0.00495,-0.05335
-0.06105,0.016050002,9.688951,-8.25E-4,0.0367125,-0.1419
-0.010950001,-0.08805001,10.024051,-0.0070125,0.0251625,0.08855
0.052950002,-0.12705001,9.978001,-0.01155,-0.004675,-0.119075
0.14205001,-0.141,9.8230505,-0.009075,-0.0105875,0.0523875
0.034050003,-0.079050004,9.580951,-0.0251625,-0.0356125,0.13145
0.108,-0.15495001,9.96405,0.0050875,1.375E-4,0.146025
-0.01995,-0.052050002,10.06005,0.00715,-0.0165,0.115225
-0.042000003,0.010950001,9.538051,0.0078375,0.002475,-0.2514875
-0.15195,0.17205001,9.567,0.011825,0.0099,0.0243375
0.01905,-0.0139500005,9.744,0.0320375,0.056649998,-0.0748
0.015000001,0.08295,9.68595,0.0132,-0.0077,-0.31033748
-0.231,0.34605002,9.18105,0.0468875,0.00715,-0.4500375
-0.08205,0.31500003,9.801001,0.070675,0.0301125,-0.157575
0.01905,0.70995003,9.01605,0.109175,-0.0127875,-0.4354625
0.21105,0.67200005,9.45405,0.0961125,-0.0704,-0.248325
0.29700002,0.71505004,8.575951,0.07315,-0.13859999,-0.172975
0.18195,0.99000007,9.064051,0.10505,-0.18425,-0.546975
0.30705002,2.5510502,7.7830505,0.1882375,-0.0925375,-0.597025
0.96300006,2.0719502,9.910951,0.6787,-0.3141875,-1.334025
-0.47505003,0.41295,8.73795,0.3537875,-0.366025,-0.364375
-1.6020001,-2.283,9.232051,-0.479875,0.17325,0.9032375
-0.36495003,-2.8270502,10.012051,-1.725625,0.410575,5.1954374
0.42600003,-2.8459501,11.953051,-0.8364125,-0.094325,3.0696874
1.0870501,-2.7139502,13.087951,-0.22453749,-0.122099996,0.924275
0.54105,-0.67005,10.941001,0.042075,-0.1890625,-0.2726625
0.35205,-0.90195006,10.941001,0.3884375,0.04235,-0.9409125
0.39795002,-0.94005007,10.984051,0.2519,0.1606,-0.6439125
-0.60405004,-3.1590002,14.7630005,-0.0908875,-0.058575,-0.010725
0.37905002,-2.70495,11.527051,-0.2891625,0.1573,0.7929625
0.61095005,-2.8860002,10.75605,-0.3003,-0.2231625,0.4720375
-0.34800002,-1.8190501,7.7760005,-0.3199625,-0.2468125,1.1009625
0.49800003,0.528,7.6110005,0.039049998,0.069575,-0.0455125
3.282,0.31305,4.9950004,0.9414625,0.5072375,-3.6892624
-0.312,0.26505002,8.2570505,0.587675,-0.799425,-2.3728375
1.9609501,0.56205004,8.478001,0.1942875,0.32945,-1.4287624
1.4460001,-0.68895006,11.352,0.061325,-0.282975,-0.2305875
1.0540501,-1.6150501,11.52,-0.06545,0.14533749,0.0763125
0.26805001,-0.060000002,9.082951,-0.3443,0.258775,0.1904375
0.3,-2.25,10.965,-0.040425,0.31295,-0.4857875
0.14205001,-0.47595003,8.700001,-0.4008125,0.100375,0.8877
0.666,-1.3429501,9.954,0.0323125,0.0284625,-0.2035
0.537,-1.5510001,10.383,-0.08745,-0.1524875,0.5501375
-0.09705,-1.098,9.121051,-0.12705,-0.0383625,0.0391875
0.35895002,-1.5600001,9.8230505,-0.0493625,0.0925375,0.241725
0.64395005,-1.47195,10.14105,-0.03575,0.0180125,0.1610125
0.30900002,-1.4650501,10.2300005,0.0235125,-0.111375,0.4092
0.31605002,-1.1179501,9.700951,-0.0086624995,-0.034649998,0.1764125
0.40995002,-0.91200006,9.868051,0.0628375,-0.0265375,0.1340625
0.62700003,-1.0390501,10.134001,0.11605,-0.0631125,0.1632125
0.65895003,-0.96405005,9.9210005,0.097075,-0.060775,-0.0691625
0.57705003,-0.75600004,9.361051,0.0922625,-0.0983125,0.485375
0.19905001,-0.38505003,9.63105,0.116325,0.006875,0.0814
0.40005,-0.58095,10.29705,0.1898875,0.141625,-0.26125
0.039,-0.20595,9.92595,0.104775,0.043175,0.0708125
0.18495001,-0.18405001,9.564,0.1472625,0.1131625,-0.1868625
0.31395,-0.40395,10.033051,0.0471625,-0.021175,0.1656875
0.37395,-0.0139500005,9.361051,0.01595,-0.0297,-0.0264
0.45795003,-0.45900002,10.246051,0.1082125,-0.034649998,-0.0408375
0.18495001,-0.17205001,9.84405,-0.0411125,-0.0251625,0.0143
0.201,-0.294,9.769951,-0.0207625,0.0352,-0.1799875
0.20400001,-0.21495001,9.859051,-0.01485,0.0342375,-0.041525
0.109950006,-0.31605002,9.859051,-0.0028875,0.04455,0.1331
0.06705,-0.30795002,9.913951,0.0028875,0.055,-0.0675125
0.21105,-0.37605003,10.00695,-0.0066,0.023924999,0.07315
0.14595,-0.273,9.82005,0.023924999,0.0185625,-0.0323125
0.14400001,-0.273,10.074,0.02805,0.0191125,0.20253749
0.096,-0.043050002,9.85095,0.002475,0.0089375,-0.14685
0.075,-0.25605002,10.030951,0.0504625,-0.0193875,0.1813625
0.24705002,-0.25800002,9.916051,0.018975,0.0022,0.001375
0.048,-0.18405001,10.026,0.011275,0.0048125,-0.2006125
0.024,-0.072000004,9.741,-0.0097624995,0.00275,-0.18535
0.17505,-0.25095,9.693001,0.0317625,0.0400125,-0.0400125
0.261,-0.342,10.00905,-0.021724999,-0.0099,0.10945
0.060000002,-0.117000006,9.84405,-0.0242,-0.012375,-0.0226875
0.12195001,-0.22200002,9.765,0.0100375,-0.005225,0.0719125
0.21795002,-0.23400001,9.612,-0.0424875,-0.0149875,0.098725
0.24405001,-0.39900002,10.01895,0.0028875,-0.0199375,0.254375
0.15405001,-0.27,10.09305,-0.0226875,-0.023375,0.0512875
0.10605001,-0.165,9.75105,4.125E-4,0.012925,-0.1353
0.18705001,-0.16995001,9.595051,-0.012375,-5.5E-4,-0.169125
0.14205001,-0.28005,10.038,0.006875,-0.0237875,0.190025
0.21795002,-0.25800002,9.9210005,0.0017875,0.01265,-0.159775
0.13395001,-0.024,9.801001,0.023924999,0.01705,-0.2112
0.25395,-0.11505,9.576,0.0375375,6.875E-4,-0.0647625
0.31905,-0.165,9.97605,0.027775,-0.0264,-0.2407625
0.24000001,0.15705001,9.769951,0.034925,-0.029975,-0.14025
0.26805001,0.19095,9.624001,0.0930875,-0.004125,-0.2404875
0.16605,0.29595003,9.34605,0.0873125,0.0077,-0.120037496
-0.45105,0.20505,9.990001,0.1431375,0.056649998,-0.3320625
-0.11805001,1.6489501,8.09895,0.0639375,0.075625,-0.345125
-0.25995,1.15995,9.17895,0.3403125,-0.083325,-0.861025
-0.504,1.69605,8.523001,0.2275625,0.0237875,-0.7440125
-0.41505003,3.075,7.80495,0.4389,0.0884125,-1.0124125
0.19905001,2.115,8.545051,0.8438375,-0.287375,-1.3792624
0.38595003,-2.1660001,9.880051,-0.0209,0.1164625,0.4541625
1.3429501,-3.2260501,12.37695,-1.6682875,0.4841375,4.36645
-1.0020001,-0.55005,9.13305,-1.4994375,-0.3386625,4.3319373
0.71595,-1.4310001,11.079,-0.263175,-0.095975,1.2758625
1.09395,-0.50505,11.332951,0.0867625,-0.1632125,0.238425
0.56805,-0.03795,11.371051,0.30305,-0.1934625,-0.4873
1.6620001,-0.51195,12.228001,0.3702875,-0.0562375,-0.5522
1.422,-0.56895,11.886001,0.1265,-0.2542375,-0.45319998
0.16995001,-0.57405,12.3820505,-0.111237496,-0.1403875,0.6067875
0.25905,-1.43805,13.741051,-0.0114124995,0.1516625,0.729025
1.542,-2.7949502,10.122001,-0.17379999,0.089375,0.748275
0.058050003,0.51600003,5.57595,-0.4024625,-0.1766875,0.891
1.9849501,4.6090503,8.17605,0.3084125,0.0996875,-0.5385875
0.59895,1.28505,11.40495,1.28755,-0.39655,-5.7913623
-0.753,1.81605,8.03895,0.3839,-0.0697125,-2.398
-0.87495005,1.42095,7.4749503,0.1408,0.38995,-1.7655
-0.65505004,1.7490001,8.17095,-0.566775,0.4962375,0.61215
0.13905,0.92295,9.184051,-0.2794,-0.26015,0.386925
1.3579501,-0.08805001,10.825951,-0.2190375,-0.3708375,0.3518625
0.321,1.05495,9.768001,-0.3097875,-0.350075,0.9543875
0.84495,0.37500003,10.246051,0.0411125,0.0639375,0.247225
0.58005005,0.303,10.189051,-0.0488125,0.034649998,0.1651375
0.54405004,0.53295004,9.64605,-0.0889625,0.0202125,0.3194125
0.63705003,0.39705002,9.27,-0.066275,-0.0149875,0.365475
0.46500003,0.29595003,9.351001,-0.0446875,-0.0352,0.332475
0.51000005,0.32700002,9.375,-0.0405625,0.0264,0.633325
0.46005002,0.25095,9.8230505,0.0182875,0.0353375,0.6875
0.41895002,0.14295001,10.77105,-0.0031625,0.07425,0.2717
0.35205,0.36600003,9.403951,-0.0221375,0.0891,-0.281325
0.49095002,0.33195,9.379951,0.0600875,0.0452375,-0.496375
0.28305,0.34605002,9.873,-0.029975,-0.0171875,-0.0053625
0.537,0.282,10.086,-0.0075625,-0.014162499,0.007975
0.68700004,0.45600003,9.391951,0.0430375,-0.0064625,-0.2387
0.381,0.54705,9.916051,0.0774125,-0.054449998,-0.001925
0.60105,0.58305,9.45405,0.0290125,-0.020075,-0.0985875
0.50295,0.32700002,9.5449505,0.033,0.051975,0.0477125
0.33105,0.32700002,9.535951,-0.0154,0.0724625,0.0457875
0.28500003,0.423,9.717,-0.0235125,0.0444125,0.0012375
0.34005,0.363,9.555,-0.0374,-0.022,0.030524999
0.46905002,0.27195,9.14295,-0.0334125,0.0224125,-0.6235625
0.513,0.37695003,9.705001,-0.0174625,0.020624999,-0.308
0.34005,0.59505004,10.30605,0.08635,-0.088,-0.8305
0.13695,0.94500005,9.30795,0.10175,-0.0760375,-0.5897375
-0.19695,0.81795,8.98305,0.0620125,-0.025024999,-0.622325
0.50505,1.7320501,8.58495,0.0270875,0.0402875,-0.7525375
1.8030001,2.16105,10.206,0.328625,-0.3265625,-0.860475
0.9580501,1.93605,7.08405,0.531575,-0.516725,-1.005125
-0.25995,-1.2900001,8.40795,0.1606,-0.2380125,-0.09075
0.25905,-4.584,11.94795,-1.2148125,0.8358625,3.809025
0.26595002,-2.80305,11.39805,-1.298,0.0127875,4.5530376
0.28305,-2.3430002,11.42895,-0.364375,-0.1122,1.7840625
0.80505,-1.5960001,11.745001,0.070125,0.008525,0.2129875
0.66105,-0.85395,11.458051,0.237325,-0.034375,-0.7137625
-0.68595004,-1.59105,10.984051,0.1725625,0.0367125,-0.7007
0.77805007,-3.9250503,14.4210005,-0.0639375,0.19415,0.0121
0.63195,-3.0199502,12.86295,-0.3361875,-0.154,0.844525
0.112950005,-3.7860003,12.592051,-0.1720125,-0.0661375,0.3194125
-0.49905002,0.61395,6.0019503,-0.189475,0.09735,0.517
1.57305,0.54,10.95495,0.7640875,0.2726625,-1.4469125
3.4740002,0.64095,6.01905,1.1875875,0.0924,-4.0365877
0.89295006,-0.68895006,10.243951,0.69905,-0.8823375,-2.002
1.7809501,0.354,9.397051,-0.23485,0.05995,0.040975
0.56295,-0.66495,10.846951,0.06215,-0.1005125,-0.51645
0.48900002,-0.105000004,10.024051,-0.2088625,0.2693625,0.2140875
0.9289501,-1.266,11.06295,-0.09075,0.1276,-0.13213749
-0.078,-0.675,10.984051,-0.298925,0.0155375,0.6744375
0.075,-0.28695002,9.061951,-0.1247125,0.2080375,0.0512875
-0.078,-0.39900002,9.150001,-0.0169125,0.121825,0.017324999
0.048,-0.27495003,9.58605,-0.079475,-0.0224125,0.4857875
-0.042000003,-0.39900002,10.27995,0.002475,-0.052249998,0.45787498
-0.16905001,-0.36405003,9.98595,0.0353375,0.05775,0.356125
-0.38205,0.44505003,8.68305,0.0380875,0.0295625,0.16335
0.12495001,0.124050006,9.295951,0.2061125,0.0935,0.2138125
-0.43005002,0.282,9.736951,0.055,-0.0686125,0.3944875
-0.06105,0.13095,9.933001,0.164725,0.1549625,-0.21725
-0.022950001,0.033,9.966001,0.0565125,0.0078375,0.2250875
-0.11805001,0.47595003,9.34605,-0.0056375,-0.0532125,-0.0743875
0.048,0.16005,9.97095,0.072325,-0.047575,0.0254375
0.024,0.48495004,9.65295,0.01815,-0.0314875,0.0286
0.079050004,0.37695003,9.825001,0.111925,-0.0055,-0.3845875
-0.058050003,0.43695003,9.33405,0.0144375,-0.0669625,-0.358325
-0.126,0.79395,9.11205,0.0297,-0.02255,-0.298925
0.3,1.251,9.174001,0.122237496,0.006875,-0.17435
0.24195,1.0669501,9.580951,0.306075,-0.1500125,-0.934175
-0.12795001,1.74405,7.9990506,0.1879625,-0.044,-0.518375
0.06705,1.9810501,6.8239503,0.2728,0.1148125,-0.6799375
0.08205,2.6539502,10.026,0.5038,-0.43065,-0.5641625
-1.0210501,-0.675,10.491,0.271425,-0.2237125,-0.555775
0.855,-2.25195,12.05805,-1.0352376,0.476575,2.5722125
0.55995005,-2.2399502,11.38605,-1.2489125,-0.0374,3.7008126
-0.042000003,-1.2900001,12.43395,-0.6606875,-0.1703625,2.7537124
-0.18795002,0.25095,11.211,-0.0193875,-0.0364375,0.7695875
0.21300001,0.076050006,10.014001,0.3658875,0.0680625,-0.4587
0.097950004,-0.23400001,11.991,0.24419999,0.00275,-0.9081875
0.89100003,-2.17995,14.554951,0.1310375,-0.10395,-0.7016625
1.06095,-2.1420002,13.273951,-0.3223,-0.042625,0.642125
0.012,-1.6900501,10.620001,-0.363825,-0.0600875,0.3667125
0.82905006,-2.5150502,9.67905,-0.3460875,-0.0793375,0.8435625
-1.296,1.3279501,4.5210004,-0.31955,-0.1876875,0.5652625
-1.0159501,5.20305,2.9890501,0.981475,0.1238875,-2.4184875
0.29205,0.98805004,5.66295,1.5500375,-0.1802625,-5.484875
0.37905002,2.53395,7.9440002,0.2831125,-0.139425,-0.94875
0.99105006,0.016050002,13.86795,0.377575,-0.1419,-1.6372125
0.53895,-0.61695004,12.4129505,-0.4136,0.07755,0.7610625
0.63495004,0.60195005,9.526051,-0.5094375,0.026124999,0.92716247
0.70395005,0.17895001,8.746051,-0.17407499,0.0116875,0.2193125
0.35505003,0.13095,9.648001,-0.164175,-0.010725,0.0994125
0.31905,0.21495001,10.258051,-0.0924,0.122237496,-0.0132
0.67095006,-0.055050004,9.897,-0.004675,0.1439625,-0.279675
0.37605003,0.09705,9.504001,-0.0939125,-0.0127875,0.0457875
0.39795002,-0.081,9.8560505,-0.0075625,0.073975,0.0924
0.29700002,0.10005,9.69795,-0.039325,0.0451,0.1793
0.35505003,-0.093,9.7560005,-0.0020625,0.0287375,0.0295625
0.312,-0.069000006,9.660001,-0.0625625,-0.027224999,0.48839998
0.16800001,0.11895001,9.717,-0.069575,-0.0081124995,0.4195125
0.12705001,-0.47595003,10.179001,0.0339625,0.0768625,-0.297825
0.15795001,-0.13395001,9.28695,-0.1406625,0.0510125,0.2121625
0.21105,-0.37800002,9.7560005,-0.0424875,0.006875,0.20185
0.21795002,-0.36405003,9.98805,-0.064625,0.0125124995,-0.0999625
0.18495001,-0.402,9.98595,-0.031075,0.0187,-0.1808125
0.16095,-0.31800002,9.658051,-0.028324999,-0.011275,0.0889625
0.22095,-0.47805002,9.865951,-0.0061875,0.0028875,0.0369875
0.21300001,-0.24900001,9.448951,-0.0144375,-0.003575,-0.073425
0.19695,-0.33705002,10.275001,0.0562375,0.0224125,-0.0196625
0.22305001,0.040050004,9.67395,0.0917125,0.0209,-0.210375
0.19905001,0.27,9.09,0.072325,-0.0122375,-0.013475
0.26595002,0.109050006,9.993,0.103675,-0.01705,-0.1054625
0.33495003,0.14505,10.15995,0.056925,-0.039875,-0.0319
0.63495004,0.08505,9.757951,0.08415,-0.0226875,0.27307498
0.32595003,0.49995002,9.528001,0.0226875,-0.1197625,0.3388
0.25605002,0.45195,9.5140505,0.0625625,-0.075075,-0.131175
0.57000005,-0.033,10.443001,0.02035,0.0055,-0.1868625
0.20400001,0.21195,9.757951,-0.070125,-0.0246125,0.057475
0.20400001,0.022950001,9.5119505,-0.0309375,0.0768625,-0.3408625
0.32295,-0.46395,10.536,-0.0974875,0.0867625,0.254375
-0.066,-0.025950002,9.82005,-0.116875,0.0488125,0.27995
0.36705002,-0.30105,9.897,-0.0033,0.0944625,-0.0977625
0.132,-0.072000004,9.712951,-0.0235125,-0.0089375,0.10725
0.30705002,-0.124050006,9.99495,0.0490875,0.0187,0.1034
0.192,0.07095,9.7560005,0.014575,-0.0235125,0.1560625
-0.01995,0.07095,9.61695,0.064075,0.028875,0.117837496
-0.01995,-0.097950004,9.898951,0.026675,0.086075,-0.1819125
0.120000005,-0.009000001,9.981001,-0.0264,0.0479875,0.22013749
0.22995001,0.141,9.66195,0.00605,-0.0273625,-0.1375
0.264,-0.52905005,10.894951,0.0400125,-0.067925,-0.1269125
0.04095,-0.094950005,10.110001,-0.1189375,-0.054175,0.4013625
0.120000005,-0.18195,9.712951,-0.00165,0.0081124995,0.0823625
0.15795001,0.00405,9.339001,-0.0862125,-0.0471625,0.4104375
0.27795002,-0.16005,9.98805,0.021724999,-0.010175,-0.0853875
0.20400001,-0.21795002,10.041,0.0066,-0.01485,-0.411125
0.14895001,-0.069000006,9.67695,-0.006325,0.0165,-0.0331375
0.14595,-0.16005,9.877951,-0.0083875,-0.0119624995,0.1425875
0.22995001,-0.081,9.66705,-0.023924999,-0.007425,-0.0309375
0.18705001,-0.19095,9.835051,0.007975,-0.0033,-0.2486
0.14595,-0.25305,9.849001,-0.019524999,-0.001925,-0.0081124995
0.01695,-0.112050004,9.693001,-0.0108624995,0.0185625,0.202675
0.17505,-0.26505002,9.99705,-0.002475,0.03135,-0.0595375
0.19695,-0.294,9.93795,-0.02585,0.006325,0.19195
0.14895001,-0.294,9.658051,-0.0125124995,0.0114124995,0.1557875
0.048,-0.22500001,9.769951,-0.0070125,-0.0067375,0.020624999
0.09105001,-0.01905,9.291,0.0108624995,0.0176,-0.0705375
0.18705001,-0.33,10.206,0.0628375,0.0306625,-0.4296875
0.19395001,-0.24900001,9.636001,-0.0383625,-0.0050875,-0.291225
0.25605002,-0.06705,9.519,-0.0132,-0.0064625,-0.1274625
0.24705002,-0.045,9.8869505,-0.011,-0.063525,-0.17765
0.26595002,0.033,9.871051,0.1282875,-0.0595375,-1.008425
0.64695,0.58605003,9.246,0.10945,-0.0336875,-0.6659125
0.55305004,0.50205004,9.20505,0.105325,-0.18865,-0.468325
0.82395005,1.24605,8.128051,0.098725,-0.1848,-0.597575
1.4320501,1.8829501,9.330001,0.34553748,-0.2091375,-0.75116247
1.0030501,1.2780001,8.134951,0.38885,-0.4151125,-0.791725
0.9480001,-2.523,8.7289505,-0.0078375,-0.037125,-0.235125
1.3290001,-4.689,11.017051,-1.07085,0.5020125,3.173775
0.70395005,-2.11605,10.4740505,-1.251525,-0.5427125,4.8860626
1.281,-2.62995,12.496051,-0.0694375,-0.1574375,1.2769625
1.2760501,-0.69600004,11.079,0.0463375,-0.08085,-0.15455
1.5469501,-1.5150001,12.267,0.3947625,0.0779625,-1.4106125
1.00605,-1.6350001,12.099001,0.076175,0.0776875,-0.79365
0.84495,-2.94405,13.854001,-0.115775,-0.0066,0.26221249
1.9969501,-2.35995,11.223001,-0.166925,0.0419375,0.5918
1.9699501,-4.689,12.52305,-0.1749,-0.152075,0.4224
-0.89895004,-0.72705,8.269051,-0.4459125,-0.2729375,1.30625
1.7880001,0.351,9.076051,0.38995,0.564025,-0.08085
3.2029502,-0.13395001,9.01395,1.2384624,0.5229125,-4.987125
1.5660001,-0.51000005,10.275001,0.5600375,-0.4411,-1.81335
1.63995,-0.19395001,9.80805,0.042625,-0.098175,-0.38995
1.5679501,0.33705002,8.2570505,-0.042625,-0.045375,0.2322375
2.0680501,-0.58905005,11.10795,0.1731125,-0.1728375,0.0738375
0.75195,0.27,9.01605,-0.1447875,-0.083875,0.6978125
0.462,-0.20295002,10.09605,-0.023924999,0.32175,-0.1032625
1.3909501,-0.651,9.922951,-0.2322375,0.19635,0.6655
0.40500003,-0.31605002,9.889951,-0.1661,-0.030524999,0.2454375
0.40995002,-0.708,9.909,-0.0174625,0.18755,0.001925
0.29700002,-0.16695,9.208051,-0.097075,0.124025,0.2946625
0.57195,-0.69105005,10.45695,0.00605,0.056375,0.014162499
0.43605003,-0.58905005,9.84405,-0.050875,-0.062975,0.1931875
0.35700002,-0.77805007,9.97605,-0.0363,0.058025,0.0969375
0.27105,-0.67200005,10.053,-0.0803,0.0721875,0.3883
0.20895001,-0.56895,9.8869505,-0.02035,0.07315,0.100925
0.38805002,-0.72,10.086,-0.009075,-0.005775,0.172425
0.24405001,-0.26295,9.411,0.0380875,0.00495,-0.1434125
0.50295,-0.51705,9.79605,0.07755,-0.038775,0.022
0.34995002,-0.47805002,9.579,0.0268125,-0.069575,0.14355
0.50505,-0.78705,11.022,0.0422125,0.0056375,0.2244
0.058050003,-0.21300001,10.926001,-0.00715,0.0529375,-0.148225
0.35700002,0.13095,9.540001,0.1368125,0.120175,-0.1461625
0.35895002,0.19095,9.47595,0.190025,-0.0097624995,0.2872375
0.28005,0.22695,9.67395,0.1714625,-0.0286,0.0616
0.32295,0.25305,9.636001,0.0924,-0.02255,-0.0661375
0.38595003,0.15705001,9.913951,0.0482625,-0.0199375,-0.2063875
0.43395,0.12900001,10.024051,0.005775,-0.0158125,-0.2517625
0.39495003,0.186,9.67905,-0.0108624995,-0.0281875,0.100099996
0.273,0.17205001,9.877951,-0.0067375,-0.0143,-0.0891
0.30195,0.126,9.86295,2.75E-4,0.033825,0.0352
0.22995001,0.19605,9.721951,-0.0017875,0.0160875,0.1403875
0.28305,0.33405003,9.550051,0.00165,0.0188375,-0.0353375
0.23700002,0.22200002,9.604951,0.00715,0.0022,0.0328625
0.27600002,0.294,9.637951,-0.0017875,-0.0044,-0.009625
0.43605003,-0.057000004,10.000051,0.031625,-0.0075625,-0.1175625
0.20895001,0.33705002,9.430051,-0.0284625,-0.0045375,0.0732875
0.24000001,0.52095,9.580951,0.0485375,-0.0023375,-0.389675
0.076950006,0.58605003,9.84,0.0979,0.0176,-0.812625
0.052950002,0.957,9.102,0.1128875,0.045375,-0.6213625
0.076950006,1.3249501,9.078,0.1467125,-0.0048125,-0.613525
-0.034950003,1.50495,8.611951,0.2781625,-0.070675,-1.1380875
1.5490501,1.6290001,8.743051,0.2783,0.01155,-0.9180875
-0.94200003,1.026,8.87205,0.35585,-0.3551625,-0.29645
1.6140001,-2.6089501,9.8230505,-0.16775,0.4244625,-0.0572
0.31605002,-2.94105,9.868051,-1.3862749,-0.0730125,4.1196375
1.2589501,-2.66595,11.2570505,-0.95425,-0.3430625,2.834975
-0.006,-2.70195,12.148951,-0.411675,-0.302775,1.403875
-0.29805002,-3.1690502,14.02095,-0.0988625,0.1049125,0.5539875
0.39495003,-1.2589501,12.501,0.0790625,0.19139999,-0.06325
0.61095005,-1.5480001,12.891001,0.3609375,-0.0083875,-0.39325
0.273,-2.38395,14.067,0.1293875,-0.00935,-0.16499999
0.462,-2.3770502,13.05195,-0.089237496,-0.1040875,0.57915
1.3600501,-3.279,11.62005,-0.160875,-0.1034,0.4940375
1.9339501,-0.96000004,9.757951,-0.3081375,-0.308,0.60995
4.5600004,1.12695,15.607951,0.3801875,0.0471625,-0.874225
2.463,0.32700002,9.50205,1.410475,-0.0396,-4.82955
0.30900002,0.46605003,8.158951,0.5647125,-0.2864125,-2.4391124
-0.93495005,-0.74205005,8.97105,0.0086624995,0.35433748,-1.21165
-1.19295,1.1509501,6.852,-0.6842,0.1606,1.2413499
0.0049500004,-0.53295004,9.303,0.111375,0.013612499,-1.0616375
0.88095003,-1.182,11.565001,-0.4059,-0.300575,0.4904625
0.58005005,-0.040050004,10.014001,-0.25753748,-0.2992,0.4393125
0.675,-0.71295005,9.468,0.0287375,-0.183425,0.0452375
0.46905002,-0.402,8.746051,-0.071775,-0.1159125,0.3971
0.46905002,-1.029,9.880051,-0.0218625,-0.0012375,0.166925
0.132,-1.01205,9.90705,-0.0771375,0.0232375,0.8151
-0.09900001,-0.39000002,9.31995,-0.1073875,0.0581625,0.389675
0.060000002,-0.80595005,9.700951,0.031075,0.115225,-0.0548625
-0.039,-0.86100006,9.68595,0.027224999,0.13475,0.0034375
0.04095,-0.96405005,9.83205,-0.003575,0.11385,0.1199
-0.022950001,-0.35895002,9.53295,0.0050875,0.0199375,0.155925
0.109950006,-1.25205,10.58895,0.154825,0.02695,-0.1951125
-0.16095,-0.53805,9.088051,-0.077275,-0.113299996,0.6628875
0.23295002,-0.82800007,9.74895,-0.005225,0.0154,0.295075
-0.027,-0.63900006,9.339001,-0.0075625,-0.02255,0.0044
-0.078,-0.41595003,9.733951,0.11,0.1183875,-0.4158
0.16605,-0.91905004,10.17,0.1005125,0.0814,-0.1373625
0.28305,-0.63900006,9.459001,-0.082225,-0.0787875,0.264
0.25395,-0.88500005,10.033051,-0.02365,-0.0749375,-0.0482625
0.22995001,-0.9480001,10.000051,-0.0286,-0.04675,0.2487375
0.00795,-0.75600004,10.43595,-0.0251625,9.625E-4,0.0521125
0.06705,-0.71295005,10.057051,0.01815,0.0279125,0.0385
-0.13005,-0.42600003,10.065001,0.078375,0.0935,-0.0235125
-0.051000003,-0.28500003,9.612,0.131175,0.053075,-0.024475
-0.16395001,-0.117000006,9.595051,0.129525,0.005775,-0.0565125
-0.051000003,-0.16995001,9.868051,0.1623875,0.0279125,-0.0592625
-0.039,-0.16005,10.069051,0.100099996,0.0422125,-0.1109625
-0.28095,0.03795,9.64605,0.0400125,0.021175,-0.120175
-0.31905,0.20505,10.054951,0.0655875,0.0320375,-0.1255375
-0.14505,-0.31995,10.620001,0.0125124995,0.010175,0.01925
-0.11805001,-0.06705,9.739051,-0.014575,-0.0026125,0.0400125
0.060000002,-0.01905,9.7890005,0.017324999,-0.0088,-0.1332375
-0.28395,0.33900002,9.837001,0.058575,-0.0862125,-0.059125
0.031050002,0.162,9.877951,0.076725,-0.009625,-0.1857625
-0.126,0.26700002,9.99495,0.0565125,-0.0279125,0.22055
-0.01305,0.51900005,9.5449505,0.0554125,-0.0504625,-0.28875
0.108,0.44895002,9.339001,0.081125,-0.0438625,-0.3257375
0.024,0.39705002,9.97605,0.09295,-0.0119624995,-0.5072375
0.18900001,0.46800002,10.27305,0.089237496,-0.0083875,-0.5262125
0.52005005,0.82005006,8.944051,0.0677875,-0.0895125,-0.5691125
0.19395001,1.07895,8.7619505,0.0851125,-0.216975,-0.5663625
-0.04695,1.7539501,8.03505,0.1181125,-0.0842875,-0.8696875
1.1590501,3.2070003,8.17095,0.4472875,-0.043175,-1.0406
2.016,0.86295,10.359,0.857725,-0.5603125,-1.0333124
0.25605002,-2.59695,9.688951,-0.4103,-0.176825,0.7742625
0.34500003,-5.26095,13.52805,-1.543575,0.774675,3.4868624
0.30195,-3.7150502,12.355051,-1.7116,-0.2759625,5.4055376
-0.504,-2.17995,11.11995,-0.4778125,-0.40535,1.7601374
0.9480001,-1.6660501,11.508,0.22055,0.1346125,0.0290125
-0.042000003,-0.768,11.958,0.4569125,-0.0570625,-0.99233747
0.68700004,-1.9410001,13.729051,0.473,0.0845625,-0.7907625
0.62700003,-2.6089501,13.753051,0.0298375,-0.0768625,0.2011625
1.02705,-2.3500502,12.765,-0.0661375,0.0356125,0.5677375
0.855,-2.87205,12.276001,-0.0375375,-0.108899996,0.5245625
0.18195,0.08805001,7.06995,-0.0966625,-0.254375,0.4668125
2.832,1.146,8.17605,0.50655,0.1736625,-0.7162375
1.4250001,0.97095007,8.05395,0.9086,-0.40755,-4.0000124
0.18,0.13305001,10.708051,0.5006375,0.0653125,-2.851475
1.4080501,0.897,8.193001,-0.0380875,0.359975,-1.1017874
1.03005,1.0330501,9.222,-0.106837496,-0.46048748,0.42734998
0.49800003,0.83895004,9.117001,-0.0264,-0.2528625,0.3012625
0.23505001,1.1770501,9.00405,-0.1170125,0.18975,0.326975
-0.10605001,0.33900002,10.61505,0.1205875,0.3235375,-0.201025
0.28005,0.22695,10.342051,-0.1018875,0.3249125,0.1683
0.37395,0.43305,9.555,-0.17215,0.0482625,0.368225
0.18900001,0.15,9.76305,-0.0565125,-0.0495,0.0900625
0.35700002,-0.00705,10.030951,-0.0935,0.0446875,0.105875
0.012,-0.016050002,10.066951,-0.086899996,0.035475,0.4679125
-0.22800002,0.25800002,9.64605,-0.0741125,0.147125,0.0418
-0.37905002,0.27495003,9.556951,-0.0221375,0.121825,0.0793375
-0.45600003,0.30795002,9.555,0.00385,0.1439625,0.0878625
-0.058050003,0.09,9.94995,0.0441375,0.084425,0.0407
-0.216,0.22395001,9.736951,-0.0528,-0.07205,0.461175
-0.20895001,0.08505,10.086,0.0176,-0.0083875,0.2435125
-0.135,0.15495001,9.804001,-0.0031625,0.03575,0.1324125
0.08205,0.18405001,10.02105,0.005225,-0.019524999,0.059675
-0.24300002,0.354,10.075951,0.0114124995,-0.07755,0.2063875
-0.26700002,0.52605003,9.7560005,0.0636625,0.0202125,-0.0999625
-0.21195,0.30105,10.098001,0.1225125,0.0424875,-0.5269
-0.039,0.36105,9.72,0.0221375,0.00935,0.018424999
-0.11805001,0.40395,9.753,0.0149875,-0.0540375,0.0477125
-0.32895002,0.38700002,9.62895,-0.01925,-0.015125,0.2902625
-0.609,0.363,10.339951,-0.0160875,0.0493625,0.1142625
-0.29805002,0.44700003,9.933001,0.0279125,0.0688875,-0.044
-0.19305001,0.58605003,9.90705,0.05115,0.0466125,0.1054625
-0.384,0.96405005,9.591001,0.097625,0.0341,-0.20625
-0.15195,0.87105006,9.648001,0.163075,0.012375,-0.08415
-0.25500003,0.88305,9.658051,0.0617375,-0.045649998,0.174625
-0.063,0.54300004,9.715051,0.004675,-0.0116875,0.42405
-0.01305,-0.23700002,11.319,-0.095975,0.004675,0.0551375
-0.34800002,0.14295001,9.65505,-0.2519,-0.0078375,-0.1021625
-0.147,-0.076050006,9.68595,-0.1684375,0.0097624995,-0.106425
-0.18105,0.025950002,9.705001,-0.1419,-0.027224999,0.16115
-0.10395,-0.093,9.835051,-0.04455,-0.0108624995,-0.044275
-0.135,-0.10005,10.024051,-0.0460625,-0.038775,-0.2091375
0.01905,-0.117000006,9.865951,-0.0394625,-0.0116875,-0.030524999
-0.07005,-0.052050002,9.871051,-0.0182875,-0.04015,-0.1428625
-0.09900001,-0.03795,9.85095,0.0094875,-0.0100375,-0.0727375
-0.051000003,-0.14295001,9.8539505,0.00935,-0.0050875,-0.1205875
-0.16605,-0.10005,9.957001,-0.033,-2.75E-4,0.223025
-0.147,-0.055050004,9.966001,-0.0103124995,0.0202125,-0.1123375
-0.102000006,-0.028050002,9.82005,0.0070125,0.01925,-0.0023375
0.04095,-0.14295001,9.883051,-0.012925,-0.016224999,0.137225
0.076950006,-0.201,10.28205,-0.0044,-0.0372625,0.0983125
-0.11100001,-0.0139500005,9.715051,-0.033275,-0.0325875,0.133925
-0.147,-0.00705,9.65295,0.0119624995,0.0215875,0.2374625
-0.078,-0.14295001,9.89505,0.0048125,0.0248875,0.34265
-0.37395,0.08295,9.67905,-0.023924999,0.003025,-0.02255
-0.17805001,-0.10005,9.877951,0.036575,0.065725,-0.36905
-0.303,0.033,9.5449505,-0.0061875,0.0317625,-0.3053875
-0.16395001,-0.15495001,9.9210005,-0.015675,-0.011,0.0155375
-0.15900001,-0.064050004,9.67695,-0.03355,-0.016775,-0.0048125
-0.15900001,-0.09105001,9.78195,0.008525,-0.01485,-0.25575
-0.14895001,-0.08595,9.859051,0.01705,0.0033,0.0567875
-0.20700002,-0.064050004,9.583051,0.016775,0.0231,0.1203125
-0.051000003,0.0,9.712951,-0.0094875,-0.0243375,0.0171875
-0.14505,0.045,9.65295,0.0286,-0.021724999,-0.41085
0.10605001,-0.162,10.231951,0.0397375,-0.0037125,0.0804375
0.072000004,0.076050006,9.507001,-0.017875,-0.0592625,0.0812625
-0.025050001,0.033,9.70995,0.0407,-0.033,-0.2572625
-0.06105,0.17595,9.49695,0.0202125,0.0166375,0.0012375
-0.22095,0.162,9.531,0.0314875,0.0268125,-0.2602875
-0.039,0.049950004,10.12695,0.0526625,0.044,-0.1824625
-0.094050005,0.873,9.265051,0.055275,-0.0224125,-0.2209625
-0.17805001,0.75105006,9.865951,0.21505,-0.050049998,-0.74909997
0.015000001,1.31295,9.097051,0.23925,-0.012375,-0.6887375
-0.28605002,2.1679502,8.563951,0.3727625,-0.058849998,-1.0154375
-0.82005006,1.713,6.972,0.529925,-0.0462,-1.0583375
-0.31695002,-0.30105,7.3090506,0.2699125,0.15345,-0.6501
-0.22800002,-2.8890002,10.339951,-1.3908125,0.0985875,3.486175
-0.23295002,-1.5769501,10.663051,-1.6700749,-0.2935625,4.680225
-0.62595004,-2.3430002,11.674951,-0.5042125,-0.1049125,1.712425
0.80700004,-0.31095,11.190001,-0.155925,-0.1857625,0.4673625
-0.15900001,-0.75795,11.613001,0.3696,-0.1368125,-0.8347625
0.77295005,-0.75795,11.568001,0.1995125,0.00825,-0.6021125
1.30005,-1.8430501,14.03295,0.1529,-0.18865,-0.4371125
1.302,-1.386,11.89095,-0.179025,-0.2811875,0.3498
1.8430501,-2.973,10.96905,-0.209825,-0.233475,0.4125
2.42505,-3.801,11.92395,-0.37454998,-0.3122625,0.8342125
0.9889501,-0.91395,7.3999505,-0.1881,-0.1755875,0.8162
0.77805007,2.6869502,8.973001,0.2979625,0.07755,-0.7975
-0.966,-0.16695,7.6660504,1.04445,0.1793,-4.2730875
0.546,0.31500003,7.45305,-0.041525,0.7561125,-1.8071625
-0.9990001,-0.98295003,9.327001,0.1233375,0.2308625,-1.255375
-1.18605,1.1050501,6.32595,-0.594,0.147675,1.1595374
-1.176,0.70095,8.47305,0.0187,-0.0163625,-0.1714625
-0.42000002,0.24300002,9.46395,0.1359875,-0.017324999,-0.1601875
0.45495003,-0.33195,9.871051,-0.069299996,-0.091025,0.37454998
0.33795002,-0.10305001,10.087951,-0.14355,-0.18865,0.22893749
-0.13305001,-0.109950006,9.40905,-0.0704,-0.1566125,0.165275
-0.109050006,-0.20595,9.49695,-0.087037496,0.0017875,-0.0391875
-0.20895001,-0.26805001,9.825001,-0.055825,0.056375,-0.01815
-0.08205,-0.15,9.660001,-0.030524999,0.0089375,0.347325
0.16995001,-0.33,9.74895,-0.0132,-0.0132,0.2475
-0.102000006,-0.38295,9.76095,-0.0532125,-0.0413875,0.3532375
0.18495001,-0.59805006,10.00905,-0.1101375,-0.0166375,0.393525
-0.07305,-0.45900002,9.865951,-0.059125,-0.0284625,0.00275
0.076950006,-0.54300004,9.8560505,-0.04675,0.0089375,9.625E-4
-0.06795,-0.38700002,9.828,-0.0094875,-0.0237875,0.0286
0.04095,-0.32505003,9.568951,0.0143,-0.042075,0.073699996
0.094050005,-0.49005002,10.048051,0.0125124995,-0.0185625,0.2248125
0.14205001,-0.15795001,9.768001,0.0361625,0.052525,-0.0295625
0.058050003,-0.27705002,10.28505,0.133375,0.0380875,-0.04455
0.079050004,-0.052050002,9.588,0.0589875,0.008525,-0.0243375
0.08895,-0.15,9.865951,0.0501875,-0.0166375,-0.07095
0.16995001,-0.31800002,10.048051,0.0176,-0.001375,-0.0672375
0.031050002,-0.186,9.87495,-0.0411125,-0.0488125,0.307175
0.21300001,-0.31605002,9.79605,0.0092124995,0.009075,-0.052525
0.11805001,-0.294,10.041,-0.0155375,-0.023375,0.0694375
0.156,-0.24105,9.89505,0.011,0.0207625,0.0493625
-0.006,-0.10695001,9.780001,-0.02585,-0.0207625,0.063525
0.12705001,-0.27495003,9.86295,0.0075625,0.02035,0.0713625
0.177,-0.30405003,9.79905,-0.0187,-0.0061875,-0.0270875
0.15405001,-0.20295002,9.61905,-0.0218625,-0.0169125,0.1274625
-0.0010500001,-0.13905,9.847051,0.0111375,-0.0191125,0.253
-0.018000001,-0.33195,9.66705,-0.00935,0.0341,-0.26455
0.12495001,-0.58905005,10.00695,-0.067375,-0.001375,-0.2116125
0.11505,-0.49500003,9.595051,-0.110275,-0.0067375,0.05335
-0.042000003,-0.40905002,9.8539505,-0.0600875,-0.003025,-0.2629
0.11505,-0.52605003,9.816001,-0.010175,0.023924999,-0.0235125
0.094050005,-0.60495,9.784051,-0.0160875,0.007975,-0.0246125
0.24000001,-0.63900006,9.86295,-0.0275,-0.0059125,0.2448875
0.048,-0.61695004,10.069051,-0.0114124995,-0.0339625,0.089925
0.19695,-0.73005,10.08405,-0.0133375,0.0253,-0.08195
0.24900001,-0.74895006,9.80595,-0.0499125,-0.0309375,0.070125
0.27105,-0.69600004,9.703051,-0.045925,-0.0543125,0.1577125
0.22305001,-0.744,9.92805,-0.0308,-0.0339625,0.0042625
0.16305001,-0.78000003,9.828,-0.011,0.0240625,-0.2145
0.19395001,-0.68205005,9.588,-0.0221375,0.0342375,-0.218625
0.22305001,-0.88500005,9.918,-0.004125,0.0042625,-0.028875
0.261,-0.81795,9.9210005,-0.0171875,-0.0229625,0.0474375
0.120000005,-0.72,9.780001,-0.0094875,0.005225,-0.0732875
0.12705001,-0.71505004,9.658051,0.00605,0.015125,-0.056375
-0.079950005,-0.46905002,9.918,0.041249998,-0.0015125,0.308
-0.231,-0.34395,9.85095,0.107525,0.0842875,0.1557875
-0.23295002,-0.36405003,9.97395,0.106975,0.0939125,-0.0620125
-0.12105001,-0.261,9.801001,0.0738375,0.085525,-0.1131625
-0.102000006,-0.34005,9.969001,0.073425,0.042075,0.048675
-0.10395,-0.25095,9.72,-0.0075625,-0.0160875,0.1813625
-0.33600003,-0.19800001,9.87495,0.0495,0.0490875,-0.09955
-0.14895001,-0.23205002,9.64305,0.0405625,0.050875,-0.2233
-0.16605,-0.354,10.030951,0.01375,-0.020075,-0.1727
