@ HyperIMU - ianovir
@ Date:Tue Aug 15 09:40:12 GMT+03:00 2023, Sampling Rate:100ms

bma4xy_accelerometer.x,bma4xy_accelerometer.y,bma4xy_accelerometer.z,oem_pseudo_gyro.x,oem_pseudo_gyro.y,oem_pseudo_gyro.z
-0.40800002,-0.14595,9.84405,4.9875374,-6.7321377,5.51155
-0.36495003,-0.12195001,9.81105,3.5404875,-2.1357875,4.0275126
-0.42705002,-0.15795001,10.014001,2.0658,-0.555775,1.78915
-0.40800002,-0.12195001,9.65505,0.99825,-0.0171875,0.43175
-0.43005002,-0.21000001,10.048051,0.362725,0.018975,0.3950375
-0.41505003,-0.16695,9.801001,0.1684375,0.02475,-0.019524999
-0.46800002,-0.124050006,9.825001,0.10175,0.0424875,-0.0325875
-0.42000002,-0.097950004,9.724951,0.0595375,0.028875,-0.0369875
-0.45600003,-0.21000001,9.835051,0.03355,0.007425,0.06655
-0.32700002,-0.08805001,9.67905,-6.875E-4,0.008525,0.176
-0.384,-0.081,9.715051,0.0254375,-0.026124999,0.0647625
-0.41805002,-0.072000004,9.768001,0.041249998,-0.0056375,-0.353375
-0.41295,-0.076050006,9.90705,0.0221375,0.0042625,-0.147675
-0.42495003,-0.01905,9.78705,-0.0017875,0.0037125,0.2508
-0.44895002,-0.043050002,9.765,0.0042625,-0.0026125,-0.0028875
-0.48495004,-0.024,9.80595,0.022,-0.011275,-0.0831875
-0.34800002,-0.0139500005,9.703051,0.00605,-0.005225,0.0462
-0.35295,-0.043050002,9.801001,0.006325,-0.0105875,0.0017875
-0.34800002,-0.094950005,9.772051,0.0011,-0.0072875,-0.042075
-0.41505003,-0.049950004,9.792001,-0.00385,-8.25E-4,0.009625
-0.48705003,0.09705,9.744,-0.015262499,0.0083875,0.183425
-0.39405003,-0.11895001,9.80595,0.0097624995,0.0055,0.1342
-0.35805002,-0.024,9.79905,-0.015675,-0.006875,0.113575
-0.324,-0.08595,9.889951,0.009625,-0.01485,-0.1551
-0.513,0.045,9.696,0.0012375,-0.0070125,-0.1276
-0.86295,0.25095,10.371,0.0521125,0.0881375,-0.06985
0.02205,-0.13605,9.38895,-0.0763125,-0.055825,0.229075
0.45495003,-0.77805007,10.368,-0.0391875,-0.0738375,0.2536875
-0.49905002,0.08295,9.717,-0.115225,-0.142725,0.3004375
-0.65895003,0.29895002,9.957001,0.124025,0.09295,-0.2475
-0.28605002,0.22200002,9.507001,0.108625,0.025575,-0.139425
-0.28800002,0.16695,9.33195,0.098175,0.00495,-0.0045375
-0.42000002,0.10005,9.89505,-0.0537625,-0.0380875,0.2013
-0.17295001,0.028050002,9.727051,-0.001925,0.0424875,0.1104125
-0.37005,0.057000004,9.885,-0.024475,-0.0303875,0.01375
-0.23595001,-0.072000004,9.85095,-0.0056375,0.01155,-0.1255375
-0.3,-0.08595,9.901951,0.0031625,0.008525,-0.304975
-0.25500003,-0.08295,10.000051,-0.0121,0.0281875,-0.1736625
-0.44895002,-0.024,9.94995,-0.014712499,-5.5E-4,-0.1188
-0.29295,-0.028050002,9.792001,-0.0044,0.02365,0.0889625
-0.504,0.078,9.873,0.0064625,0.008525,0.22495
-0.18105,-0.031050002,9.583051,0.0268125,0.0229625,0.0325875
-0.30705002,-0.031050002,9.724951,-0.014025,-0.049775,0.001375
-0.34800002,0.04695,9.772051,-0.0059125,0.0012375,0.1571625
-0.291,0.009000001,9.7560005,0.008525,0.010175,0.0680625
-0.33900002,-0.048,9.922951,-6.875E-4,-0.0045375,-0.0290125
-0.384,0.021000002,9.84195,-0.0155375,-0.0015125,0.051975
-0.28095,-0.043050002,9.825001,0.0213125,0.013062499,-0.24035
-0.31695002,-0.0139500005,9.904051,-0.0015125,0.0031625,-0.033275
-0.312,-0.048,9.849001,0.001375,-0.0042625,-0.1841125
-0.279,-0.00405,9.733951,-0.01815,-0.015125,0.1579875
-0.39105,-0.0019500001,9.78195,5.5E-4,-0.006325,0.0037125
-0.33405003,-0.03795,9.708,-0.00495,0.014025,0.1315875
-0.384,-0.021000002,9.745951,0.0044,0.011275,-0.0757625
-0.33900002,-0.049950004,9.772051,-0.011,-2.75E-4,-0.012375
-0.351,-0.031050002,9.78195,-0.0198,-0.00825,0.1494625
-0.34305,-0.13905,10.005,0.0105875,0.0177375,-0.24419999
-0.35295,-0.124050006,9.74895,-0.0229625,0.00605,0.0671
-0.32700002,-0.14295001,9.696,-0.0235125,0.0015125,-0.0691625
-0.38895002,-0.28500003,9.865951,-0.0276375,5.5E-4,0.09405
-0.42495003,-0.165,9.59805,-0.060775,0.008525,-0.0603625
-0.31695002,-0.37305,9.918,-0.01375,0.0264,-0.1882375
-0.27405003,-0.37605003,9.825001,-0.0638,-0.0339625,-0.1615625
-0.25005,-0.51705,9.768001,-0.055275,-0.0281875,-0.1335125
-0.324,-0.45195,9.828,-0.0507375,-0.028324999,0.0820875
-0.27405003,-0.47805002,9.82005,-0.0534875,-0.023375,0.269775
-0.324,-0.43305,9.64305,-0.0209,0.0033,-0.013475
-0.33600003,-0.51195,9.849001,-0.002475,0.0083875,-0.09295
-0.279,-0.507,9.81795,-0.0056375,0.00715,-0.042075
-0.19305001,-0.53595,9.90705,-0.00715,-0.00715,-0.06765
-0.24300002,-0.52605003,9.990001,0.0012375,-0.0078375,-0.0119624995
-0.29805002,-0.44505003,9.918,-0.0226875,-0.02145,0.0829125
-0.31500003,-0.273,10.042951,0.0495,0.031075,0.034649998
-0.384,-0.061950002,9.792001,0.1238875,0.06215,-0.221925
-0.42000002,-0.13605,9.721951,0.09185,0.033,-0.016775
-0.33900002,-0.186,9.769951,0.048125,0.004675,-0.0097624995
-0.59505004,-0.19395001,10.111951,0.026675,0.001925,-0.22893749
-0.74805003,-0.08295,9.660001,6.875E-4,0.0694375,0.1461625
-0.27405003,-0.25800002,9.282001,-0.007425,0.0350625,0.1821875
-0.15705001,-0.13905,9.696,-0.017324999,-0.060775,0.01485
-0.24495001,-0.8880001,10.96695,0.0089375,-0.0611875,-0.1054625
-0.39405003,-0.50205004,9.77505,-0.1617,-0.0941875,0.163625
-0.64305,-0.51900005,9.94005,-0.0851125,0.0059125,0.1288375
-0.70005006,-0.26805001,9.67395,-0.038225,0.1359875,-0.02585
-0.49695003,-0.76605004,10.368,0.048675,0.130625,-0.1519375
-0.43905002,-0.54495,9.916051,-0.0826375,-0.077,0.1799875
-0.441,-0.39900002,9.574051,-0.014025,-0.0694375,0.109037496
-0.25695002,-0.423,9.969001,-0.0055,-0.0669625,-0.0218625
-0.19305001,-0.50505,9.966001,0.0155375,-0.067925,-0.125675
-0.18300001,-0.58395004,10.053,0.0056375,-0.0653125,0.056649998
-0.40605003,-0.40905002,9.804001,-0.0254375,-0.023924999,0.0994125
-0.40605003,-0.31995,9.76095,0.03025,0.0545875,-0.0012375
-0.38595003,-0.30600002,9.63105,0.0279125,0.0242,-0.0581625
-0.42705002,-0.31605002,9.80595,0.006325,-0.009625,0.017875
-0.30705002,-0.35205,9.87495,0.0232375,0.011,0.2014375
-0.36705002,-0.25800002,9.66195,0.0196625,0.01595,-0.0086624995
-0.35505003,-0.30795002,9.780001,0.0320375,0.0204875,-0.0083875
-0.372,-0.32805002,9.871051,0.0075625,-0.0075625,0.1172875
-0.31695002,-0.33495003,9.847051,0.0048125,-0.0089375,0.016224999
-0.42705002,-0.26505002,9.83205,2.75E-4,-0.0061875,-0.0512875
-0.432,-0.23400001,9.81105,0.023924999,0.0191125,-0.029975
-0.39600003,-0.21300001,9.78705,0.014162499,0.0017875,-0.0320375
-0.34605002,-0.23895001,9.84,0.0237875,-0.003575,-0.1414875
-0.23595001,-0.201,9.703051,0.0070125,-0.007425,0.016224999
-0.54705,0.069000006,9.49005,0.0116875,0.014575,-0.0191125
-0.33900002,-0.246,9.379951,0.126775,0.0785125,-0.4285875
-0.56100005,-0.49500003,8.04405,-0.014025,0.0331375,-0.0946
-0.62805,0.16905001,5.88,-0.147675,0.022275,0.0523875
0.043050002,-0.13095,5.1979504,0.0402875,0.14245,-0.321475
0.36900002,-1.9030501,10.182,-0.1340625,-0.0070125,0.1727
-0.28095,-1.1509501,12.74505,-0.3744125,-0.1747625,1.385725
-0.56100005,-0.78000003,13.102051,-0.086075,-0.11935,0.6257625
-1.0330501,0.29895002,12.657001,0.0664125,-0.1205875,0.40425
-0.29295,0.507,13.212001,0.390775,0.087725,-0.3447125
-1.3770001,0.102000006,15.003,0.1975875,-0.1387375,0.04675
-1.8780001,-0.30795002,13.782001,0.0231,0.144375,0.374
-1.2720001,-0.079050004,12.07005,-0.0889625,0.2024,0.0792
-1.179,-0.43095002,10.44705,0.02585,0.2233,-0.3777125
-0.33900002,-0.21000001,7.2400503,-0.116875,0.0554125,-0.5187875
-0.12795001,-0.69105005,5.48505,0.002475,0.0158125,-0.533225
0.31905,-1.4430001,6.9670506,-0.3223,-0.15235,0.2358125
0.49305,-0.46395,9.492001,-0.2941125,-0.3496625,0.358875
0.51495004,-1.08405,10.5379505,0.2795375,-0.3031875,-0.1815
-0.20895001,-0.009000001,9.625951,-0.0584375,-0.23045,0.35901248
-0.33600003,-0.70305,10.206,0.1458875,0.13915,-0.1442375
-0.64695,-0.43800002,9.753,-0.0155375,0.0856625,-0.0455125
0.039,-0.79005,9.813001,-0.042075,0.0358875,0.31239998
-0.06795,-0.71805006,10.053,-0.068475,-0.09185,0.31033748
-0.109050006,-0.675,10.053,-0.0218625,0.033,-0.026675
-0.74100006,-0.43305,10.375951,0.043449998,0.039875,-0.106975
0.036000002,-0.99300003,9.957001,-0.0083875,0.0853875,0.0732875
-0.17805001,-0.55005,9.17205,-0.19965,-0.1890625,0.39105
-0.44595003,-0.35205,9.753,0.0427625,-0.0484,0.045925
-0.50895,-0.21000001,9.772051,0.0515625,0.073699996,-0.0020625
-0.24000001,-0.00405,9.6,0.1777875,0.122375,-0.4123625
-0.45600003,-0.15495001,9.37005,0.088,0.01925,-0.1727
-0.597,-0.16995001,9.693001,-0.0061875,-0.00825,-0.1260875
-0.39105,-0.37605003,9.922951,0.0495,0.0468875,-0.0540375
-0.42195,-0.37800002,9.79605,-0.0297,-0.0438625,0.3460875
-0.40995002,-0.10695001,9.38895,-0.014575,0.0015125,-0.0732875
-0.21195,-0.22905001,8.86305,0.0207625,-0.0094875,-0.0653125
-0.079950005,-0.483,8.134951,0.1172875,0.00715,-0.1491875
-0.59895,-0.11895001,6.4450502,-0.0721875,-0.0331375,0.0356125
-0.15405001,-0.76605004,5.931,0.026124999,0.1799875,-0.5732375
-1.3219501,0.282,7.518,-0.20487499,0.0518375,0.4217125
-0.11805001,-0.064050004,9.540001,0.1601875,0.1192125,0.2842125
-0.13995,-0.12195001,12.619051,0.1533125,-0.1728375,0.21367499
-0.42705002,0.40395,13.003951,0.013612499,-0.131175,0.5966125
-0.00795,0.32205,16.12305,0.12979999,-0.1076625,0.083875
-0.61605,-0.75600004,17.587952,0.0699875,-0.09845,-0.029424999
-1.4110501,-0.79200006,12.469951,-0.236225,0.1139875,0.4277625
-0.58005005,-1.59105,12.640051,-0.323125,0.02475,0.1227875
-0.10605001,-1.6900501,10.96695,-0.3359125,-0.0301125,-0.0165
-1.3920001,0.14505,4.2049503,-0.1956625,-0.0746625,-0.4444
-0.025050001,-1.05795,3.69705,0.1978625,0.4442625,-1.2604625
-0.16605,-0.77805007,5.9350505,-0.4615875,-0.2542375,0.0446875
0.762,-3.1519501,11.326051,0.0334125,0.050049998,-0.3194125
-0.030000001,-0.16005,9.79395,-0.307175,-0.549175,0.9158875
0.606,-1.62495,10.72305,0.4037,0.142175,-0.874775
-0.11100001,-1.23,10.099951,-0.1535875,-0.25905,0.4811125
-0.05595,-1.17495,10.053,0.0077,0.0191125,0.1747625
-0.46095002,-0.98805004,9.6,-0.0094875,0.06765,-0.0187
-0.23805001,-0.87105006,9.295951,0.122099996,0.20047499,-0.1815
-0.23805001,-1.02705,9.7890005,0.089375,0.0650375,0.053075
-0.087000005,-0.82305,9.61005,0.029424999,0.01595,0.03795
-0.06105,-0.90195006,10.182,0.0565125,-0.0441375,0.0518375
-0.09,-0.651,9.66495,0.0372625,-0.0176,-0.2704625
-0.14895001,-0.75405,9.67695,0.0548625,-0.024475,5.5E-4
-0.11400001,-0.69600004,9.61905,0.0097624995,-9.625E-4,0.0108624995
-0.25005,-0.61200005,9.721951,0.008525,0.007425,-0.1084875
-0.15405001,-0.62895006,9.21,0.037125,-0.0094875,0.1692625
-0.303,-0.87105006,8.614051,0.0210375,0.0050875,-0.0776875
-0.42495003,-0.36795002,6.675,-0.0925375,0.00385,-0.0276375
-0.14205001,-0.51000005,4.8250504,0.0378125,0.1258125,-0.17655
-0.03195,-0.66300005,5.85405,-0.030524999,-0.0317625,0.1496
-0.58995,-0.19800001,8.125951,-0.108075,-0.1645875,0.38885
-0.04695,-2.12295,13.17405,0.179025,0.1243,0.2270125
0.68505,-1.6489501,14.62695,-0.1109625,0.003575,0.441375
0.27105,-0.76095,14.802001,-0.0292875,-0.2151875,0.3449875
0.37095,-1.4449501,18.59505,0.186725,-0.0906125,-0.3139125
-0.31905,-1.9150501,15.337951,0.051975,-0.0020625,-0.056375
-0.35505003,-1.1580001,12.360001,-0.17613749,0.022275,0.3260125
-0.31905,-0.88500005,11.137051,-0.1082125,0.0116875,0.548075
-0.27405003,-0.37605003,5.5210505,0.1005125,-0.0210375,-0.5104
0.18495001,-1.3470001,3.2310002,0.165275,0.053625,-0.7379625
-1.0999501,0.58605003,3.3769503,-0.6961625,-0.6446,0.9642875
-1.69095,-0.82605004,8.62605,0.15125,-0.1150875,-0.7874625
-1.00395,0.45600003,8.382,0.0455125,0.3804625,-0.18205
-0.27195,-0.88095003,10.354051,0.4310625,0.4720375,-0.95865
-0.015000001,-0.78495,9.15705,-0.1601875,-0.14025,0.3047
0.06705,-0.80205005,9.44505,-0.014162499,0.0254375,0.01375
0.0049500004,-0.79200006,9.385051,-0.037125,-0.02475,-0.011275
0.177,-0.90405005,9.82995,-0.0169125,0.0097624995,-0.0930875
-0.0010500001,-0.94500005,10.255951,0.014025,-0.0086624995,-0.249975
-0.25500003,-0.61695004,9.591001,0.0114124995,0.014575,-0.0691625
-0.034950003,-0.67005,9.588,0.0438625,0.028324999,0.1425875
-0.027,-0.615,9.48495,0.0133375,0.0121,0.1588125
-0.102000006,-0.71805006,9.733951,0.051975,0.0158125,0.0039875
-0.09,-0.77505004,9.7560005,0.0411125,0.0534875,-0.1252625
0.010050001,-0.70095,9.693001,0.0023375,0.035475,-0.2545125
-0.05595,-0.79200006,9.229051,0.00715,-0.014162499,0.1120625
-0.28095,-0.67695004,8.113951,-0.0248875,-0.0039875,0.1252625
-0.16395001,-0.78000003,6.97695,-0.067375,0.0308,0.194425
0.20595,-0.95505005,6.3810005,-0.07205,0.135575,-0.11165
-0.0010500001,-0.81600004,5.919,-0.08305,-0.0386375,0.0221375
-1.30305,-0.105000004,8.475,-0.045375,-0.0408375,0.10395
-0.61605,-1.48395,12.778951,-0.0097624995,0.1370875,0.5116375
-0.67800003,-0.39495003,12.58695,0.0275,0.0545875,0.3155625
-0.97800004,0.09705,17.286001,0.3799125,-0.0122375,-0.324775
-0.27405003,-0.22500001,17.55195,0.23567499,-0.0686125,0.12155
-0.717,-2.3860502,14.550001,0.0378125,-0.0342375,-0.1060125
0.22305001,-1.48395,10.837951,-0.394075,0.0584375,0.828025
0.261,-1.11,7.8859506,-0.2960375,-0.1535875,0.3950375
-1.176,0.22395001,4.58295,-0.172975,-0.1651375,-0.12925
1.9459502,-1.2250501,5.4229503,0.2206875,0.3381125,-1.02025
0.55995005,0.11400001,8.158951,-0.3669875,-0.844525,0.1695375
1.53495,-3.25305,13.099951,0.1956625,0.1485,-0.0383625
-0.96105003,-0.01905,11.09595,0.082775,0.14685,-0.0259875
0.95295006,-1.3590001,10.081051,0.4203375,0.3689125,-0.9249625
-0.123,-0.56505,9.95205,-0.123475,-0.33825,0.4114
0.20400001,-0.80205005,9.8230505,0.085525,0.0218625,-0.1793
0.18,-0.96900004,9.753,-0.00275,-0.055,0.0933625
0.0049500004,-0.711,10.1320505,-0.0369875,-0.0507375,0.1772375
0.010050001,-0.93105006,10.174951,0.061325,0.061325,-0.056925
-0.10395,-0.615,9.46605,-0.02915,0.062975,-0.176275
0.060000002,-0.76995003,9.65505,0.0209,0.0268125,0.14465
0.07005,-0.744,9.969001,0.0303875,0.021175,-0.0499125
0.055050004,-0.82305,10.069051,0.0466125,0.0155375,-0.208725
-0.087000005,-0.63405,9.8560505,-0.0270875,-0.020075,0.0295625
-0.039,-0.711,9.871051,0.007975,-9.625E-4,-0.0495
-0.030000001,-0.67005,9.76095,0.0020625,0.00715,-0.116875
0.010050001,-0.76605004,9.538051,-0.0056375,-0.0199375,0.1309
-0.3,-0.60105,9.306001,-0.0528,-0.0374,0.0823625
-0.078,-0.735,10.6369505,0.013475,0.0598125,-0.1573
-0.25995,0.45195,8.31,0.0760375,0.0625625,0.1969
-0.33600003,0.049950004,10.419001,0.3641,0.145475,0.022824999
-0.49905002,0.09,10.6699505,0.23333749,0.116325,0.0369875
-0.38205,0.124050006,10.078951,0.116875,0.083325,-0.0691625
-0.34095,0.15,9.459001,0.0785125,0.047025,-0.126775
-0.36195,0.19095,9.49005,0.0033,-0.0567875,-0.169125
-0.18795002,-0.045,9.82995,-0.0468875,-0.0572,-0.0972125
-0.39795002,0.033,9.784051,-0.0757625,-0.0609125,0.31405
-0.35505003,-0.22005,9.813001,-0.041249998,0.023924999,0.017324999
-0.19500001,-0.29895002,9.8539505,-0.1007875,-0.0086624995,-0.0628375
-0.22800002,-0.40905002,9.97395,-0.083875,-0.008525,0.2701875
-0.36495003,-0.33495003,9.85095,-0.0644875,-0.0160875,0.0710875
-0.40095,-0.57900006,9.92805,-0.0350625,0.0367125,-0.081125
-0.39600003,-0.59295005,9.94005,-0.1282875,0.029424999,-0.04675
-0.33600003,-0.68895006,9.79395,-0.06985,0.0539,-0.230725
-0.43005002,-0.57195,9.739051,-0.0457875,0.01595,-0.0955625
-0.40605003,-0.483,9.59805,-0.0033,0.00715,-0.0521125
-0.41505003,-0.49500003,9.84,-0.0176,-0.044,0.2457125
-0.27600002,-0.62700003,9.768001,0.0099,-0.0125124995,-0.006325
-0.33405003,-0.49500003,9.79605,0.0185625,-0.0317625,-0.0946
-0.19500001,-0.57705003,9.825001,0.0262625,-0.0088,-0.324775
-0.26700002,-0.54495,9.282001,4.125E-4,-0.02475,-0.29535
-0.19695,-0.462,8.592,-0.0787875,-0.0433125,0.3810125
-0.32205,-0.33195,6.8569503,0.0671,0.01595,-0.252725
-0.39105,0.016050002,4.4370003,0.0548625,0.0983125,-0.2773375
-0.43395,-0.51405,5.88495,-0.0411125,0.05995,-0.369325
-1.11195,-1.2780001,11.674951,-0.231825,0.0895125,0.62067497
-0.71895003,-0.873,14.074051,-0.3246375,-0.015675,1.013925
-1.04205,-0.064050004,13.7029505,0.1755875,-0.05775,0.0771375
-0.066,0.51405,13.2310505,0.38541248,0.0097624995,-0.1271875
-0.60705,0.72,15.715951,0.34155,-0.1027125,-0.279125
-0.93195003,-0.89295006,14.656051,0.20955,-0.0042625,-0.3609375
-0.71400005,-1.6699501,13.012951,-0.313225,0.1115125,0.55
-0.80100006,-1.1389501,12.208951,-0.3480125,0.0169125,0.12155
-1.011,-0.93600005,10.861951,-0.1670625,0.0413875,-0.30415
0.64695,-0.64605004,3.9580503,0.0363,0.2561625,-0.6953375
0.71595,-0.63900006,4.44705,-0.057475,-0.2288,-0.3465
0.031050002,-0.27705002,6.972,-0.0743875,-0.491425,-0.0878625
0.80895007,-1.338,9.883051,-0.3557125,-0.2080375,1.3618
0.47895002,-0.46905002,9.89505,0.092675,0.0664125,0.042625
0.41205,-0.82095003,9.6,0.3771625,0.205975,-0.6582125
0.003,-0.85395,10.60995,0.0653125,0.0028875,-0.080025
-0.039,-0.48105,9.670051,0.1040875,0.10065,-0.070125
-0.00795,-0.79005,10.191001,-1.375E-4,0.007425,0.350075
-0.24795002,-0.33,10.014001,0.0125124995,0.0089375,0.19373749
-0.171,-0.43800002,9.918,0.0941875,0.020075,0.118525
-0.31500003,-0.15495001,9.736951,0.050049998,0.0155375,-0.1227875
-0.27600002,-0.10305001,9.63405,0.1434125,0.0908875,-0.1236125
-0.42495003,-0.061950002,10.024051,0.09625,0.0468875,-0.402875
-0.15405001,-0.20595,9.933001,0.0397375,0.003575,0.0254375
-0.15705001,-0.072000004,9.724951,0.032175,-0.02805,-0.296725
-0.291,0.093,9.495001,0.0097624995,-0.06655,-0.1247125
-0.28095,-0.08595,9.729,0.0380875,-0.01485,-0.1816375
-0.11595,-0.282,9.84405,-0.0028875,-0.0419375,-0.0253
-0.043950003,-0.26505002,9.68595,-0.079475,-0.022275,0.199925
0.06705,-0.61995006,10.167001,-0.0375375,-0.026675,0.013062499
-0.04695,-0.22200002,9.733951,-0.089237496,-0.061875,0.2828375
0.079050004,-0.47805002,9.861,-0.006325,0.0202125,-0.0482625
-0.030000001,-0.48795003,9.66495,-0.0506,-0.0037125,0.113025
0.08895,-0.040050004,8.568001,0.00715,0.0314875,-0.4310625
0.0049500004,-0.62700003,6.73005,0.1142625,0.0044,-0.4665375
-0.087000005,-0.624,6.32805,-0.1747625,-0.0180125,0.1577125
0.058050003,-0.96900004,7.1950502,-0.0895125,0.2044625,-0.033275
0.261,-0.35895002,8.632951,-0.076725,0.1596375,0.35694999
0.28305,-1.09095,11.521951,0.1538625,-0.1370875,0.1183875
-1.3369501,0.83205,12.460951,-0.028324999,-0.1307625,1.012275
0.29700002,0.90900004,15.235051,0.2825625,-0.0224125,0.2369125
0.07005,-0.39000002,20.16105,0.39421248,0.0196625,-0.15015
0.024,-0.79395,16.285952,-0.0427625,-0.0037125,0.28861248
-0.513,-1.1509501,12.898951,-0.2699125,0.0341,0.3480125
0.89595,-1.23705,10.773001,-0.223025,0.07205,0.2206875
-0.85095006,0.19800001,7.3549504,-0.2864125,-0.2209625,0.1662375
0.45795003,-0.27,4.566,0.17379999,0.11715,-0.7748125
0.82395005,-1.0000501,6.4860005,0.1131625,-0.1683,-1.1209
-1.0159501,-0.37605003,6.2590504,-0.2915,-0.47808748,-0.0154
0.35505003,-0.43800002,7.2739506,-0.441925,-0.253275,1.0813
-0.82905006,-0.43095002,10.287001,0.116875,0.19415,-0.0616
0.33795002,-1.1179501,10.086,0.055275,0.2228875,0.103125
-0.58500004,-0.61200005,9.74895,-0.0548625,-0.11165,0.42955
-0.54,-0.51000005,9.1380005,-0.01705,0.1076625,-0.0449625
-0.79800004,-0.462,9.109051,0.01265,0.100925,-0.23333749
-0.441,-0.52605003,9.399,-5.5E-4,0.0848375,0.0699875
-0.24300002,-0.59595,9.80805,0.07315,0.087175,-0.337425
-0.44400004,-0.69105005,10.053,0.0792,0.0297,-0.27101249
-0.693,-0.55005,10.17195,0.0033,0.0374,0.09185
-0.51105005,-0.43095002,9.535951,-0.0050875,0.02145,0.043449998
-0.47505003,-0.37305,9.415951,0.0166375,0.0165,0.00825
-0.291,-0.61005,9.865951,0.0207625,-0.0023375,-0.124437496
-0.54405004,-0.32505003,9.835051,-0.0176,-0.0468875,0.029424999
-0.47700003,-0.80895007,9.990001,0.045649998,0.0270875,-0.114125
-0.63495004,-0.50505,9.607051,-0.0314875,0.0716375,0.0297
-0.43395,-0.39900002,9.559051,-0.0119624995,0.031625,-0.10725
-0.26895002,-0.70095,10.017,-0.0022,-0.0798875,-0.0386375
-0.20505,-0.73200005,9.8230505,-0.0290125,-0.0759,0.0518375
-0.52995,-0.35595003,9.54705,-0.0033,-0.0455125,-0.121825
-0.16905001,-0.51705,9.595051,0.0545875,0.015675,-0.0452375
-0.32895002,-0.33495003,8.413051,0.07205,-0.0493625,-0.16665
-0.46500003,-0.86595005,7.5420003,0.0055,0.0499125,-0.1252625
-1.0180501,0.42495003,6.5869503,-0.1887875,0.0710875,0.2685375
-0.22095,-0.043050002,6.4810505,0.488125,0.3009875,-1.1980375
-1.2360001,-0.52905005,8.10705,-0.0339625,-0.1131625,0.1230625
-1.1520001,-1.3260001,10.29705,-0.5649875,-0.108625,1.510025
-1.5979501,0.60495,11.09895,-0.4214375,-0.144925,1.4265625
-1.2240001,0.54,11.853001,0.495,0.100925,-0.460625
-0.68295,-0.19395001,13.650001,0.522775,0.09735,-0.552475
-1.131,0.56700003,15.325951,0.21573749,0.0638,-0.0174625
-1.00605,-0.12705001,15.498001,0.14973749,-0.0495,-0.309375
0.35700002,-0.87795,13.477951,-0.1332375,-0.050325,0.0034375
-0.38205,-0.483,12.216001,-0.3232625,-0.32725,0.34141248
-1.57095,0.231,6.6610503,-0.1676125,-0.0565125,0.089375
-1.02795,0.19800001,5.3370004,0.0251625,0.32945,-0.10505
0.50100005,-0.624,5.1720004,0.02475,0.0191125,-0.7264125
-1.8730501,-0.37305,5.00895,-0.2979625,-0.319825,0.20899999
0.69705003,-0.024,8.21205,-0.17545,0.167475,0.9153375
-1.14795,0.078,9.94995,0.3064875,-0.2998875,-0.1412125
0.18195,-0.62895006,10.28505,0.3262875,0.209825,-0.424875
-0.40095,-0.009000001,10.057051,-0.0286,0.0237875,0.0303875
0.252,-0.52905005,9.95895,0.132825,0.126225,-0.304975
0.003,-0.47400004,10.017,-0.0881375,-0.08745,0.339625
-0.17295001,-0.07395,9.574051,-0.0495,-0.02035,0.0561
-0.10395,-0.36600003,9.97605,0.0653125,0.0389125,-0.1868625
-0.003,-0.23895001,9.780001,0.016224999,0.033825,-0.3113
-0.10605001,-0.28905,9.97605,0.05335,0.0154,-0.4404125
-0.066,-0.15495001,9.780001,0.024475,0.02145,0.1984125
0.043050002,-0.22005,9.84405,0.001375,-0.0319,0.1967625
-0.042000003,-0.15300001,9.79905,0.0105875,-0.0686125,0.0092124995
-0.042000003,-0.162,9.780001,0.01045,-0.0270875,0.0539
0.12195001,-0.26295,9.8539505,-0.0207625,-0.0301125,-0.2633125
0.10305001,-0.246,9.52095,-0.0078375,-0.009075,-0.01375
0.02205,-0.22905001,9.8230505,-0.0193875,-0.029424999,0.163075
0.0049500004,-0.17205001,9.969001,0.0044,-0.0143,4.125E-4
0.15795001,-0.41895002,9.715051,0.059675,0.0455125,-0.2039125
0.216,-0.097950004,9.247951,-0.0598125,-0.0361625,0.1219625
-0.049050003,-0.31305,8.11095,0.0031625,-0.018975,-0.4170375
0.20895001,0.025950002,5.1720004,-0.014575,0.10065,0.02145
0.34005,0.18795002,5.83995,0.0587125,-0.025575,-0.2264625
0.62295,-0.83295006,8.17095,0.0517,-0.08855,-0.0749375
0.11805001,-1.3429501,11.034,-0.2135375,-0.0847,0.4444
0.17505,-0.32505003,12.135,-0.27719998,-0.133375,0.8105625
-0.15195,0.07395,12.714001,0.095837496,0.045375,-0.329175
0.67305005,-0.42600003,14.839951,0.2256375,0.1881,-0.373725
0.29700002,-0.94500005,18.427952,0.0627,0.0724625,-0.2360875
-0.030000001,-0.45405003,14.749051,0.0314875,0.0650375,-0.158675
-0.18795002,-0.648,10.866,-0.177925,-0.1783375,0.406725
-1.023,-0.076050006,10.48095,-0.206525,-0.091025,0.56993747
-1.0489501,-1.3450501,8.953951,-0.0138875,0.1018875,0.0081124995
0.49305,-0.112050004,5.466,-0.2050125,0.24213749,0.302775
0.21795002,-0.60495,5.3830504,0.0672375,0.0171875,-0.7569375
-0.35295,0.294,5.4210005,-0.24447499,-0.341825,0.4871625
0.76605004,0.60495,8.089951,0.2558875,-0.310475,-0.0661375
-0.30705002,-0.15495001,10.80195,0.4422,0.0259875,-0.82225
0.675,-0.90405005,10.43295,0.15785,0.4081,-0.397375
-0.25005,-0.18900001,9.92595,-0.180675,8.25E-4,0.0881375
0.34995002,-0.79005,9.40905,-0.0207625,0.0968,-0.384725
0.10605001,-0.59295005,10.053,-0.14093749,-0.0900625,0.4552625
0.36900002,-0.37800002,9.736951,-0.0633875,-0.039325,0.1903
0.18900001,-0.40395,9.78705,0.0237875,-0.0083875,-0.355575
0.35505003,-0.522,9.98805,0.0556875,0.0301125,-0.1700875
0.32805002,-0.27495003,9.595051,0.0221375,-0.0086624995,-0.079475
0.58695,-0.56205004,9.933001,0.0581625,-0.011,0.1249875
0.312,-0.27,9.705001,0.0119624995,-0.08635,0.18865
0.32805002,-0.33,9.89505,0.0451,-0.014575,0.0169125
0.24900001,0.0139500005,9.117001,0.022275,0.0055,-0.1104125
0.312,-0.20805001,8.93505,0.0523875,-0.0092124995,-0.19525
0.24705002,-0.651,8.391001,0.00605,0.0325875,0.084425
0.22305001,-0.162,7.5130506,-0.132275,0.0661375,-0.1463
0.36405003,-0.82605004,7.6489506,0.022275,0.044275,-0.1243
0.22095,-0.28905,6.5119505,-0.116875,0.0160875,0.235125
-0.68805003,-0.30105,8.07495,0.072325,0.05335,1.375E-4
-0.83205,-0.62895006,11.54895,-0.1595,0.2047375,0.7062
0.381,-0.17205001,12.80805,-0.164175,-0.043725,0.5572875
0.56805,-1.194,13.15005,0.1705,-0.1375,-0.1379125
-0.27405003,0.492,12.583051,0.0341,-0.005225,0.19813749
-0.24495001,-0.45900002,14.691001,0.236225,0.102575,-0.0319
-0.97005004,-1.7899501,14.623951,-0.1742125,-0.1034,0.1606
-0.09705,-1.9740001,12.954,-0.2721125,0.12155,-0.0518375
-0.60195005,-1.6560001,10.528951,-0.243375,0.1087625,-0.0862125
-1.7479501,-0.282,6.2179503,-0.2171125,0.2061125,-0.29479998
-0.77205,-0.71505004,6.1410003,-0.0187,0.3576375,-0.7079875
0.13005,-1.3429501,7.3330503,-0.1309,-0.1122,-0.4224
-0.43695003,-1.23195,6.8280005,-0.1274625,-0.3614875,-0.2932875
0.41700003,-1.1850001,9.504001,-0.033275,-0.1577125,0.6793875
-0.43695003,-0.75600004,9.330001,0.2347125,0.062975,0.0581625
-0.31905,-1.5120001,9.981001,0.0473,-0.1054625,0.238975
-0.51105005,-1.05795,9.913951,-0.0540375,0.0776875,0.1445125
-0.24300002,-1.3620001,9.423,0.0922625,0.16115,-0.2374625
-0.31905,-1.16805,9.8539505,-0.0284625,0.0367125,0.1018875
-0.12105001,-1.4479501,10.134001,0.0485375,0.050325,-0.2398
-0.33600003,-1.1580001,9.696,-0.0303875,-0.0361625,0.0111375
-0.24795002,-1.3279501,10.09305,0.0350625,0.0042625,0.08415
-0.33405003,-1.26795,9.816001,0.0092124995,-0.0089375,0.0985875
-0.51105005,-1.0720501,9.052051,0.0017875,0.02365,-0.093225
-0.303,-1.26795,9.67395,-0.0122375,-0.0072875,-0.2696375
-0.15705001,-1.23705,9.871051,-0.010175,-0.014712499,-0.0180125
-0.35805002,-1.06005,9.65505,0.023375,-0.0339625,0.009075
-0.23295002,-1.194,10.12005,0.02255,0.0034375,0.02805
-0.18300001,-1.16295,9.777,0.0292875,0.0177375,0.026124999
-0.06105,-1.2250501,9.813001,0.0510125,-0.008525,0.169675
-0.11100001,-1.08405,9.715051,0.01155,-0.0416625,0.093775
-0.17295001,-0.97395,9.66195,0.01155,-0.0570625,0.0977625
-0.21195,-0.82605004,8.868,0.071775,0.0422125,-0.396
-0.079950005,-0.98295003,8.805,0.0367125,0.0188375,-0.132825
-0.00795,-0.864,7.4749503,-0.0345125,-0.0620125,-0.0012375
0.28500003,-1.0339501,7.8,0.03355,-0.0845625,0.056925
-0.33105,-0.58905005,6.22305,-0.0155375,-0.117425,-0.323675
-0.48705003,0.19305001,6.9289503,-0.0059125,0.09075,0.3711125
-0.56100005,-1.0860001,11.635051,0.14355,0.0484,0.75405
0.01905,-0.45195,13.066051,0.0287375,0.0826375,0.68076247
-0.87000006,1.1530501,15.055051,0.3152875,-0.0273625,-0.052249998
-0.34605002,-0.36600003,16.04895,0.46667498,0.10175,-0.782925
-0.41295,-0.32505003,15.09405,-0.1205875,-0.0969375,0.0977625
-0.079950005,-1.3260001,11.991,-0.2564375,-0.098175,0.1593625
-1.2529501,-0.43800002,10.053,-0.4365625,-0.1478125,0.2850375
-0.71400005,-0.64395005,7.7449503,-0.1375,0.127875,-0.0232375
-1.19805,0.54705,5.6119504,-0.056375,0.0229625,-0.038775
0.651,-0.615,5.3869505,0.3378375,0.20693749,-0.995775
-0.80295,0.25995,6.5670004,0.0055,-0.04015,0.0644875
1.7500501,-0.025950002,9.40905,0.2811875,0.13145,-0.122375
-1.12605,0.69105005,10.88595,0.3257375,-0.505725,0.086625
0.35700002,0.59505004,9.049951,0.34375,0.089237496,-0.1841125
-0.264,0.69105005,9.97095,0.03135,-0.174625,0.36685
0.20595,0.59805006,9.16005,0.0320375,0.0405625,-0.1423125
0.261,0.040050004,9.777,-0.028324999,-0.0743875,0.043449998
0.051000003,0.30795002,9.736951,-0.13475,-0.0435875,0.185625
0.01695,0.44700003,9.607051,-0.0273625,0.0235125,-0.119075
0.04095,0.16905001,9.835051,0.0059125,0.0367125,0.1051875
0.15795001,0.117000006,9.816001,-0.0463375,0.03025,0.0952875
0.06705,0.21495001,9.859051,-0.0407,-0.0031625,-0.160325
0.0049500004,0.11400001,9.9210005,-0.0287375,-0.0204875,-0.0829125
0.039,0.040050004,9.885,-0.0210375,0.01815,0.04015
0.064950004,0.045,9.901951,-0.01485,0.00275,-0.1013375
0.20595,0.12105001,9.715051,-0.013475,-0.001375,0.016224999
0.11505,0.064050004,9.80595,0.0121,-0.01155,-0.05995
0.08895,0.13305001,9.769951,-0.0092124995,0.007425,0.0556875
0.052950002,0.13605,9.825001,0.0066,0.0105875,0.1901625
0.15405001,0.049950004,9.98295,0.0061875,5.5E-4,-0.049225
0.08895,0.21000001,9.604951,-0.0259875,-0.0143,0.1436875
0.028950002,0.14805001,9.79905,-6.875E-4,-0.0088,-0.0133375
0.11505,0.13095,9.540001,-9.625E-4,0.0138875,-0.2343
0.01905,0.14805001,9.691051,-0.01045,-0.021724999,0.07095
0.04605,0.10005,9.84,-0.009075,0.015262499,0.02585
0.055050004,0.021000002,9.92805,-0.01485,-0.0028875,-0.041525
0.120000005,0.042000003,9.865951,-0.016224999,0.0044,0.0809875
0.08895,0.042000003,9.550051,-0.011825,0.0034375,0.17173749
-0.027,0.025950002,10.036051,-0.0022,-0.0097624995,0.2077625
0.13695,0.0019500001,9.63405,-0.011275,0.0295625,-0.170225
0.048,-0.012,9.871051,-0.0017875,0.003025,-0.0237875
0.051000003,-0.024,9.79395,-0.0088,0.004675,-0.103125
0.072000004,0.057000004,9.883051,-0.013612499,-0.0072875,0.14739999
0.120000005,-0.057000004,9.86295,0.004125,0.0088,-0.0617375
0.048,-0.033,9.7890005,-0.0033,0.0097624995,-0.2250875
0.072000004,0.006,9.892051,0.0081124995,0.0099,-0.12265
0.132,0.033,9.703051,-0.0144375,-0.0356125,0.2938375
0.00795,0.033,9.13305,-0.0196625,-0.0554125,0.0991375
0.15405001,-0.09105001,9.01395,-0.03795,0.00385,-0.1843875
-0.015000001,-0.17895001,7.4790006,-0.065725,2.75E-4,0.077825
-0.25500003,-0.069000006,7.1610003,-0.011,0.1035375,-0.3746875
0.59205,-0.10695001,7.52505,-0.0026125,0.100925,-0.3271125
0.26595002,-0.60795003,8.26395,0.006875,-0.1681625,0.126775
0.41205,-0.9979501,10.078951,-0.0418,0.005225,0.3007125
0.16800001,0.40605003,10.878,-0.1621125,-0.0856625,0.904475
-0.03195,-0.16005,12.87705,0.237875,0.050875,-0.1408
0.55305004,0.957,14.536051,0.1351625,0.1329625,0.265375
0.063,0.70995003,17.604,0.3227125,0.0583,-0.4090625
-0.27405003,-0.66300005,13.79895,0.0801625,-0.017324999,-0.1769625
0.075,-0.25095,12.279,-0.3903625,-0.149325,0.8388875
-0.74100006,-0.75600004,10.953,-0.2198625,-0.0719125,0.0055
0.84105,-1.383,8.533051,-0.1705,0.2300375,-0.27981248
0.726,-0.23205002,5.77995,-0.1865875,-0.0149875,-0.2388375
0.06705,0.022950001,3.8119502,0.0501875,-0.2220625,-0.6809
-0.38895002,-0.52605003,6.57495,0.0759,-0.023924999,-0.2057
0.273,-0.049950004,9.00195,-0.045649998,-0.1579875,0.534875
0.19695,0.19305001,10.198951,0.17765,0.0631125,-0.00385
0.28995,-0.44505003,9.92805,0.144925,-0.05115,-0.0614625
0.27795002,0.028050002,9.7890005,-0.054725,-0.0229625,0.1978625
0.462,-0.64395005,9.8560505,0.064625,5.5E-4,-0.02915
0.34995002,-0.25095,9.89505,-0.0578875,-0.014712499,0.10505
0.36705002,-0.27495003,9.79905,0.0055,0.040975,-0.1991
0.192,-0.17205001,9.77505,-0.0092124995,0.0259875,-0.0556875
0.20595,-0.124050006,9.816001,0.0537625,0.0713625,-0.2376
0.16605,-0.28905,10.12695,0.0320375,0.0342375,-0.05775
0.16995001,-0.14595,9.658051,-0.0121,0.0119624995,0.08965
0.28500003,-0.186,9.93795,-0.0158125,-0.0059125,-0.0284625
0.13905,0.0,9.727051,0.035475,0.0067375,0.0301125
0.097950004,-0.47400004,10.218,0.0589875,0.02475,-0.029424999
-0.264,0.052050002,9.67695,-0.05335,0.07975,0.1310375
-0.051000003,-0.294,10.017,0.032449998,0.1010625,-0.1645875
-0.07305,-0.0019500001,9.37005,-0.0493625,0.0284625,-0.0499125
-0.07305,-0.16995001,9.910951,0.051975,0.031075,0.132275
-0.01305,-0.043050002,9.43995,0.049775,0.084425,0.0460625
-0.13995,0.12105001,9.904051,0.069025,0.006875,-0.22013749
-0.015000001,-0.012,10.09305,0.058025,0.0061875,0.089925
-0.23595001,0.15705001,9.717,0.02695,0.0119624995,0.24419999
-0.25005,-0.061950002,9.93795,0.0312125,0.0287375,-0.06215
-0.147,0.076050006,9.59805,-0.0169125,0.0207625,0.1964875
-0.15705001,-0.021000002,10.00695,0.004675,-0.0050875,0.02145
-0.18795002,0.18405001,9.612,-0.012925,0.023924999,-0.0881375
0.08205,-0.35895002,10.14105,0.010725,0.015675,-0.3205125
-0.13305001,-0.079050004,9.868051,-0.0774125,-0.020075,-0.0246125
-0.24000001,-0.055050004,9.660001,-0.0295625,0.017875,0.0510125
-0.291,-0.10695001,9.969001,-0.02475,-0.013062499,-0.0856625
-0.216,-0.124050006,9.769951,-0.0319,0.0229625,-0.1166
-0.37395,-0.11505,9.880051,-0.0323125,0.002475,0.034925
-0.16605,-0.19095,9.79605,-0.016775,0.00605,0.0633875
-0.171,-0.13095,9.69795,-0.0053625,-0.0451,-0.139975
-0.19695,-0.15795001,9.72,0.007975,-0.018424999,-0.3377
-0.09,-0.105000004,9.271951,0.02695,0.0193875,-0.0383625
-0.15195,-0.13395001,9.1380005,0.013062499,-0.0114124995,0.1357125
-0.12105001,-0.141,8.226001,-0.021175,-0.026124999,0.0240625
0.09105001,0.17895001,6.5389504,-0.014712499,-0.0099,-0.1164625
0.264,-0.53805,5.5620003,0.1238875,0.0708125,-0.5718625
-0.28800002,-0.34395,9.354,-0.1230625,-0.1128875,0.3779875
0.216,-1.3759501,12.86505,-0.1035375,0.2105125,0.2022625
0.058050003,-0.112050004,12.811951,-0.1403875,0.097625,0.6868125
-0.09,1.1220001,13.03995,0.197725,-0.0325875,0.1390125
0.24405001,1.404,15.77805,0.4723125,-0.059675,-0.31845
-0.18495001,0.64605004,16.84095,0.353375,0.0688875,-0.0845625
0.32595003,-1.4140501,14.890051,-0.13255,0.038775,0.3287625
-0.48195,-0.76605004,12.05595,-0.5141125,-0.1403875,0.6584875
-1.2940501,-0.34695002,7.9560003,-0.379225,0.010725,0.1472625
-0.94695,-0.48795003,6.9910502,-0.1188,0.2838,-0.37565
0.075,-1.0530001,7.1590505,0.1067,0.28215,-0.9576875
-0.16605,-1.1200501,8.20005,-0.0680625,0.134475,-0.6381375
1.4170501,-0.65805006,8.889001,-0.3155625,-0.08195,0.6424
-0.33600003,-0.624,10.390051,0.1618375,-0.5781875,0.1744875
0.112950005,0.049950004,9.030001,0.1340625,0.076175,-0.062975
-0.34305,-0.31095,9.98295,0.1678875,-0.018424999,-0.253275
0.0,-0.24900001,9.46395,0.0864875,0.0430375,-0.1329625
-0.15900001,-0.37095,9.637951,0.0606375,-0.0319,-0.07975
0.01695,-0.32805002,9.873,4.125E-4,0.0155375,0.14575
-0.15705001,-0.25800002,9.95895,0.0158125,-0.0413875,0.0814
0.012,-0.27705002,9.80805,0.0028875,-0.031075,0.0122375
0.043050002,-0.177,9.8869505,0.0235125,-0.009625,-0.1808125
-0.018000001,-0.24900001,10.086,0.0306625,0.0103124995,0.02145
0.14595,-0.20295002,9.868051,-0.0297,-0.0372625,0.137775
0.036000002,-0.057000004,10.078951,0.0224125,-0.0328625,-0.1527625
0.78300005,-0.34905002,9.366,0.0682,0.022275,8.25E-4
0.537,-0.651,9.871051,-0.01815,-0.2072125,0.32999998
0.44805002,-0.67905,10.15305,-0.116875,-0.091437496,0.2660625
0.14400001,-0.402,9.744,-0.123475,-0.078375,0.480975
0.087000005,-0.27705002,9.688951,0.0144375,0.0636625,-0.1656875
0.036000002,-0.21300001,10.036051,0.0369875,0.075625,0.0444125
0.252,-0.37995002,10.11495,0.0457875,0.063525,-0.075075
0.192,-0.273,9.813001,0.00495,-6.875E-4,-0.2231625
0.06705,-0.261,9.712951,-6.875E-4,-0.018424999,-0.0968
0.087000005,-0.273,9.757951,-9.625E-4,0.0155375,-0.14465
0.11805001,-0.21495001,9.865951,0.017324999,0.0122375,-0.110825
0.024,-0.23700002,9.4470005,0.0248875,-0.0011,-0.1645875
0.177,-0.462,8.44905,-0.0012375,0.01485,0.0836
0.22800002,-0.273,7.2900004,-0.06325,0.0119624995,0.0320375
-0.022950001,-0.27,6.43095,-0.001925,-0.0798875,-0.1274625
0.051000003,-0.094950005,6.4020004,-0.0804375,-0.0592625,0.207625
0.26805001,-0.31305,8.18505,-0.0495,-0.034925,0.2039125
0.34695002,-1.48905,12.307051,0.0818125,0.16995,-0.017324999
-0.31005,0.081,13.246051,-0.12815,0.1727,0.6804875
-0.37395,1.041,14.572051,0.344575,0.165825,-0.1665125
0.98700005,1.4620501,16.053001,0.495825,0.104225,-0.5330875
-1.6000501,0.79605,14.926051,0.1529,-0.35915,0.2451625
-0.025050001,-0.53805,13.01805,-0.1167375,0.2679875,0.4478375
-1.38195,0.46395,10.218,-0.3564,-0.0834625,0.47079998
-1.14495,-0.423,7.4989505,-0.0297,0.150975,-0.1414875
0.79305005,-0.58605003,6.8809505,-0.0749375,0.198825,-0.423775
1.092,-1.09605,6.5410504,0.0482625,-0.16995,-1.200925
0.34005,-1.1770501,8.877001,-0.3936625,-0.1731125,0.4456375
0.07005,0.17205001,8.56095,-0.111237496,-0.346225,0.5231875
0.35700002,-0.17205001,9.672001,0.2297625,0.1186625,-0.417175
0.21795002,-0.8880001,10.31595,0.0944625,-0.052525,-0.11
-0.19995001,0.11895001,9.744,-0.120175,-0.022,0.2591875
0.22095,-0.77805007,9.96195,0.1040875,0.059125,-0.1703625
-0.22095,-0.25305,10.11495,-0.0933625,-0.0297,0.0325875
0.055050004,-0.47805002,9.871051,0.033275,0.11825,-0.221925
-0.025050001,-0.35595003,9.849001,0.0198,0.0242,-0.2212375
0.15105,-0.50505,9.67395,0.009075,0.004125,-0.1755875
0.17295001,-0.53295004,9.96405,0.007975,0.0011,0.10175
0.096,-0.28500003,9.708,0.0105875,-0.022824999,-0.0372625
0.06705,-0.423,9.8560505,0.0364375,-0.00715,-0.12773749
0.051000003,-0.31095,9.744,-0.0048125,-0.0308,0.24653749
-0.030000001,-0.21000001,9.423,0.00935,-0.0066,0.2363625
0.043050002,-0.28500003,9.526051,0.0235125,0.0166375,-0.0204875
0.21795002,-0.73905003,10.31805,0.020624999,0.00385,-0.1199
-0.058050003,-0.079050004,9.712951,-0.0298375,-0.013612499,0.24475
0.051000003,-0.21300001,10.062,0.1051875,0.0609125,-0.0895125
0.027,-0.064050004,10.041,0.0229625,0.0105875,0.152075
-0.049050003,0.028050002,9.580951,2.75E-4,-0.014712499,0.0191125
-0.051000003,-0.16995001,9.825001,0.0539,-0.0099,0.056375
-0.07305,-0.081,9.68595,0.01155,-5.5E-4,0.0158125
0.0,-0.18900001,9.672001,0.011275,0.0323125,0.0471625
0.028950002,-0.22695,9.543,-0.020624999,1.375E-4,-0.006325
-0.025050001,-0.31305,9.82005,-0.0276375,-0.014025,0.0845625
0.075,-0.29700002,9.804001,-0.0407,0.022275,-0.1519375
0.08400001,-0.32295,9.83205,0.0064625,0.014575,0.0350625
0.108,-0.33705002,9.732,-0.015675,-0.01155,0.0413875
0.034050003,-0.27495003,9.792001,-0.0191125,-0.013062499,-0.070675
0.036000002,-0.31800002,9.94005,0.001375,-0.0064625,0.0671
0.003,-0.13605,9.745951,0.00165,-0.0196625,0.033
-0.027,-0.21000001,9.745951,0.0231,0.0122375,-0.1579875
-0.12105001,-0.11505,9.4470005,0.0188375,0.00825,0.165275
0.10095,-0.38700002,10.111951,0.037675,0.0240625,0.1216875
-0.08505,0.042000003,9.682051,-0.0133375,-0.0064625,-0.1120625
-0.025050001,-0.016050002,9.909,0.0845625,0.02805,-0.165825
0.132,-0.22695,9.97605,0.021724999,0.0037125,-0.0606375
0.048,-0.10305001,10.069051,0.0347875,-0.006325,0.0061875
-0.063,0.006,9.765,0.004675,0.00825,-0.0730125
0.036000002,-0.11505,9.68595,0.0023375,0.0088,0.22605
-0.27600002,0.12900001,9.540001,0.0202125,0.00825,-0.0809875
-0.09705,-0.048,9.780001,0.0088,0.0418,-0.0011
-0.135,-0.105000004,10.033051,-0.0347875,-0.0187,-0.087725
-0.066,-0.043050002,9.65505,-0.0221375,-0.0053625,-0.0583
-0.07305,-0.18900001,10.00905,0.0088,0.0078375,0.0682
-0.075,-0.11505,9.765,-0.0270875,-6.875E-4,0.117425
-0.11595,-0.13095,9.837001,-0.0039875,0.0031625,0.0517
-0.09705,-0.15495001,9.897,-0.0055,0.0191125,0.10395
-0.11805001,-0.00705,9.62205,-0.0105875,-0.0105875,0.0100375
-0.102000006,-0.025950002,9.727051,0.0180125,-0.007425,-0.1837
0.060000002,0.025950002,9.093,0.0292875,0.01045,-0.1518
-0.19305001,0.18105,8.367001,0.0268125,-0.0056375,-0.0499125
-0.20895001,-0.10005,7.5319505,0.025575,0.02805,-0.15895
-0.06105,0.010950001,5.94495,-0.0331375,0.0312125,-0.2314125
0.95100003,-0.22500001,5.42805,0.073699996,-0.0306625,-0.175175
0.034050003,-0.03795,10.053,-0.0199375,-0.0760375,0.4499
-0.62805,-0.10305001,13.432051,-0.3243625,0.0023375,1.31395
-0.55605,0.67005,13.456051,-0.0039875,0.1486375,0.609675
-0.42495003,0.45405003,15.847951,0.31515,0.0961125,-0.302225
-0.57600003,0.16905001,17.14005,0.12485,-0.033825,-0.026675
-0.65205,-1.8360001,15.876,-0.0996875,0.0375375,0.0606375
0.34500003,-2.0059502,13.309951,-0.4833125,-0.013612499,0.60995
-1.32,-0.025950002,8.568001,-0.4052125,-0.10395,0.1555125
-0.20895001,-0.51705,5.241,0.0011,0.2325125,-0.43353748
-0.29295,-0.40695003,5.538,0.023375,-0.0581625,-0.9515
-0.90105003,-0.462,6.6150002,-0.087175,-0.0336875,-0.4343625
1.3600501,-0.53595,7.7520003,-0.16225,0.0224125,0.406725
-1.2430501,-0.64395005,11.082001,0.2402125,-0.3240875,-0.088
0.22500001,-0.651,10.11495,0.1915375,0.1808125,-0.2850375
-0.01305,-0.58905005,10.420951,-0.0583,-0.1420375,-0.20019999
0.076950006,-0.69105005,9.607051,0.032449998,-0.06215,-0.1247125
0.00795,-0.555,9.721951,-0.0273625,-0.047849998,-0.130075
-0.13995,-0.45705003,9.81795,-0.01375,-0.009625,0.0314875
-0.039,-0.59805006,9.769951,0.0262625,0.0446875,0.077
-0.079950005,-0.651,10.048051,0.021175,0.0429,0.08745
-0.010950001,-0.44700003,9.801001,4.125E-4,0.0061875,0.0374
-0.00795,-0.45195,9.837001,0.050325,-6.875E-4,-0.0713625
0.01695,-0.43095002,9.526051,0.022,-0.0518375,0.0963875
0.06705,-0.52605003,9.945001,0.0242,-0.0471625,0.18095
-0.00795,-0.42600003,9.744,-0.00275,-0.048675,0.0671
-0.010950001,-0.41595003,9.885,0.017324999,-0.0221375,0.1628
0.02205,-0.46905002,9.96405,0.001375,0.017324999,-0.150425
-0.09705,-0.19605,9.62205,0.017875,0.031625,-0.1676125
0.0,-0.49500003,9.90705,0.0317625,0.0218625,0.110275
0.043050002,-0.44295,9.693001,0.020075,0.022,-0.1808125
0.11505,-0.35205,9.712951,0.0180125,-0.015675,0.098725
0.072000004,-0.25605002,9.559051,0.0122375,-0.023375,-0.1255375
0.108,-0.36105,9.49005,0.0037125,-0.0438625,0.1087625
0.19395001,-0.44295,9.15495,-0.0169125,-0.017324999,-0.1274625
0.16605,-0.59595,8.113951,0.0066,0.01375,-0.0680625
-0.058050003,-0.26805001,6.90495,-0.0364375,0.009625,0.194425
0.0049500004,0.057000004,5.06895,0.043175,0.0169125,-0.18933749
0.13395001,-0.82800007,6.94995,0.0983125,-0.0169125,-0.113575
-0.64695,-1.16295,11.464951,-0.2102375,-0.024475,0.9381625
-1.9060501,0.65295005,12.89595,-0.3091,0.0125124995,1.13905
-0.40305,0.18105,14.416051,0.3773,0.2607,-0.32615
-1.66005,0.70305,19.122002,0.3482875,-0.16995,-0.214775
0.10305001,-0.92595005,16.25205,0.206525,0.0617375,-0.4098875
0.25905,-1.2250501,12.40995,-0.2567125,-0.031625,0.2712875
-0.42195,-0.75105006,8.56095,-0.33715,-0.14973749,0.466125
0.02205,-0.92805004,4.63605,-0.181775,0.160325,0.07205
0.46005002,-1.041,6.07695,-0.2402125,0.064625,-0.2629
-0.45795003,-0.342,5.77995,-0.2734875,-0.19813749,-0.1681625
-0.41295,-1.08405,8.985001,0.026675,0.1684375,-0.4481125
-0.42000002,0.22200002,9.073951,0.045925,-0.0386375,0.0011
0.46005002,-0.94995004,10.321051,0.365475,0.1274625,-0.5138375
0.14400001,-0.81600004,10.255951,0.0273625,-0.3416875,0.3727625
0.22800002,-0.44700003,9.64995,-0.01925,-0.120175,-0.038225
0.043050002,-0.88995004,10.08405,0.039325,-0.0155375,-0.1023
-0.087000005,-0.39000002,9.733951,-0.0466125,0.0479875,0.3328875
-0.027,-0.62895006,9.721951,0.05775,0.0826375,-0.207625
-0.022950001,-0.43305,9.6,0.0070125,0.025575,-0.1243
0.08400001,-0.71505004,9.945001,0.0493625,0.010725,-0.18425
0.11805001,-0.46905002,9.580951,-0.0308,-0.0356125,-0.0202125
0.00795,-0.67695004,9.99705,0.0416625,0.0191125,-0.137225
-0.21900001,-0.48600003,10.10805,-0.0424875,0.0176,0.107525
-0.027,-0.555,9.880051,0.020624999,0.041249998,0.2160125
0.15795001,-0.66495,9.80805,-6.875E-4,-0.0213125,0.01705
-0.030000001,-0.57195,9.877951,-0.0165,-0.0270875,0.047575
0.10305001,-0.45195,9.81795,-0.0204875,-0.0232375,0.2487375
-0.066,-0.49005002,9.721951,0.02585,-0.0042625,-0.0072875
0.043050002,-0.52905005,9.87495,0.0103124995,-0.0020625,0.1249875
-0.09,-0.31800002,9.588,-0.0081124995,-0.014712499,-0.0968
0.15795001,-0.52395004,9.87495,0.036025,-0.0125124995,-0.0688875
-0.0010500001,-0.32805002,9.483001,-0.010175,-0.01925,0.066
-0.006,-0.39900002,9.86295,0.0114124995,-0.0086624995,0.1577125
0.01695,-0.37095,9.67695,-0.0352,0.02255,0.014162499
0.23295002,-0.61995006,10.048051,0.0375375,0.0187,-0.036849998
-0.22800002,-0.39000002,9.5140505,0.0094875,0.002475,0.0631125
-0.10605001,-0.16995001,8.028001,0.054725,0.0928125,-0.3179
-0.31695002,0.09,5.991,0.0587125,0.0070125,-0.3141875
-0.36495003,-0.057000004,5.2990503,0.102025,0.02695,-0.6589
-0.14895001,-0.58905005,7.0960503,-0.1167375,-0.1353,0.4136
-0.34800002,-1.161,10.762951,-0.1953875,-0.165825,1.0225875
-0.906,0.17595,12.0730505,-0.2382875,-0.034375,1.1972125
-0.22800002,0.11400001,11.977051,0.2415875,0.188925,-0.0270875
-1.16205,2.16105,15.760951,0.4063125,0.0947375,-0.3388
1.09905,-0.37800002,16.20405,0.452925,0.067925,-0.5410625
-0.96105003,-1.2870001,15.453001,-0.160325,-0.14093749,0.5247
0.36900002,-1.3429501,11.841001,-0.4162125,0.07645,0.6667375
-1.0999501,-0.75795,8.3890505,-0.27981248,-0.0281875,0.0284625
-1.2859501,-0.093,5.6119504,-0.201025,0.2638625,-0.2000625
0.63195,-1.2349501,7.1850004,0.0631125,0.3136375,-1.000725
-0.26895002,-1.1410501,4.8580503,-0.2083125,-0.2960375,-0.056925
0.66105,0.60495,7.2660003,-0.4082375,-0.391325,1.1537625
0.18495001,-0.49005002,9.90705,0.7657375,0.27775,-1.4173499
0.97200006,-0.93105006,10.066951,0.351725,0.09515,-0.6428125
-0.063,-0.16995001,10.038,-0.1582625,-0.302225,0.4602125
0.20595,-0.59295005,9.733951,0.0345125,0.089237496,-0.0268125
-0.063,-0.37605003,9.64305,-0.0556875,0.032175,0.1771
-0.066,-0.22695,9.7560005,0.0499125,0.14533749,-0.1706375
0.052950002,-0.39900002,9.97395,0.042075,0.0353375,-0.2160125
0.21300001,-0.35895002,9.784051,0.0165,0.00165,0.445775
0.04095,-0.23895001,9.66495,0.027224999,-0.0815375,0.1848
0.10305001,-0.19605,10.036051,0.039049998,-0.003025,-0.33055
-0.171,-0.17400001,10.17195,0.0603625,0.026675,-0.309375
0.036000002,-0.36795002,10.053,0.0070125,0.066,-0.26427498
0.14205001,-0.36105,9.8869505,-0.07315,-0.0169125,0.2338875
-0.027,-0.34005,9.712951,-0.0235125,-0.026675,0.1687125
0.051000003,-0.37305,9.7890005,2.75E-4,-0.0012375,-0.088
0.12705001,-0.43500003,10.000051,0.0028875,0.0264,-0.05335
0.04095,-0.33495003,9.8869505,-0.0262625,-0.0246125,0.1395625
0.055050004,-0.33495003,9.592951,0.0193875,-0.0114124995,0.1079375
0.012,-0.25095,9.460951,0.0215875,0.0105875,-0.1604625
0.09105001,-0.36600003,10.014001,0.014162499,0.00495,-0.1606
0.14895001,-0.25095,9.318001,-0.029975,-0.0231,0.301125
-0.25005,-0.14595,9.30105,0.086625,0.0793375,-0.1566125
-0.23295002,-0.24900001,10.333051,0.023924999,0.1145375,0.095975
-0.07005,-0.43800002,9.36795,-0.020075,-0.006325,0.110825
-0.39105,-0.00405,10.242001,0.0444125,-0.0174625,-0.014712499
-0.05595,-0.13095,9.8539505,0.0078375,0.038775,0.0754875
-0.11595,-0.13605,10.078951,0.032449998,0.0204875,0.2759625
-0.17805001,-0.109950006,9.825001,-0.02145,-0.0221375,0.056375
-0.231,-0.09105001,10.09605,0.0334125,0.0042625,-0.2083125
-0.171,-0.061950002,9.816001,0.0257125,0.0056375,-0.0834625
-0.291,0.052050002,9.715051,0.0099,-0.00385,0.07095
-0.14205001,-0.028050002,9.8230505,0.015262499,0.00935,-0.01595
-0.109050006,-0.021000002,9.543,0.0031625,-0.0207625,-0.093225
-0.010950001,-0.26505002,9.729,-0.030524999,-0.027775,-0.0873125
-0.022950001,-0.18900001,9.64995,-0.080575,-0.0438625,0.1087625
-0.14205001,-0.25095,9.873,-0.01155,-0.035475,-0.036025
-0.078,-0.41595003,10.005,-0.014162499,0.03135,-0.25245
-0.09705,-0.23400001,9.897,-0.0229625,0.0301125,-0.075075
0.048,-0.27495003,9.757951,0.0072875,0.016224999,-0.005775
0.0,-0.22200002,9.40095,0.006875,-0.0485375,0.2189
0.01905,-0.064050004,8.293051,8.25E-4,-0.0466125,-0.225775
-0.54,0.033,6.91905,0.0237875,-0.0034375,-0.46048748
-0.102000006,0.17595,6.1050005,-0.029424999,0.1120625,-0.6087125
0.75900006,-1.0699501,8.181001,0.225775,0.082775,-0.7627125
0.12705001,-0.30795002,10.00695,-0.2088625,-0.1782,0.69355
0.36405003,-1.8910501,13.617001,-0.1733875,0.2300375,1.1528
-0.17595,-0.402,13.200001,-0.281325,0.004675,1.111
-1.2859501,1.1770501,13.36995,0.2431,0.10395,0.0397375
-0.75705004,0.64305,15.393001,0.5919375,0.3309625,-0.9645625
-0.31695002,-1.5460501,14.755951,0.10725,-0.0812625,-0.12485
-1.0830001,-0.95205003,13.2289505,-0.5346,-0.1821875,0.8740875
-0.88395005,-1.8379501,10.33005,-0.2278375,0.1436875,0.0061875
0.24195,-0.68205005,6.8620505,-0.3705625,0.082499996,0.0991375
0.29205,-0.45000002,5.8759503,0.01815,0.0026125,-0.7580375
1.13505,-1.371,7.1610003,0.129525,-0.1359875,-0.7858125
0.64395005,-1.8330001,9.772051,-0.047575,-0.1428625,-0.206525
-0.58305,-0.049950004,9.559051,-0.1918125,-0.3672625,0.489775
0.0,-0.55305004,8.820001,0.33605,0.2187625,-0.6969875
0.38805002,-1.386,9.82995,0.018975,-0.07315,0.113299996
0.41400003,-0.57900006,9.27705,-0.1452,-0.1232,0.4763
0.36195,-1.2559501,9.717,0.0804375,-0.0452375,0.106837496
0.16305001,-0.82800007,10.31805,-0.033,0.0033,-0.0312125
0.028950002,-0.73905003,10.041,0.08305,0.09845,-0.081675
0.20400001,-0.92100006,10.210951,0.0532125,0.0710875,0.0143
-0.06105,-0.38505003,9.97605,0.0218625,0.0317625,-0.0600875
-0.022950001,-0.42600003,9.7890005,0.108075,0.0576125,-0.17435
0.0,-0.64395005,10.182,0.0983125,0.0306625,-0.2380125
-0.25005,-0.11505,9.535951,0.0224125,0.026124999,0.2894375
-0.18105,-0.25605002,9.76095,0.111237496,0.095425,0.0039875
-0.025050001,-0.60105,10.26105,0.0636625,0.056925,-0.0367125
-0.12105001,-0.30600002,9.868051,-0.0512875,-0.0405625,0.2184875
-0.14505,-0.555,9.871051,0.012375,-0.0059125,0.1648625
-0.15705001,-0.39195,9.672001,-0.054175,-0.0174625,0.3234
-0.109050006,-0.56505,9.978001,-0.002475,0.00495,0.1073875
-0.32205,-0.26505002,9.483001,-0.0408375,-0.0182875,-0.0254375
-0.126,-0.42105,9.78705,0.0290125,0.03025,-0.027224999
-0.147,-0.33495003,9.892051,0.00605,0.0022,-0.066275
-0.31005,-0.29700002,9.777,0.0394625,0.0221375,0.1007875
-0.11400001,-0.39900002,9.892051,0.039875,0.0394625,-0.2563
-0.16095,-0.37605003,9.83205,0.017324999,0.015262499,-0.2349875
-0.21405001,-0.32805002,9.757951,0.0143,-6.875E-4,-0.0963875
-0.034950003,-0.36405003,9.885,0.0174625,-0.006875,-0.110825
-0.14205001,-0.30105,9.721951,6.875E-4,-0.0279125,0.2649625
0.010050001,-0.21000001,9.45405,0.022,0.0055,-0.102575
-0.19995001,-0.47805002,8.607,0.0433125,-0.00935,-0.17105
0.112950005,-0.92805004,6.9240003,-0.1527625,0.021175,0.0946
-0.18795002,0.15705001,5.01195,-0.1571625,-0.0284625,-0.1104125
-0.52500004,-0.14295001,5.92605,0.154825,-0.0686125,-0.3883
-0.31695002,0.025950002,7.9129505,0.0556875,0.0639375,-0.0306625
0.16095,-0.55995005,11.853001,-0.0537625,0.0265375,0.7679375
-0.564,0.102000006,13.777051,-0.066825,-0.073975,0.50545
-0.35505003,-0.028050002,18.484951,0.2959,0.121275,-0.29865
-1.8540001,-0.60300004,17.164051,-0.022,-0.0636625,0.00165
-0.54,-1.8190501,13.566001,-0.117975,0.2470875,0.0402875
-0.91800004,-1.146,10.234051,-0.37235,-0.054175,0.3826625
-0.30495003,-0.56895,4.401,-0.0719125,0.2146375,-0.0757625
-0.39405003,-0.68205005,3.9870002,-0.2319625,-0.0754875,0.323675
0.606,-1.6699501,5.1070504,-0.3535125,-0.152075,0.0605
-1.3410001,-1.1010001,5.6670003,-0.4763,-0.4313375,0.0999625
-0.33900002,0.010950001,9.82005,0.0548625,0.0573375,0.13805
0.012,-1.13205,10.567051,0.632225,0.2534125,-1.03895
0.06705,-1.40505,10.000051,0.22165,0.1568875,-0.6131125
-0.13305001,-0.81600004,9.727051,-0.1111,-0.0352,0.1117875
0.26595002,-1.10595,9.63105,-0.0100375,-0.0554125,-0.0262625
-0.01305,-0.66795003,9.780001,-0.0264,-0.1684375,0.2036375
0.02205,-0.72705,9.624001,0.127325,-0.003025,-0.0699875
-0.15900001,-1.0360501,10.347,0.0831875,0.0253,0.059125
-0.252,-0.53805,9.468,0.0138875,0.0776875,0.1040875
-0.0010500001,-0.91605,9.993,0.1034,0.11935,0.006875
-0.003,-0.64395005,9.625951,-0.003025,-0.006875,0.20487499
0.10605001,-0.768,9.81795,0.0356125,-0.0548625,0.0044
0.21300001,-0.86895007,10.10295,-0.0050875,-0.07535,-0.099
-0.20895001,-0.34005,9.922951,-0.0353375,-0.09405,0.242
-0.01305,-0.47400004,9.571051,0.1012,0.0792,-0.036575
-0.003,-0.47595003,9.909,0.0853875,0.0053625,-0.073425
0.055050004,-0.40395,9.99495,0.0545875,8.25E-4,0.0939125
-0.094050005,-0.13095,9.648001,0.0317625,-0.0242,-0.1313125
0.075,-0.53295004,9.705001,0.06545,0.0180125,-0.11
-0.015000001,-0.342,9.271951,-0.0364375,-0.034925,-0.0633875
-0.09705,-0.615,8.463,-0.0048125,0.001375,0.0534875
-0.05595,-0.25605002,6.0430503,-0.1057375,-0.0449625,0.1150875
-0.549,-0.117000006,4.87995,-0.0429,0.03135,-0.0726
-0.54705,-0.26295,4.7389503,-0.06875,0.06875,0.100925
-0.72195005,0.44505003,8.500951,0.10725,-0.056925,0.274175
-0.23805001,-1.3950001,13.70505,-0.0133375,0.0295625,0.428725
-0.23805001,-0.261,13.885051,-0.1194875,-0.0622875,0.417725
-0.10395,0.11400001,16.86705,0.215325,-0.0160875,-0.4791875
-0.13305001,-0.68895006,18.67695,0.21573749,0.0339625,-0.3639625
-0.64500004,-2.568,14.308051,-0.0787875,0.113025,-0.462275
-0.56100005,-1.7760001,11.01,-0.4602125,0.1155,0.3546125
-0.19305001,-1.8739501,7.5850506,-0.2981,0.0864875,0.304975
0.027,0.102000006,5.48295,-0.294525,-0.0908875,0.21725
1.18005,-0.92595005,5.493,0.1139875,-0.2424125,-1.06205
0.097950004,-0.18195,5.5740004,0.0213125,-0.3106125,-0.5511
-0.094050005,-0.201,7.8529506,-0.3595625,-0.022824999,1.0258875
-0.92700005,-0.82305,10.042951,0.4800125,0.488675,-0.6510625
0.642,-0.9979501,9.214951,0.2624875,0.14025,0.0732875
0.024,-0.165,9.066,0.1032625,-0.188925,0.033275
0.24705002,-0.85200006,10.227,0.134475,-0.097625,0.1538625
0.039,-0.36600003,10.026,-0.0881375,-0.12155,0.6359375
0.04095,-0.32805002,9.82005,0.053075,-0.015675,-0.12705
0.08400001,-0.47595003,9.910951,0.034649998,-0.01375,-0.065175
-0.010950001,-0.18900001,9.435,0.0397375,0.0301125,-0.1480875
-0.015000001,-0.46395,9.8230505,0.0715,0.040975,-0.1816375
0.087000005,-0.354,9.736951,-0.014712499,-0.0061875,0.278025
0.028950002,-0.47595003,10.15095,0.012925,-0.01265,0.1307625
0.010050001,-0.45195,9.724951,-0.01485,0.0022,-0.1469875
-0.010950001,-0.49005002,9.96405,-0.021175,-0.0116875,-0.1359875
0.19905001,-0.52905005,9.729,-0.032449998,-0.0039875,0.1502875
-0.022950001,-0.27705002,9.825001,-0.02695,-0.0254375,0.0286
-0.034950003,-0.36105,9.721951,0.0457875,0.0077,-0.0243375
0.10305001,-0.54795,9.910951,0.003575,0.00935,-0.123475
0.17295001,-0.66,10.07205,-0.0275,0.0232375,-0.3509
0.027,-0.411,9.81105,-0.0444125,-0.0053625,0.0011
0.076950006,-0.44700003,9.901951,0.00935,0.0298375,-0.0026125
0.015000001,-0.46395,9.816001,-0.004675,0.0320375,-0.1170125
-0.006,-0.65295005,10.099951,0.01045,-4.125E-4,0.1739375
-0.10395,-0.25095,9.757951,-0.0251625,0.0067375,0.320925
-0.303,-0.27705002,9.58605,0.0474375,0.0394625,0.0715
-0.13005,-0.30795002,9.76305,0.0482625,0.0363,-0.0485375
-0.18495001,-0.26505002,9.703051,0.0257125,-0.0092124995,-0.1500125
0.0049500004,-0.28905,9.8539505,0.02585,-0.0011,0.0672375
0.039,-0.34005,9.871051,0.032725,-0.0053625,0.0369875
-0.003,-0.28500003,9.729,-0.0127875,-0.053075,0.011275
0.108,-0.45195,9.877951,0.021175,0.0160875,-0.064625
-0.015000001,-0.38700002,10.048051,-0.034375,-0.0397375,0.363825
0.012,-0.33705002,9.825001,-0.0213125,-0.01485,0.2255
0.015000001,-0.33495003,9.562051,0.0020625,-0.0075625,-0.03795
-0.079950005,-0.24405001,9.80595,-0.0023375,-0.0048125,-0.0405625
-0.042000003,-0.31995,9.92805,0.0196625,0.01925,-0.1387375
-0.03705,-0.28500003,9.79605,0.0081124995,0.021724999,-0.0924
-0.063,-0.26505002,9.777,0.002475,-0.0092124995,0.095837496
-0.03195,-0.17205001,9.70995,0.0231,-0.006875,-0.160325
0.015000001,-0.186,9.531,0.043449998,0.01375,-0.1447875
-0.14505,-0.08805001,8.748,0.0347875,-0.021175,-0.1007875
-0.31005,-0.11505,7.4149504,-0.0177375,0.0224125,-0.2008875
-0.19500001,0.28695002,5.7300005,-0.0193875,0.075625,-0.1612875
0.402,-0.29700002,6.084,0.20019999,0.11,-0.5006375
0.19695,0.26505002,7.3000503,0.034649998,-0.1122,0.127325
0.216,-0.77295005,12.53505,0.1522125,0.02695,0.2404875
-0.21405001,-0.057000004,13.9470005,-0.203775,0.0616,0.8592375
-0.123,0.90195006,15.441001,0.117699996,0.078375,0.2838
-0.91995007,1.16505,17.7,0.3290375,-0.0099,-0.0176
-0.43905002,-1.00995,17.31195,0.106837496,0.0378125,0.261525
-0.80295,-0.76605004,13.80105,-0.43065,0.0966625,0.539825
-0.846,-0.37095,9.579,-0.31185,0.02915,-0.1254
-0.11100001,-0.36795002,6.3300004,-0.23155,-0.047025,0.0798875
0.096,-0.30795002,4.497,-0.2024,-0.2259125,-0.0378125
0.18495001,-0.35595003,5.24595,-0.055825,-0.138325,-0.2897125
-0.79305005,0.77505004,7.1320505,0.061325,-0.0752125,-0.19813749
0.42600003,0.60705,8.596951,0.2822875,0.08525,-0.4362875
-0.37905002,0.13095,10.49505,0.273625,-0.20185,-0.1265
0.52500004,0.17400001,9.705001,0.02915,-0.0309375,0.3565375
0.30195,0.22905001,10.024051,0.0031625,-0.1337875,0.18933749
0.67305005,0.141,9.399,0.0556875,-0.0380875,-0.0270875
0.34305,0.20805001,9.7560005,0.012925,-0.1419,0.2233
0.156,0.35595003,9.64305,0.0438625,0.0444125,-0.1731125
0.28995,0.20805001,9.904051,0.011825,0.0433125,-0.08745
0.028950002,0.35595003,9.61905,-0.0449625,0.020075,0.0160875
0.11805001,0.13095,9.691051,0.0081124995,0.0697125,0.134475
0.16305001,0.09,10.054951,-0.0059125,0.0606375,0.177925
0.13695,0.105000004,10.074,-0.0581625,0.00275,0.0265375
0.24195,0.066,9.801001,-0.023924999,0.005775,-0.1078
0.109950006,0.025950002,10.045051,0.0081124995,0.025024999,0.011275
0.097950004,0.10695001,10.012051,-0.0042625,0.0268125,0.0253
0.097950004,0.076050006,9.934951,0.00715,0.0210375,0.1067
0.075,0.22905001,9.568951,-0.011275,-5.5E-4,0.099275
0.003,0.126,9.80805,0.007975,-0.005225,-0.0933625
0.060000002,0.09705,9.729,-2.75E-4,0.0166375,0.015125
0.02205,0.109050006,9.8230505,0.003575,0.0215875,-0.0411125
0.094050005,0.10005,9.768001,0.0031625,0.0339625,0.0352
-0.030000001,0.08295,9.904051,-5.5E-4,0.0072875,-0.26221249
0.031050002,0.03795,9.715051,-0.016224999,0.0325875,0.120037496
-0.279,0.12900001,9.75105,-0.0226875,-0.0218625,0.075625
-0.10605001,0.03795,9.745951,-0.014575,0.0479875,0.0044
-0.09705,-0.177,9.82995,-0.028875,0.0070125,0.1417625
0.060000002,-0.36405003,10.057051,-0.068475,-0.0028875,-0.0924
0.064950004,-0.13395001,10.053,-0.094325,-0.017875,0.1241625
0.07005,-0.18195,10.099951,-0.0064625,-0.0026125,0.07425
-0.09900001,0.033,9.61905,-0.001375,0.0037125,-0.003575
0.051000003,-0.079050004,9.47295,0.034375,0.0048125,-0.10065
0.08205,-0.201,9.724951,-0.0028875,-0.038775,0.0627
0.079050004,0.21705002,8.78895,-0.0077,-0.0386375,-0.128425
0.18,-0.13395001,8.03205,0.0881375,-0.024475,-0.339625
-0.19995001,0.777,4.9420505,-0.0207625,-0.0341,-0.1890625
-0.21195,-0.048,5.54505,0.21367499,0.0221375,-0.7434625
0.15405001,-0.51000005,7.76205,0.0174625,0.297275,-0.414975
-0.14505,-0.77505004,12.078001,-0.202675,0.0732875,0.8669375
-0.48000002,0.078,14.158051,-0.2534125,-0.0856625,1.0066375
-0.42195,0.98295003,12.664051,0.0752125,-0.0633875,0.1936
1.245,1.55295,16.156052,0.3554375,-0.0424875,-0.476575
-1.0830001,-0.67200005,14.128951,0.2926,-0.1794375,-0.0119624995
-2.1649501,-0.15495001,13.16205,-0.4112625,0.31185,0.9981125
-0.92505,-0.14595,12.436951,-0.1755875,0.2574,0.24419999
0.51495004,-0.34005,6.1369505,-0.078099996,0.0246125,-0.0774125
-1.2529501,0.70095,3.2929502,-0.20295,-0.1871375,0.0482625
-0.72195005,0.057000004,4.5880504,0.0460625,-0.0449625,-0.92716247
0.30900002,-0.58395004,6.7590003,0.0022,-0.2267375,-0.1299375
0.99600005,-1.36905,11.07705,-0.0598125,-0.005775,0.31033748
-0.17295001,0.117000006,10.23705,-0.0730125,-0.126775,0.126225
0.9670501,-1.0339501,10.864051,0.2781625,0.0999625,-0.908875
0.079050004,-0.34695002,10.55805,-0.098725,-0.207075,0.0743875
0.36705002,-0.62700003,10.005,0.029975,0.0627,-0.3125375
0.01695,-0.52605003,9.777,-0.07865,-0.020624999,0.1018875
0.027,-0.25305,9.670051,-0.0504625,0.0339625,0.1904375
0.16305001,-0.61695004,9.816001,0.0350625,0.044275,-0.1071125
0.12195001,-0.51705,9.97095,-0.0116875,6.875E-4,0.29755
0.09105001,-0.423,9.700951,0.0199375,0.00825,0.066
0.055050004,-0.43995002,9.8230505,0.02585,0.0088,0.1071125
0.17505,-0.42795002,9.942,-0.0034375,-0.008525,0.0518375
0.312,-0.522,10.10295,0.0020625,-0.021175,0.080025
0.087000005,-0.26805001,9.765,1.375E-4,-0.0103124995,-0.0856625
-0.09900001,-0.025950002,9.535951,0.0710875,0.050875,-0.0044
-0.123,-0.16995001,9.5449505,0.1186625,0.0906125,0.036575
-0.07305,-0.094950005,9.98295,0.069575,0.048675,-4.125E-4
-0.13305001,0.028050002,10.110001,0.0644875,0.0308,-0.1948375
-0.11400001,0.049950004,9.624001,0.083325,0.054449998,0.16555
-0.3,0.14505,9.835051,0.0209,0.005225,0.0688875
-0.075,-0.0139500005,9.733951,0.0154,0.0363,0.19607499
-0.17595,-0.024,10.066951,-0.00935,-0.005225,0.153175
-0.043950003,-0.064050004,9.732,-0.018424999,-0.0045375,-0.0704
-0.20205002,0.0019500001,9.61905,-5.5E-4,-0.0314875,-0.172425
-0.01995,-0.27705002,10.069051,-0.0548625,-0.0506,-0.30085
0.04605,-0.28905,9.68595,-0.075625,-0.0243375,0.18975
-0.039,-0.26295,9.910951,-0.0479875,-0.0202125,0.235125
-0.17805001,-0.18195,9.613951,-0.06545,0.00165,0.18933749
-0.279,-0.060000002,10.206,-0.00825,0.034375,0.2531375
-0.30495003,-0.34695002,9.721951,-0.078925,0.017875,0.0856625
-0.14205001,-0.40395,10.11495,-0.0243375,-0.0097624995,0.0682
-0.058050003,-0.40905002,9.81795,-0.002475,-0.0033,-0.0213125
-0.18495001,-0.19605,9.459001,0.0358875,0.04455,-0.0946
-0.13995,-0.19605,9.969001,0.0609125,0.0364375,-0.1309
-0.3,0.093,9.66705,0.0463375,0.010175,-0.194975
-0.312,-0.03795,10.146001,0.0688875,-0.0407,-0.2784375
0.00795,-0.0019500001,9.50205,0.031625,0.0108624995,0.0754875
-0.21900001,-0.19095,9.8539505,-0.0242,-0.0587125,0.2068
-0.051000003,-0.07395,8.865001,-0.0383625,0.00715,0.1749
-0.36705002,-0.14295001,7.6009502,0.005775,-0.0433125,-0.089237496
-0.21900001,0.11895001,5.6940002,-0.0086624995,0.0688875,-0.44385
-0.20700002,-0.024,5.14305,0.0760375,-0.0270875,-0.40755
0.063,-0.56700003,8.925,0.0209,-0.014575,-0.0529375
-0.58995,-0.99300003,13.55895,-0.125675,0.0070125,0.6018375
-0.48495004,0.37500003,13.276951,-0.2707375,0.0622875,1.1925375
-0.26895002,0.92805004,12.937051,0.242825,-0.0383625,0.0716375
-0.65505004,-0.246,17.68605,0.3353625,0.0246125,-0.2657875
-1.59,-1.0170001,19.102951,-0.1827375,-0.0284625,0.1043625
0.261,-2.0080502,12.979951,-0.2209625,0.231,-0.41415
0.027,-1.2730501,8.602051,-0.37675,-0.0561,0.17173749
-0.73095006,0.064050004,4.4710503,-0.3350875,-0.15413749,0.35227498
0.01695,-1.06005,5.9929504,0.087037496,0.1907125,-0.749375
0.35895002,-1.335,7.7809505,-0.2033625,-0.13035,-0.48894998
1.0320001,-3.10695,11.541,-0.109175,-0.092675,-0.067925
-0.92700005,-0.105000004,9.724951,-0.09515,-0.340175,0.253
0.87600005,-0.68205005,10.384951,0.44165,0.3584625,-0.85415
0.38805002,-1.02705,10.43595,0.1194875,-0.3598375,0.144925
0.35505003,-0.675,9.934951,0.0295625,-0.0961125,0.11165
0.28005,-0.63600004,9.448951,0.036025,-0.0308,-0.2363625
0.01695,-0.51195,10.122001,0.02255,0.013062499,-0.0092124995
0.321,-0.72,9.904051,0.0160875,0.032175,0.1524875
0.04605,-0.47400004,9.64095,-0.006325,-0.0048125,0.109037496
0.32295,-0.72300005,9.945001,0.0391875,0.041249998,0.053075
0.252,-0.68700004,10.00695,-0.009625,-0.016224999,-0.0097624995
0.34005,-0.79695004,9.79905,-0.017875,-0.0083875,0.041525
0.13395001,-0.53595,9.595051,-0.033,-0.027224999,0.09845
0.24195,-0.79905003,9.98805,0.01705,0.0363,-0.1153625
0.14400001,-0.67005,9.777,-8.25E-4,0.022275,0.005225
0.039,-0.59595,9.80595,0.0017875,0.0011,0.2349875
0.14895001,-0.49800003,9.77505,5.5E-4,0.0303875,0.1546875
0.12195001,-0.49500003,9.913951,0.0389125,0.005225,-0.2457125
0.35505003,-0.71295005,9.79395,-0.00165,-0.0240625,-0.2574
0.67305005,-0.62700003,9.871051,-0.028875,-0.06215,0.0422125
0.79305005,-0.81105006,9.84195,-0.016775,-0.152625,-0.1296625
-0.17805001,-0.75795,10.09095,-0.043175,-0.11055,-0.039875
0.052950002,-0.82605004,9.672001,-0.0301125,0.2255,0.0077
0.076950006,-0.99300003,9.361051,-0.09295,0.0935,0.0694375
0.11805001,-0.90705,9.981001,-0.0759,0.077825,-0.2184875
0.33105,-0.90705,9.232051,0.0086624995,0.0209,-0.5572875
-0.27195,-0.651,9.82995,0.00275,-0.017875,-0.519475
-0.31905,-0.79005,10.111951,0.017324999,0.151525,-0.5982625
0.14595,-0.92805004,10.27995,-0.02255,0.1744875,-0.569525
0.58395004,-0.69105005,10.191001,0.0144375,-0.0919875,-0.180675
0.70905006,-0.65805006,9.92805,0.11935,-0.1370875,-0.1299375
0.72105,-0.83295006,9.61905,0.0171875,-0.20295,0.1593625
0.41400003,-1.041,10.110001,-0.036575,-0.13213749,0.490325
0.23295002,-0.82095003,9.648001,-0.05995,0.0473,0.145475
0.10605001,-0.81600004,9.583051,-0.0089375,0.1049125,-0.0127875
0.0,-0.83295006,9.825001,-0.037125,0.07645,-0.0298375
0.34695002,-1.16295,10.218,-0.031625,0.0506,0.05115
0.29505002,-0.78495,9.835051,-0.066825,-0.0242,0.042625
0.28995,-0.79005,9.576,0.0814,0.0243375,-0.1863125
0.29700002,-0.93105006,9.945001,0.0433125,-0.0240625,0.09405
-0.24495001,-0.897,8.920051,0.045649998,-0.054725,0.3282125
-0.37395,-0.031050002,9.238951,-0.149875,0.012375,0.70454997
-0.94200003,-0.87795,9.847051,0.14973749,0.215325,-0.2338875
0.072000004,-1.08405,9.250951,-0.0319,0.228525,0.251075
0.09105001,-0.93795,8.401051,-0.104637496,-0.06875,0.366575
-0.39795002,-0.30600002,6.59595,-0.0638,-0.0889625,0.0193875
-0.066,-0.58905005,6.6540003,0.1621125,0.1962125,-0.7060625
-1.0519501,-0.75105006,7.149,0.0705375,0.0554125,-0.050049998
-0.72405005,-1.5079501,10.617001,-0.2019875,0.0851125,0.99385
0.108,-0.9670501,11.998951,-0.2844875,-0.2572625,1.51525
-0.03705,-0.711,12.540001,0.0721875,-0.1956625,0.6246625
-0.77400005,0.18795002,10.620001,0.2679875,0.0664125,-0.21505
0.09105001,-0.60105,13.755001,0.1749,-0.1423125,0.16665
-1.7629501,1.00695,11.532001,0.0116875,-0.25547498,0.0754875
-0.81195,-0.85395,14.656051,0.36987498,0.406725,-0.56374997
-2.2680001,-0.21495001,14.698951,-0.2057,-0.0037125,0.350625
-1.6810501,-0.10305001,12.3,-0.020624999,0.1782,-0.2272875
0.26805001,-1.5120001,8.70495,-0.0103124995,0.24805,-0.48345
0.57195,-1.0669501,4.21395,-0.28393748,-0.0517,-0.0969375
-1.6530001,0.51195,5.3110504,-0.2776125,-0.2935625,-0.377575
-0.31005,-0.72,7.1370006,0.531575,0.2894375,-2.0739124
0.864,-0.92805004,9.02805,-0.457325,-0.35805,1.12365
-1.11405,-0.94500005,9.918,-0.0655875,-0.50325,0.6402
0.312,-1.0530001,9.342,0.022824999,0.2446125,0.3812875
0.036000002,-1.2229501,10.002001,-0.1628,-0.1739375,0.5201625
0.56295,-1.536,10.036051,-0.031075,-0.0331375,0.1865875
0.109950006,-1.1869501,9.684,-0.09075,-0.150425,0.2869625
0.14895001,-1.455,9.98595,-0.003575,0.043175,-0.1874125
0.32295,-1.32105,9.966001,-0.0353375,0.055825,-0.2165625
0.43605003,-1.1890501,9.966001,0.0055,-0.0561,0.127325
0.80205005,-1.36395,9.567,0.0314875,-0.111375,-0.1791625
0.00795,-1.12905,8.85105,-0.031075,-0.2363625,0.1874125
-2.09805,-1.5990001,10.29195,-0.0411125,0.1505625,0.30827498
0.312,0.57600003,9.045,-0.1021625,0.5971625,0.82225
0.24000001,-0.51900005,11.118001,0.895125,-0.101475,-1.5981625
-0.10605001,-0.57900006,10.46895,0.08855,-0.0342375,-0.0083875
-1.3369501,0.15705001,9.106951,0.1381875,0.2451625,-0.0207625
-1.3969501,-0.246,9.933001,0.2572625,0.4258375,-0.341825
-2.1030002,-0.37995002,8.98995,0.0633875,0.2836625,-0.2116125
-1.7910001,-1.24905,8.63595,-0.3793625,0.27775,0.432575
-0.30495003,-0.69900006,10.266001,-0.363825,0.011,0.47685
-1.164,-0.63195,11.395051,0.1486375,-0.1475375,-0.0598125
-1.19805,-0.30405003,10.44705,0.1860375,-0.064075,-0.2091375
0.24900001,-1.36905,9.916051,-0.0493625,-0.0158125,0.095425
-0.57795,-0.411,9.898951,-0.3012625,-0.4301,0.4329875
-0.68805003,-0.744,9.507001,-0.017875,-0.14465,0.1706375
-0.22605,-0.69405,10.321051,-0.0529375,-0.02695,0.095425
0.13695,-0.66795003,10.720051,0.03025,-0.1786125,0.1309
0.29205,-0.67005,9.96405,-0.0746625,-0.3293125,0.2976875
0.08400001,-0.11505,9.717,-0.0298375,-0.2517625,-0.1346125
0.41205,-0.48600003,9.978001,0.1192125,-0.014162499,-0.623425
-0.35505003,-0.684,10.39995,0.0826375,-0.099275,-0.5941375
0.37605003,-0.033,8.986951,-0.02035,0.00495,0.008525
-0.43905002,0.15195,9.366,0.01705,-0.066275,0.1623875
0.47400004,-1.4790001,10.95495,0.06545,0.2259125,0.0397375
-0.21900001,-0.76095,10.09305,-0.210375,5.5E-4,0.2418625
0.13695,-0.28695002,9.406051,0.003575,0.1299375,-0.2905375
0.048,-0.708,10.098001,-0.011275,-0.110275,0.150425
0.109950006,-0.60495,9.397051,-0.0570625,-0.0666875,0.198825
-0.23595001,-0.57705003,9.849001,-0.015262499,0.0358875,-0.13255
0.04095,-0.555,9.562051,-0.032725,0.0534875,0.180125
-0.015000001,-0.43305,9.483001,-0.0336875,-0.0738375,0.2363625
0.010050001,-0.49995002,8.805,0.0301125,-0.0400125,-0.1276
0.012,-0.53595,7.73295,0.0213125,0.001375,-0.227975
0.0049500004,0.14805001,4.8300004,0.0231,0.064075,-0.153175
-0.22395001,0.27495003,4.3840504,0.2228875,0.036025,-0.7885625
-0.93000007,-0.804,7.8,0.0578875,0.112475,-0.006875
-1.11195,-0.89295006,12.23295,-0.671275,0.1062875,1.966525
-1.3969501,0.33,12.793051,0.0702625,0.1381875,0.1810875
-2.1700501,0.64605004,15.844951,0.286275,-0.0259875,0.0815375
-1.251,-0.30795002,17.851051,0.2231625,0.1852125,-0.104499996
-1.1839501,-1.8280501,17.41995,0.053075,0.1013375,-0.2891625
-0.23595001,-1.2589501,12.954,-0.250525,-0.055825,0.074525
-0.786,-1.2760501,6.97695,-0.3579125,-0.1733875,0.4426125
-0.46800002,-0.20595,5.445,-0.25547498,0.1084875,0.3125375
0.675,0.00405,4.41795,0.09845,-0.10835,-0.927025
1.506,-1.161,8.904,0.1452,-0.35915,-1.2651374
0.915,-2.3140502,12.23595,0.1766875,0.4862,-0.6430875
-1.014,-0.74205005,10.717951,-0.1975875,-0.1618375,0.6303
0.795,-0.90705,8.425051,0.2168375,0.315425,-0.462275
-0.32700002,-0.73005,9.471001,-0.0782375,-0.355025,0.43725
0.30900002,-1.1580001,10.207951,-0.0418,0.052525,0.1375
-0.16095,-0.615,10.069051,0.0196625,0.011825,-0.267025
0.097950004,-0.81795,10.17,0.130625,0.089925,-0.4096125
-0.015000001,-0.81600004,10.036051,0.034925,-0.0452375,-0.040425
0.052950002,-0.79395,9.83205,-0.0070125,0.0125124995,-0.3177625
-0.034950003,-0.83505005,9.79605,-0.0499125,-0.065725,-0.0077
0.26805001,-0.94005007,9.901951,0.00495,-0.0097624995,0.07975
0.097950004,-0.73905003,9.78195,-0.016224999,-0.0609125,-0.015125
0.22095,-0.94995004,9.691051,0.0306625,8.25E-4,0.3012625
0.177,-1.01205,9.913951,-0.0510125,-0.079475,0.37125
0.120000005,-0.80895007,9.607051,-0.0218625,0.0042625,-0.002475
0.063,-0.79200006,9.604951,0.0218625,0.0199375,-0.00935
-0.13005,-0.45900002,9.61005,0.0396,0.072875,-0.2519
-0.20700002,-0.68700004,9.741,0.103125,0.06655,-0.05775
-0.10395,-0.51000005,9.504001,0.0270875,0.035475,0.0485375
-0.18795002,-0.58605003,9.729,0.022,0.0081124995,0.00825
-0.48495004,-0.45405003,10.34895,0.044275,0.1269125,-0.1758625
-0.14895001,-0.45405003,9.739051,0.074525,0.0930875,-0.025575
-0.40605003,-0.15495001,9.6,0.0793375,0.02255,-5.5E-4
-0.079950005,-0.23895001,9.9210005,0.1241625,0.0306625,-0.0163625
-0.14505,-0.25305,10.122001,0.0754875,-0.0606375,0.1709125
-0.29805002,-0.33,10.033051,0.0242,-0.0033,0.0856625
-0.42705002,-0.060000002,9.712951,-0.0429,0.0191125,0.0713625
-0.252,-0.40395,9.93795,-0.005775,0.016224999,0.1485
-0.23595001,-0.32805002,9.847051,-0.0683375,-0.043725,0.0020625
-0.35805002,-0.23205002,9.61905,-0.013475,0.004675,-0.0798875
-0.43395,-0.40905002,9.92805,0.0231,0.0323125,-0.051975
-0.19305001,-0.39705002,9.883051,-0.0383625,0.0092124995,0.208175
-0.28095,-0.36405003,9.865951,0.0026125,-0.0034375,0.0891
-0.40305,-0.37095,9.74895,-0.0231,0.0066,-0.0336875
-0.53505003,-0.24405001,9.568951,-0.01925,0.0391875,-0.15675
-0.39405003,-0.32805002,9.660001,0.01485,0.039049998,-0.0400125
-0.37695003,-0.26805001,9.523951,-0.0033,-0.01375,0.10285
-0.37395,-0.35595003,9.868051,0.0193875,-0.006875,0.044825
-0.231,-0.78000003,9.45195,0.0242,0.0094875,-0.0022
-0.504,-0.34005,8.511001,-0.1219625,0.01595,0.0251625
-0.08505,-0.56895,7.7590504,0.013475,0.101475,-0.509575
-0.26700002,-0.18405001,5.0329504,-0.084975,-0.0339625,-0.221375
-0.72405005,0.492,4.6189504,0.0713625,0.0539,-0.4060375
-0.48495004,-0.43095002,8.644951,0.239525,0.1148125,-0.2138125
1.0390501,-2.4799502,14.896951,-0.13145,0.1639,0.7792125
-0.693,0.32205,14.502001,-0.114125,-0.14533749,0.9642875
-1.3300501,0.65805006,16.695002,0.471075,0.1661,-0.5022875
-0.74295,0.33405003,16.213951,0.2129875,0.0460625,0.0829125
0.49800003,-2.295,14.908951,0.0457875,-0.011825,0.12375
0.36900002,-1.9069501,10.29195,-0.45787498,-0.20955,0.7668375
0.079050004,-1.4310001,8.24505,-0.263175,0.075075,0.2382875
-0.98505,-1.3780501,6.2299504,-0.3870625,-0.1502875,0.0567875
1.25205,-1.0000501,5.6940002,-0.295075,0.094875,-0.14739999
0.558,0.91095006,7.4119506,-0.10945,-0.5352875,-0.957825
0.47205,-1.2199501,8.7310505,0.5003625,0.5957875,-1.8547375
-0.63495004,-1.9050001,11.44995,-0.016224999,0.0878625,-0.0526625
0.31605002,-0.98295003,9.31305,-0.1164625,0.06215,0.2376
0.333,-0.94500005,9.238951,-0.0573375,-0.264825,0.3845875
-0.40800002,-0.35595003,8.805,0.0611875,-0.093637496,0.20955
0.015000001,-1.5120001,11.58705,0.1522125,0.1282875,-0.007425
-0.31500003,-0.72705,10.218,0.007975,0.0347875,0.3108875
-0.07305,-0.93795,9.624001,0.077825,0.13859999,-0.0859375
-0.42000002,-0.67905,9.54705,-0.06985,-0.023375,0.2105125
0.16305001,-0.98595005,9.92595,0.0061875,0.0050875,0.1447875
0.177,-0.88995004,10.186951,-0.003575,-0.1230625,0.1076625
0.13695,-1.029,10.287001,0.019524999,-0.0939125,0.0081124995
-0.26895002,-0.54300004,9.48795,-0.0100375,0.0125124995,-0.026675
0.024,-0.708,9.579,0.064075,0.035475,-0.015675
0.08400001,-0.79395,9.92805,0.036025,-0.022275,-0.155375
0.12495001,-0.79005,10.066951,0.0122375,-0.0485375,0.064625
-0.11400001,-0.57405,9.43305,0.0133375,-0.03025,0.1225125
-0.042000003,-0.77295005,10.000051,0.0567875,0.07645,0.06215
0.072000004,-0.62700003,9.670051,-0.00825,0.032725,-0.0350625
-0.312,-0.32295,9.411,0.0081124995,-0.0309375,-0.1192125
-0.025050001,-0.27,9.184051,0.1167375,0.1043625,-0.35433748
0.01905,-0.73200005,8.19495,0.1274625,0.0642125,-0.171875
0.11805001,-0.64395005,6.4960504,-0.0688875,0.016775,-0.1282875
0.06705,-0.38505003,6.012,-0.0886875,0.026124999,-0.22453749
-0.19695,-0.354,6.9810004,-0.086625,-0.0928125,0.4477
-0.010950001,-0.97905004,10.201051,0.06655,0.190575,0.517275
0.00795,-0.51705,12.61095,-0.127325,-0.106837496,1.018875
-1.0639501,0.85905004,14.7300005,0.2011625,-0.0952875,0.1947
-0.48000002,0.90195006,17.75505,0.4753375,0.022824999,-0.3510375
-0.83595,-0.84495,16.987051,0.1148125,-0.102437496,0.138875
-0.79800004,-0.66495,13.111951,-0.31239998,0.11165,0.54725
-0.29505002,-0.31305,8.74995,-0.2718375,0.0160875,0.2151875
-0.99405,-0.21795002,4.42995,-0.0886875,-0.0897875,-0.1841125
-0.54195005,-0.63600004,5.517,-0.1648625,0.06655,-0.4769875
-0.55200005,-0.51195,6.6780005,-0.2770625,0.0103124995,-0.120725
-0.075,-1.7830501,9.217051,-0.0715,0.1310375,-0.1797125
-0.72195005,1.1389501,8.43,-0.1381875,-0.1929125,0.58245
-0.34800002,0.12900001,8.97105,0.7321875,0.160875,-1.02575
-0.28095,-0.47595003,9.95895,0.0121,-0.22605,0.308825
-0.006,-0.18900001,9.837001,-0.0339625,-0.0292875,0.3894
0.36900002,-0.35895002,9.50205,0.028324999,-0.0614625,0.0180125
-0.17295001,-0.18405001,9.591001,-0.031625,-0.0906125,-0.0149875
-0.123,-0.24105,9.67395,0.045375,0.0598125,0.162525
-0.38205,-0.29895002,10.081051,0.0144375,0.0482625,0.0350625
-0.11805001,-0.15300001,9.79395,-0.0132,0.0446875,-0.355025
-0.049050003,-0.22500001,9.90705,0.020075,4.125E-4,-0.122237496
-0.11595,-0.20295002,9.84,-0.0034375,-0.0319,0.0803
-0.16095,-0.20595,9.72,-0.033275,-0.024475,0.0911625
-0.058050003,-0.615,10.49295,0.010725,0.0396,0.031075
-0.14205001,-0.22200002,9.8560505,-0.0328625,0.0259875,0.005225
-0.279,-0.124050006,9.777,0.0111375,0.033275,-0.02145
-0.27195,-0.031050002,9.877951,0.036025,-4.125E-4,0.0680625
-0.094050005,-0.22005,9.98805,0.050049998,-0.0144375,0.03135
-0.24000001,0.117000006,9.540001,0.0287375,-0.025575,-0.1076625
0.14400001,-0.28905,9.282001,0.0759,-0.0053625,-0.219725
0.072000004,-0.43500003,8.229,-0.035475,-0.0628375,0.056375
0.18900001,-0.03795,6.7249503,-0.0787875,-0.0400125,-0.080025
0.40995002,0.076050006,5.6340003,0.1227875,-0.0290125,-0.3947625
-0.83595,0.057000004,7.2180004,0.154275,-0.0419375,-0.1434125
-1.0330501,0.14295001,8.908051,0.042075,0.3282125,0.0922625
-0.69495004,-0.72495,13.176001,-0.183425,0.28985,0.625625
-0.62805,0.49695003,13.698001,-0.2327875,-0.00495,0.810975
-1.00395,0.72,16.34505,0.3487,0.01485,-0.26015
-0.64995,0.10695001,15.915001,0.17875,-0.014712499,-0.285725
-2.538,-0.77805007,15.268051,-0.1500125,0.031625,0.3058
-0.40095,-1.4599501,13.392,-0.23485,0.2743125,0.1013375
-0.102000006,-1.11,8.451,-0.2655125,-0.110825,-0.017324999
0.60405004,-0.615,3.561,-0.2431,-0.0697125,0.1533125
-0.30495003,0.30795002,5.5210505,0.1969,0.02145,-1.086525
-0.20505,-0.62700003,6.77295,0.20487499,-0.2121625,-1.1350625
0.58695,-0.23205002,10.41405,-0.18095,-0.2198625,0.93857497
0.036000002,-0.57900006,10.46205,0.2074875,-0.1387375,-0.2597375
0.52695,-0.32805002,9.978001,-0.077825,-0.1043625,0.5273125
-0.18300001,-0.34395,10.28505,0.0622875,-0.0529375,-0.1315875
0.30195,-0.708,9.772051,0.01705,0.0930875,-0.104225
0.024,-0.38295,9.885,-0.0985875,-0.0710875,0.2228875
-0.135,-0.37605003,9.612,0.0180125,0.056375,-0.22825
0.11805001,-0.43500003,9.61695,0.0044,0.0631125,-0.023924999
0.18900001,-0.52605003,9.78705,0.0158125,0.0402875,-0.028324999
0.156,-0.38295,9.715051,-4.125E-4,0.00715,-0.05335
0.16305001,-0.36600003,9.877951,0.01815,-0.03355,-0.0108624995
0.096,-0.36600003,10.12695,0.025024999,-0.02585,0.1508375
0.20595,-0.42105,9.721951,0.004125,0.0061875,0.30525
0.034050003,-0.615,9.94005,-0.020624999,-0.0529375,0.137225
-0.054,-0.29205,9.624001,-0.07315,-0.003575,0.0561
-0.05595,-0.22695,9.576,0.03025,0.0279125,-0.1071125
-0.11805001,-0.27,10.1959505,0.0251625,0.02255,-0.0474375
0.16095,-0.35895002,9.918,0.0345125,0.0341,-0.1166
0.14595,-0.30795002,10.030951,0.0493625,-0.0187,-0.3146
-0.19305001,0.17400001,8.76,0.126775,0.0026125,-0.300025
-0.43905002,0.018000001,6.2800503,0.1533125,0.086625,-0.5295125
-0.68295,0.009000001,4.5930004,-0.042075,0.1331,0.1032625
-0.94905007,0.19605,3.867,-0.2869625,-0.05555,0.2904
-0.564,0.50895,6.1720505,-0.1186625,0.0473,0.676775
-0.86295,-0.33705002,12.18795,0.25547498,0.1489125,0.443575
-0.291,0.777,16.24695,0.124575,0.153175,0.757625
-0.81000006,2.4,18.94305,0.4195125,-0.1942875,-0.58025
-2.352,-0.31800002,17.81505,0.306075,-0.11715,-0.3845875
-0.882,-0.83295006,13.69995,-0.3185875,0.24255,0.32615
-1.176,-1.05795,9.579,-0.4593875,-0.0823625,0.4027375
1.25205,-0.81795,5.9209504,-0.0488125,0.36245,0.1769625
1.8270001,-0.78705,2.532,0.2695,0.1661,-1.379125
0.87195003,-1.20105,8.56095,-0.1676125,-0.875325,-0.1263625
2.12805,-2.3380501,13.066051,0.1648625,-0.108625,-0.511775
-0.56595004,0.291,9.27,-0.209825,-0.2539625,0.6208125
0.41895002,-0.18900001,9.98595,0.30855,0.33495,-0.4109875
0.15405001,-0.24105,10.339951,-0.0180125,-0.0782375,0.4637875
0.015000001,-0.43305,10.09605,-0.067375,-0.0297,0.337425
0.29700002,-0.63195,9.625951,-0.1577125,-0.0757625,0.22935
0.13695,-0.57705003,9.784051,-0.11935,-0.029424999,-0.034925
0.58005005,-0.78195006,10.321051,-0.049225,0.0092124995,-0.1991
0.216,-0.51000005,10.038,-0.039875,-0.0999625,-0.093637496
0.24900001,-0.45000002,9.424951,0.079475,0.03355,-0.2443375
-0.025050001,-0.65295005,9.993,-0.03575,0.01595,0.0815375
0.097950004,-0.47100002,10.048051,-0.036849998,0.0837375,0.0323125
0.21300001,-0.53805,9.696,0.047575,0.0664125,-0.1804
0.192,-0.49995002,9.580951,-0.0243375,-0.02255,0.1260875
0.47895002,-0.648,9.966001,0.01045,-0.0191125,-0.0295625
0.35505003,-0.47595003,9.97605,-0.0066,-0.086075,-0.1131625
0.28305,-0.35895002,9.744,0.0378125,-0.0207625,0.159225
0.20595,-0.55695003,9.78705,0.013475,0.012925,-0.017875
0.063,-0.246,9.65505,0.0257125,0.0361625,-0.0655875
0.079050004,-0.17205001,9.435,0.0867625,0.055275,0.034375
0.24705002,-0.33705002,9.379951,0.1013375,0.0254375,-0.077275
0.109950006,-0.36795002,7.8460503,0.0617375,-0.0,-0.337975
-0.126,-0.20295002,5.538,-0.0677875,0.056925,-0.37867498
-0.042000003,-0.70605004,5.5740004,-0.0356125,0.1485,-0.2803625
-0.079950005,0.291,7.05105,-0.123475,0.0345125,0.5908375
-1.19505,0.052050002,8.32005,0.320925,0.014575,0.1793
-1.5330001,-0.049950004,16.15905,-0.0908875,0.107525,1.2436875
-1.437,0.86805004,15.919051,-0.0521125,0.006875,0.3146
-0.83205,0.58305,18.76305,0.3689125,0.080575,-0.0587125
-2.3470502,-1.52205,16.731,-0.1936,-0.099825,0.583
-0.25005,-0.40695003,11.187,-0.383075,0.2270125,0.5055875
-0.67395,-1.5960001,6.7249503,-0.2627625,-0.1736625,0.1489125
-2.05995,0.14295001,4.21395,-0.6216375,-0.1458875,0.770275
0.096,-0.44700003,3.4650002,0.19635,0.5974375,-0.8562125
0.57000005,-0.78495,9.14805,0.60225,0.31845,-2.4198625
0.72105,-0.67905,10.866,-0.176275,-0.643225,-0.0490875
-0.06795,-0.651,10.651051,0.0763125,-0.14465,-0.5506875
0.37395,-1.0860001,9.66495,0.0394625,-0.0253,-0.0185625
0.26805001,-0.66495,9.705001,-0.047575,-0.057475,0.1172875
0.462,-0.97395,10.030951,0.0611875,-0.003025,-0.0099
0.20595,-0.75600004,9.84195,-0.0479875,-0.072875,0.17215
0.076950006,-0.51195,9.45405,0.0158125,0.06655,-0.26785
0.41895002,-1.01505,9.847051,0.0510125,0.0823625,-0.265925
0.22800002,-0.73695004,9.64605,-0.0875875,-0.0512875,0.1731125
0.16095,-0.71505004,9.79395,-0.0056375,-0.002475,0.0642125
0.36705002,-0.79200006,9.86295,-0.010175,0.0328625,0.0210375
0.201,-0.31800002,9.66705,0.003025,-0.0182875,0.038225
0.31605002,-0.75105006,9.603001,0.0319,-0.025024999,0.1722875
0.28800002,-0.55305004,9.942,0.022,-0.031625,0.0749375
0.65400004,-0.70605004,9.90705,0.046475,-0.0154,0.0578875
0.35895002,-0.42600003,9.80805,0.0594,-0.030524999,-0.253
0.89805007,-0.77505004,9.564,0.113299996,0.03135,-0.0658625
0.19395001,-0.22905001,8.02005,0.0721875,-0.01045,0.0444125
-0.28095,-0.57705003,6.8239503,0.011275,0.07095,-0.0512875
-0.21900001,0.20505,4.9420505,-0.0963875,0.1549625,-0.45595
-0.31695002,-0.462,6.189,0.0884125,0.1628,-0.7544625
-0.063,-1.7160001,9.435,-0.155375,0.0452375,0.675125
-0.48705003,-1.1560501,13.963951,-0.4642,-0.1804,2.051775
0.65895003,-1.1179501,16.554,0.149325,0.18205,0.2926
0.16095,-0.70095,17.346,0.3861,0.0312125,-0.725725
-0.66195005,-0.24405001,16.89405,0.0738375,0.0149875,0.2079
-0.71895003,-2.6899502,14.3230505,0.006875,0.21807499,-0.3207875
-1.7580001,-1.4449501,12.018001,-0.5798375,-0.258775,0.7657375
-0.74100006,-1.335,9.5449505,-0.2817375,-0.005775,0.6392375
1.149,-1.40505,4.131,-0.1692625,0.0528,0.451
0.74205005,-0.49005002,3.25005,-0.0581625,-0.166375,-0.1725625
2.013,-0.624,7.4700003,0.29865,-0.09185,-1.2117875
0.63495004,-2.322,12.573001,0.17847499,-0.3826625,-0.842325
-1.1719501,-0.40395,9.883051,-0.1672,0.252175,-0.27981248
0.642,-1.35195,9.62205,0.1665125,0.5586625,-0.4412375
-0.324,-1.1340001,10.206,-0.1656875,-0.2765125,0.349525
0.22995001,-1.062,9.217051,0.01375,0.0688875,-0.0232375
0.06705,-1.1730001,9.63405,0.0286,-0.006875,-0.06435
0.012,-0.88500005,10.038,0.021724999,-0.0292875,0.1016125
0.064950004,-0.91605,10.186951,0.1029875,0.0372625,-0.1076625
0.13695,-0.69405,9.52095,0.080575,0.0138875,-0.1881
-0.04695,-0.65295005,9.670051,0.0661375,-0.038225,-0.016224999
0.18,-0.90195006,10.033051,0.0672375,0.0133375,-0.0561
-0.07005,-0.53595,9.978001,-0.012375,-0.0430375,0.15565
-0.018000001,-0.51705,9.78705,0.1056,0.073425,-0.20253749
0.060000002,-0.58605003,9.64605,0.0515625,0.009625,0.1595
0.06705,-0.56895,9.556951,0.03355,-0.0198,0.1604625
0.024,-0.55995005,9.8869505,0.0235125,-0.0133375,0.1978625
0.112950005,-0.53595,9.946951,0.0174625,-0.041249998,0.15125
0.15405001,-0.12705001,9.568951,0.0457875,-0.0279125,-0.0363
-0.21405001,-0.294,9.05895,0.1194875,0.0704,-0.4932125
-0.19695,-0.15795001,8.475,0.0567875,0.07645,-0.121
-0.17295001,-0.30105,7.2180004,0.0523875,0.0413875,-0.2514875
-0.109050006,-0.46605003,4.7580004,-0.0345125,0.0281875,-0.269775
-0.22605,-0.53595,5.32695,-0.2039125,-0.0449625,0.2355375
0.40005,-0.30795002,8.69505,-0.1266375,0.111925,1.092025
0.35205,-1.5679501,15.45705,0.152075,-0.095837496,0.6252125
0.26805001,-0.08805001,16.66605,-0.009075,-0.0341,0.48014998
0.16800001,0.70305,18.031052,0.346225,-0.03575,-0.5011875
-0.079950005,-0.109950006,16.597052,0.3301375,-0.082499996,-0.3993
-1.15695,-1.5600001,14.802001,-0.3718,0.0347875,0.544225
0.78105,-2.331,11.103001,-0.4107125,0.1848,0.1931875
-0.06795,-1.6200001,7.6470003,-0.4346375,-0.095425,0.199925
-1.2049501,-0.282,2.84805,-0.37235,-0.094875,0.08085
-0.231,-0.57900006,5.54505,-0.1243,0.1881,-0.333025
0.37605003,-1.0530001,8.33895,0.256575,0.13915,-1.419275
0.62700003,-0.17205001,8.88405,0.185075,-0.341275,-0.3058
-0.52005005,0.016050002,8.89395,0.3529625,-0.1293875,-0.51645
0.85695004,-1.2970501,10.206,0.09845,0.1005125,0.287375
0.192,-0.65295005,10.186951,-0.1709125,-0.19167499,0.7953
0.46005002,-0.73005,9.658051,0.0628375,0.0583,0.1137125
0.30405003,-0.58095,9.435,0.02585,-0.0034375,-0.165825
0.321,-0.65595,9.66195,0.04015,0.0411125,-0.2553375
0.33105,-0.72705,10.029,-0.025575,-0.0221375,-0.096525
0.30405003,-0.44700003,9.705001,0.042625,0.027224999,0.1060125
0.55605,-0.708,9.733951,0.0529375,0.0037125,0.0177375
0.39495003,-0.52905005,9.77505,-0.01925,-0.07535,0.237875
0.192,-0.624,9.592951,0.0378125,0.0015125,0.1637625
0.24705002,-0.49005002,9.72,-0.005225,0.045925,-0.06325
0.36900002,-0.64605004,9.688951,0.0116875,0.0528,-0.1621125
0.027,-0.25605002,9.5119505,0.0133375,0.0259875,-0.0248875
0.097950004,-0.423,10.372951,0.1529,0.130075,0.2140875
-0.35805002,0.33705002,9.61005,0.0941875,0.07865,-0.0510125
-0.18105,0.31995,9.792001,0.2303125,0.140525,-0.1584
-0.058050003,0.43005002,10.371,0.18205,0.0418,0.1269125
-0.16095,0.354,9.83205,0.144925,0.0309375,-0.1706375
-0.22605,0.38505003,9.753,0.0562375,0.023924999,0.2426875
-0.252,0.36795002,9.813001,0.0433125,0.018975,-0.0771375
-0.21900001,0.291,9.8560505,-0.0055,0.003025,0.0433125
-0.123,0.124050006,9.904051,-0.0325875,0.025024999,0.1772375
-0.13695,0.31005,9.5140505,-0.0374,-0.0133375,-0.008525
-0.24795002,0.15495001,10.065001,-0.0064625,-0.028875,-0.0504625
-0.18300001,0.28395,9.708,-0.0276375,0.0166375,-0.0979
-0.14895001,0.030000001,9.784051,-0.010725,0.0048125,0.1211375
-0.35295,0.24795002,9.436951,-0.0551375,0.0028875,0.081675
-0.21900001,0.033,9.423,0.0026125,0.0474375,-0.173525
-0.43905002,0.07395,9.53295,-0.0672375,0.0221375,0.1049125
0.028950002,-0.34695002,10.08405,-0.0790625,-0.021724999,-0.0022
0.058050003,-0.112050004,10.014001,-0.160875,-0.139425,0.1742125
0.651,-0.12900001,9.70995,-0.0691625,-0.1727,-0.079475
0.67305005,-0.040050004,9.436951,-0.0078375,-0.2167,-0.1857625
0.72105,-0.10695001,9.966001,0.0468875,-0.18493749,-0.037125
0.76395005,-0.109950006,9.80805,0.0127875,-0.13365,0.0774125
0.82605004,-0.069000006,9.76095,0.0320375,-0.0583,-0.073975
0.71595,-0.097950004,9.658051,-0.0064625,-0.0306625,-0.1095875
0.642,-0.009000001,9.66495,0.03355,0.016224999,-0.077
0.66795003,-0.14295001,9.969001,0.003575,0.0347875,-0.19085
0.64395005,-0.07395,9.765,0.0176,0.03795,0.2545125
0.522,-0.29205,9.141001,0.0094875,0.0264,0.1370875
0.096,-0.74895006,9.66195,-0.09515,0.1469875,-0.1527625
0.11805001,-1.14405,11.11095,-0.2242625,0.1775125,0.12045
-0.025050001,-0.99105006,10.408951,-0.2453,0.1431375,0.1791625
-0.13005,-1.0189501,9.957001,-0.1417625,0.1280125,0.0111375
0.076950006,-0.83295006,9.705001,-0.069299996,0.0400125,-0.0312125
0.027,-0.80895007,10.09305,0.025024999,0.0143,-0.055275
0.010050001,-0.77805007,9.67395,0.0336875,0.0229625,-0.063525
-0.13305001,-0.63900006,9.877951,0.0510125,-0.0100375,-0.0358875
-0.05595,-0.54795,9.825001,0.0801625,0.0339625,-0.07645
-0.079950005,-0.46605003,9.871051,0.049775,-0.011,-0.0972125
-0.18300001,-0.38505003,9.612,0.01155,-0.0308,0.197175
0.012,-0.47400004,9.8560505,0.037125,-0.0061875,0.1945625
-0.17595,-0.30795002,9.327001,0.0309375,0.017875,-0.0176
-0.39105,-0.32805002,9.873,0.0243375,0.001375,0.0540375
-0.25995,-0.40395,10.201051,0.035475,0.064075,0.23127499
-0.43905002,-0.165,9.62895,0.0697125,0.0829125,0.0691625
-0.26700002,-0.31605002,9.93,0.0578875,0.044825,0.1348875
-0.351,-0.19395001,9.981001,0.01815,0.017324999,-0.106425
-0.34800002,-0.141,9.95895,0.03135,0.0034375,-0.3361875
-0.22095,-0.13605,9.66195,0.0347875,-0.012375,-0.22
-0.147,-0.21300001,9.84195,0.0537625,-0.013612499,-0.111375
-0.15405001,-0.024,9.411,0.0499125,-0.0224125,0.11605
-0.109050006,-0.03795,8.83905,0.084425,0.0023375,-0.1126125
0.10305001,-0.28005,7.1470504,0.065175,-0.0059125,-0.158125
0.16995001,0.39705002,3.8460002,-0.05335,-0.067925,-0.1203125
-0.47700003,0.025950002,3.7600503,0.0028875,-0.0782375,-0.2066625
-0.83205,-0.19800001,8.46105,-0.1714625,0.1208625,0.5748875
-1.04505,-1.2199501,14.268001,-0.2415875,0.2168375,0.9084625
-1.2240001,-0.23400001,15.450001,0.0089375,0.3991625,0.1436875
-0.24495001,0.61905,17.61405,0.4173125,0.0831875,-0.6446
1.38405,-1.9960501,19.08105,0.3788125,-0.018424999,-0.52648747
-1.64505,-1.6030501,13.317,-0.465025,-0.304975,0.704
-1.473,-1.4569501,10.67205,-0.4961,0.0418,0.47795
0.42195,-1.3980001,7.1320505,-0.2597375,0.24915,0.1618375
-0.87195003,0.37995002,4.2670503,-0.199375,-0.153725,-0.436975
0.36195,-1.13205,5.505,0.1753125,0.0319,-1.2725625
-0.70500004,-1.4310001,9.02295,0.153175,-0.0677875,-0.7194
0.058050003,-0.21300001,8.253,-0.301675,-0.2407625,1.1556875
0.252,-1.04595,10.062,0.213125,0.0020625,-0.300575
0.44595003,-1.09095,9.660001,0.06875,-0.088825,-0.1865875
0.079050004,-0.39000002,9.757951,0.0188375,-0.1043625,-0.0473
0.20400001,-0.86895007,9.901951,0.1793,0.0556875,-0.3001625
0.072000004,-0.55695003,9.813001,0.031625,-0.016775,0.19635
0.22800002,-0.76305,9.75105,0.1192125,0.075625,-0.062425
-0.28800002,-0.55005,10.086,-0.0017875,0.0034375,0.183975
0.192,-0.60105,9.913951,0.0831875,0.0886875,0.0011
0.04605,-0.33195,9.72,0.044825,-0.0061875,-0.282975
-0.03195,-0.14805001,9.78705,0.081125,0.0122375,-0.038225
0.11805001,-0.23400001,9.769951,0.0658625,-0.016775,0.143
0.079050004,-0.261,9.978001,0.074525,-0.0270875,0.2396625
-0.030000001,-0.12705001,10.02105,0.0400125,0.0075625,-0.07095
0.036000002,-0.048,9.892051,0.0658625,0.00715,-0.1304875
0.264,-0.10305001,9.47595,0.0204875,-0.038775,0.036849998
0.048,0.021000002,9.339001,0.0163625,-0.0081124995,-0.4054875
0.15405001,-0.124050006,9.636001,0.044,0.0092124995,0.0867625
0.031050002,-0.012,9.085951,0.01375,-0.022,0.2398
0.30705002,-0.23895001,8.18805,2.75E-4,0.006325,-0.0221375
-0.36195,0.058950003,6.26805,-0.061875,-0.0385,-0.0658625
-0.171,0.11400001,4.8700504,0.0323125,0.1706375,-0.5971625
-0.59505004,0.31995,5.952,0.113575,0.11055,-0.5339125
-0.171,0.17895001,9.150001,0.0749375,0.41593748,0.1502875
-1.1050501,-0.9979501,14.6629505,-0.1612875,0.0567875,0.9384375
-0.78105,-0.46395,15.802051,-0.2041875,0.172425,0.590425
-0.33105,-1.21605,19.309052,0.0246125,0.010725,0.176
-0.64695,-1.4620501,18.52395,-0.1643125,-0.180125,0.3513125
-0.27405003,-2.77395,13.585951,-0.1940125,0.05115,-0.1056
-0.17595,-2.83605,11.809051,-0.540375,-0.0803,0.4552625
-0.30495003,-1.46895,6.168,-0.4962375,-0.0710875,0.3298625
-1.4610001,0.85605,5.1480002,-0.1918125,0.0473,-0.0204875
-0.43395,-0.402,4.7080503,0.71445,0.524975,-2.1880374
-0.40995002,-2.154,9.43995,0.3229875,-0.06765,-0.72008747
0.40995002,0.124050006,8.48205,-0.5643,-0.6661875,2.105675
0.75705004,-0.67905,9.816001,0.40974998,-0.1249875,-0.561
0.87195003,-1.36905,10.428,0.17105,-0.225775,-0.091575
0.18705001,-0.19095,9.423,-0.0881375,-0.1672,0.617375
0.50100005,-0.90705,9.969001,0.0979,0.055275,-0.2600125
0.30705002,-0.62895006,9.77505,-0.0361625,-0.0209,0.1287
0.71595,-1.00695,9.966001,0.0108624995,0.0114124995,0.28393748
0.17295001,-0.47595003,9.471001,-0.094875,-0.0793375,0.171875
0.42195,-0.65805006,9.648001,0.0435875,0.073975,-0.314875
0.37395,-0.81405,9.81795,0.0204875,0.0015125,-0.0724625
0.27600002,-0.70605004,9.847051,-0.015262499,0.03135,-0.066
0.3,-0.75795,10.041,0.0026125,0.0099,0.1441
0.25395,-0.63600004,9.792001,-0.004125,0.0061875,0.0044
0.36195,-0.63195,9.744,0.03135,0.01705,0.06985
0.261,-0.624,9.670051,0.03575,0.017324999,-0.117975
0.453,-0.57900006,9.889951,0.0187,0.0012375,0.0785125
-0.15405001,-0.23205002,9.50205,0.0743875,0.022824999,0.0570625
-0.06795,-0.354,9.29895,0.11935,0.1082125,-0.192775
0.28800002,-0.13605,9.849001,0.06325,0.02695,-0.2369125
-0.054,0.12105001,9.526051,0.13695,0.031625,0.0633875
0.24195,-0.14295001,10.158001,0.130625,0.0400125,0.01265
0.201,0.081,9.757951,0.04895,-0.0397375,-0.0460625
0.14400001,0.109050006,9.825001,0.091575,-0.0180125,0.1425875
0.015000001,0.17895001,9.732,0.0275,-0.003575,0.1915375
0.14205001,0.0139500005,9.75105,0.0070125,0.0372625,-0.0059125
0.22800002,-0.012,9.934951,-0.01485,-0.0092124995,0.1436875
0.23295002,-0.057000004,9.82005,-0.0281875,-0.02695,0.212025
0.14205001,0.093,9.81105,-0.021724999,-0.0308,0.0620125
0.24195,-0.109950006,10.074,0.019524999,0.00275,-0.183975
0.17505,0.094950005,9.732,-0.0180125,-0.022275,0.1918125
0.25395,-0.045,9.780001,0.00605,-0.0034375,-0.0614625
0.28800002,-0.012,9.777,-0.0323125,-0.01705,0.0253
0.23295002,-0.093,9.82995,-0.0160875,-0.022,-0.2336125
0.112950005,0.030000001,9.64995,-0.024475,-0.01265,0.00495
0.10305001,-0.012,9.693001,5.5E-4,0.0086624995,0.0966625
0.201,-0.025950002,9.65505,-0.01265,0.0209,-0.1265
0.36900002,-0.186,9.910951,0.0061875,0.009075,-0.14533749
0.29205,-0.072000004,9.700951,0.00495,-0.0050875,0.0396
0.26805001,-0.17205001,9.415951,-0.0066,-0.0055,-0.00825
0.22305001,-0.21300001,8.887051,-0.06215,-0.0262625,-0.012925
0.17295001,-0.273,7.5439506,-0.0484,0.0012375,-0.1313125
0.048,-0.024,5.1930003,-0.0792,0.0479875,-0.44233748
0.513,-0.531,4.6090503,-0.0559625,-0.01265,-0.0488125
-0.564,0.081,9.259951,-0.11825,0.0059125,0.4635125
-0.42495003,-1.7490001,15.192,-0.022,0.2778875,0.6666
0.22095,0.23595001,15.406951,-0.106837496,0.103675,0.769175
0.23505001,1.1149501,17.31195,0.4456375,-0.017324999,-0.5654
0.33795002,-1.0339501,18.17205,0.21573749,-0.1414875,-0.1596375
-1.6570501,-1.7040001,14.104951,-0.403975,-0.0642125,0.297275
0.10605001,-2.46495,9.8539505,-0.5215375,0.138325,0.323675
-0.48195,-1.09395,5.68695,-0.419925,0.1595,0.078375
0.53895,-0.79905003,4.9420505,-0.27115,0.0666875,-0.4888125
0.75900006,-1.0860001,5.124,-0.0543125,-0.109725,-0.9645625
-0.18795002,-1.422,8.335951,-0.0298375,-0.4819375,-0.2380125
0.45795003,-0.67005,8.39595,-0.054725,-0.28393748,0.4324375
0.33495003,-0.99495006,9.543,0.257675,0.19635,-0.66495
0.37395,-1.5679501,10.4740505,-0.021175,-0.12979999,0.370425
0.29205,-0.80595005,9.552,-0.0149875,0.018424999,0.289025
0.69900006,-1.5990001,10.002001,0.09735,0.041249998,-0.2820125
0.38805002,-1.098,9.97395,-0.009075,-0.0427625,0.1610125
0.22995001,-0.97905004,9.715051,0.064625,0.0633875,-0.1216875
0.21795002,-1.2610501,10.014001,0.048675,0.0793375,-0.1925
0.034050003,-0.89295006,9.648001,-0.0092124995,0.0361625,0.1659625
0.26595002,-1.1370001,9.889951,0.0202125,0.0232375,0.0587125
0.37395,-1.0720501,10.225051,0.0160875,0.01705,-0.0741125
0.18495001,-0.79905003,9.729,0.06765,-8.25E-4,0.037675
0.108,-0.77295005,9.8869505,0.089375,0.0187,0.126775
-0.264,-0.41400003,9.61905,0.0565125,0.008525,0.377025
-0.15195,-0.46905002,9.81105,0.1274625,0.1038125,0.0944625
-0.13995,-0.33195,9.934951,0.1142625,0.0697125,0.19415
-0.14895001,-0.42795002,9.835051,0.143825,0.0727375,-0.1271875
-0.35505003,0.00405,9.48795,0.029975,0.006325,-0.0576125
-0.15705001,-0.33195,9.83205,0.1023,0.040425,-0.169125
-0.17295001,-0.35595003,9.715051,0.0312125,0.016224999,0.150425
-0.26895002,-0.39705002,9.837001,0.0023375,0.0427625,0.0836
-0.08505,-0.43995002,10.10505,-0.01925,0.00275,-0.0378125
-0.16395001,-0.42600003,10.005,-0.0154,-0.0193875,-0.037125
-0.07305,-0.47595003,9.898951,-0.0061875,0.0185625,-0.1280125
-0.25995,-0.39195,9.849001,-0.02255,-0.017324999,0.183975
-0.17295001,-0.43800002,9.837001,-0.0188375,1.375E-4,0.0539
-0.279,-0.28500003,9.59805,-0.0402875,-0.033275,-0.022
-0.03705,-0.40905002,9.7890005,0.010175,0.0166375,-0.172975
-0.24495001,-0.42795002,9.688951,-0.0094875,-0.0523875,0.098175
-0.126,-0.50205004,9.801001,-0.011825,-0.0015125,0.17407499
-0.22800002,-0.50205004,9.84195,-0.0257125,-0.01375,0.003025
-0.25005,-0.39705002,9.880051,-0.00825,0.0122375,-0.02255
-0.079950005,-0.57405,10.00905,0.0312125,0.0603625,-0.17613749
-0.26895002,-0.40905002,9.64095,-0.0026125,0.0022,0.1797125
-0.17805001,-0.44505003,9.84405,1.375E-4,-0.0165,0.230725
-0.15900001,-0.42105,9.76305,0.011,0.012925,0.038225
-0.29295,-0.342,9.556951,0.0207625,0.01815,-0.2748625
-0.32205,-0.53595,9.74895,0.0039875,0.01155,-0.0114124995
-0.26700002,-0.50505,9.883051,-0.00385,0.044825,0.0515625
-0.30495003,-0.47805002,10.057051,-0.0042625,0.0056375,0.2542375
-0.25500003,-0.31305,9.556951,0.006325,0.009075,0.1412125
-0.015000001,-0.45705003,9.613951,0.019524999,-0.036025,-0.0270875
-0.123,-0.27,9.021001,0.029424999,-0.0466125,-0.2794
-0.10605001,-0.32505003,8.0130005,0.078099996,0.01485,-0.50215
0.42600003,-0.32295,4.887,0.058575,0.093637496,-0.48014998
0.055050004,0.15705001,4.143,-0.067375,-0.13695,0.187
0.13005,-0.46905002,8.089951,0.1233375,0.15455,-0.052249998
-0.19005,-1.5480001,14.088,-0.044,-0.0215875,0.5941375
-1.5330001,0.049950004,17.727001,-0.237325,-0.011825,0.7308125
1.0390501,0.105000004,17.11395,0.3452625,0.149875,-0.6230125
-0.53205,-1.0000501,18.379951,0.06325,-0.465575,0.199925
-1.5330001,-1.041,14.026051,-0.3411375,0.0551375,0.7027625
-1.0849501,-1.1340001,11.151001,-0.286825,0.0583,0.20735
0.08400001,-1.20105,6.0360003,-0.021724999,0.392975,-0.2893
-0.69000006,0.034950003,4.3699503,-0.2206875,-0.0768625,-0.2497
0.32595003,-1.01205,5.57595,-0.003575,-0.095699996,-0.79461247
-0.81705004,-1.2760501,9.40905,0.036025,-0.379225,-0.6072
-0.384,0.09705,9.093,-0.201025,-0.111237496,0.721875
0.21795002,-1.00995,10.28205,0.2858625,0.238975,-0.5718625
0.22305001,-1.2589501,10.351951,-0.10065,-0.1654125,0.406725
-0.09705,-0.63600004,9.76095,-0.038775,-0.043725,0.194425
0.14205001,-0.79395,9.61695,0.0746625,0.0017875,0.089237496
0.012,-0.354,9.753,0.0644875,-0.0765875,0.1643125
0.16995001,-0.555,9.555,0.1618375,0.0075625,-0.2030875
-0.11595,-0.34905002,9.703051,0.0671,-0.004675,0.138875
0.094050005,-0.49995002,9.712951,0.07425,0.0397375,0.1516625
0.04605,-0.522,9.80595,0.0204875,0.0092124995,-0.235125
-0.042000003,-0.31605002,9.712951,-0.0169125,0.0045375,0.1062875
0.04095,-0.40905002,9.95205,0.0705375,0.0581625,0.031075
0.0,-0.261,9.79605,0.045925,-0.0100375,0.0884125
0.024,-0.39900002,9.7890005,0.0572,0.0193875,-0.297275
-0.01305,-0.246,10.11495,0.013475,0.004675,8.25E-4
0.058050003,-0.30105,9.993,0.047025,0.0356125,-0.1552375
-0.11805001,-0.10695001,9.604951,0.0286,0.00935,-0.0295625
0.0049500004,-0.18900001,9.7560005,0.054175,0.00935,-0.01045
0.13005,-0.26295,9.801001,0.019524999,-0.0,-0.0589875
-0.094050005,-0.261,9.579,0.0127875,-0.0143,0.130075
-0.09705,-0.072000004,8.88,-0.0385,0.0155375,-0.01815
-0.14205001,-0.32805002,7.8120003,0.019524999,0.0243375,-0.356675
-0.10605001,0.045,5.7660003,-0.0336875,0.0726,-0.276925
-0.16395001,-0.14295001,4.44705,0.0154,0.0400125,-0.2387
-0.62595004,0.648,8.394,-0.021724999,0.0108624995,0.312675
0.39105,-1.6819501,13.818001,0.12925,0.214225,0.3067625
-0.48705003,-0.20805001,14.33205,-0.240625,0.0163625,1.094775
-0.030000001,0.78000003,14.883,0.1276,0.0375375,0.331375
-0.87000006,1.0309501,18.354,0.4246,-0.067375,-0.1959375
0.864,-1.1010001,16.14405,0.2459875,0.00275,-0.2838
0.52905005,-1.33095,12.21405,-0.430925,-0.115775,0.72627497
0.771,-1.2540001,10.74195,-0.3653375,-0.006875,0.2809125
1.4770501,-2.1660001,6.5149503,-0.2619375,-0.0919875,-0.131175
0.076950006,-0.09105001,5.5620003,-0.403975,-0.2237125,-0.0193875
-0.80505,0.354,4.9450502,-0.0385,0.00165,-0.9389875
-0.64995,0.09705,6.558,0.213125,0.1527625,-1.1398749
0.16305001,-0.25605002,9.394051,0.130625,0.0257125,-0.1929125
0.46905002,-0.47595003,10.026,0.1551,-0.063525,0.1166
0.80505,-0.66,10.000051,-0.0103124995,-0.1692625,0.22605
0.46500003,-0.55695003,9.744,-0.0243375,-0.110275,-0.16499999
0.37395,-0.735,10.08405,0.0088,0.00385,0.00495
0.23505001,-0.34395,9.77505,-0.03355,0.0309375,0.2184875
0.26595002,-0.33195,9.70995,0.064625,0.082225,-0.1023
0.21795002,-0.27,9.757951,0.0616,0.0224125,0.1706375
0.3,-0.31995,9.993,0.061049998,0.033275,0.003025
0.20895001,-0.109950006,9.74895,0.0265375,0.0229625,-0.2083125
0.21300001,-0.21000001,9.717,0.0592625,0.015262499,-0.0339625
0.27105,-0.37800002,9.892051,0.0116875,0.0012375,-0.0919875
0.18,-0.46905002,9.98595,-0.0460625,-0.0067375,-0.0933625
0.18,-0.462,10.062,-0.0688875,-0.0100375,0.2894375
0.09105001,-0.411,9.757951,-0.0411125,0.031075,0.2311375
0.21300001,-0.41400003,9.79395,-0.0100375,0.0396,0.0303875
0.27795002,-0.47100002,9.889951,0.0144375,0.0,0.136125
0.17295001,-0.20295002,9.50205,-0.0177375,-0.033275,-0.0012375
0.24000001,-0.13605,9.576,0.05115,0.0011,-0.3405875
0.26805001,-0.177,9.835051,0.0721875,-0.014712499,-0.0675125
0.132,-0.036000002,9.5140505,0.0636625,-0.0121,-0.2035
0.036000002,-0.033,8.961,0.0554125,0.024475,-0.1057375
-0.29505002,-0.009000001,8.379001,0.0215875,0.04015,-0.20405
0.076950006,-0.53295004,7.9579506,-0.016775,0.133375,-0.3064875
-0.63105005,-0.0139500005,5.7990003,-0.2336125,-0.0496375,0.2803625
0.17295001,-0.41400003,4.5040503,-0.067925,0.122237496,0.0133375
-0.33405003,0.55200005,8.764951,0.0248875,0.042075,0.72833747
0.024,0.126,13.578001,0.469975,0.1830125,-0.1269125
-0.26700002,1.2919501,13.842001,0.1953875,0.0286,0.5011875
-0.537,1.7680501,14.835001,0.2902625,-0.0022,0.32175
0.38805002,2.46705,16.657051,0.147675,-0.0501875,0.496375
-0.82905006,-0.43995002,15.94305,-1.375E-4,-0.175725,0.1117875
0.94095004,-1.08405,11.853001,-0.34155,0.183975,0.3290375
-0.61395,-1.69395,10.18395,-0.446875,-0.0831875,0.473825
-0.11595,-0.55005,3.9510002,-0.36795,0.1706375,-0.082225
1.4170501,-0.85695004,5.33895,0.0856625,0.3201,-1.0764875
1.6210501,-0.40695003,7.4359503,0.0743875,-0.190575,-1.14675
1.3909501,-0.28905,10.1629505,0.238425,-0.2552,-0.5196125
0.36195,-0.32295,10.13895,0.1929125,-0.227425,0.098725
0.915,-0.261,9.739051,0.004125,-0.1357125,0.549725
-0.49695003,0.34605002,9.705001,-0.0598125,-0.136125,0.4060375
0.26595002,-0.25800002,9.688951,0.084975,0.2363625,-0.1502875
0.20895001,-0.16695,10.243951,-0.079475,-0.0020625,0.364925
0.16605,0.078,9.83205,0.011,0.054175,0.051425
0.17295001,-0.08295,9.648001,0.0485375,0.0295625,-0.1992375
0.00795,0.09705,9.63105,-0.0301125,-0.054449998,-0.02145
0.14895001,0.076050006,9.81105,0.0158125,-0.0286,0.0056375
0.063,0.022950001,9.765,-0.022824999,-0.0089375,-0.0748
0.13395001,-0.012,9.528001,-0.0253,0.0023375,-0.2052875
0.12495001,-0.028050002,9.48495,0.0,0.0033,-9.625E-4
0.19905001,-0.21300001,9.942,-0.0028875,-0.011825,0.102437496
-0.00795,-0.12900001,9.736951,-0.059125,0.0240625,0.0961125
0.015000001,-0.30600002,9.904051,-0.0323125,0.061325,-0.00165
-0.20895001,-0.043050002,9.744,-0.054175,0.0435875,-0.0875875
-0.34605002,0.094950005,9.95895,0.0633875,0.117975,-0.196625
0.43800002,-0.41400003,10.60095,0.079475,0.10175,-0.31515
0.10605001,0.23895001,9.574051,0.002475,-0.0807125,-0.018975
0.22305001,0.32505003,8.583,0.111375,-0.088,-0.1161875
-0.52005005,0.36600003,5.385,0.1423125,-0.072875,-0.2828375
0.39495003,-0.31305,4.2190504,-0.1544125,0.0279125,-0.066275
-0.12795001,-0.708,4.566,-0.160875,-0.02695,0.0375375
-2.6940002,2.6179502,6.498,-0.17545,0.2501125,0.8448
-2.3040001,-0.29205,15.532051,0.964975,0.527725,-0.9845
-2.1979501,3.1519501,16.396051,-0.2344375,0.036575,1.391775
-0.98205006,0.21495001,19.584002,0.474925,0.0407,-0.328075
-3.2320502,-0.0139500005,16.803001,-0.359425,-0.0290125,0.79365
-0.93195003,-1.43595,11.812051,-0.3224375,0.2528625,0.2080375
1.07295,-1.4070001,5.991,-0.473275,-0.0174625,0.425425
-1.03005,0.17895001,3.9100502,-0.43614998,-0.4131875,-0.014025
-0.006,-0.08805001,2.56995,0.109175,-0.0466125,-1.5153875
0.93405,0.555,5.34705,0.2619375,-0.085525,-1.4452626
0.11505,-0.9480001,10.213051,0.062975,-0.2847625,-0.2123
-0.46305,-0.63900006,11.295,0.117425,0.66715,-0.2778875
1.0129501,-0.78705,9.49005,-0.001925,0.1142625,0.371525
0.29700002,-0.282,9.922951,-0.1678875,-0.38115,0.90956247
0.04095,0.15,9.17205,0.0713625,-0.08195,0.1970375
0.43800002,0.00405,10.014001,0.209825,0.0180125,0.0122375
0.51705,0.022950001,10.10295,0.16775,-0.0248875,0.32395
0.058050003,0.126,10.31595,0.12045,-0.0121,-0.0174625
0.063,0.10695001,9.934951,0.0699875,0.0702625,-0.1381875
-0.039,0.34395,9.47805,0.0518375,0.0793375,-0.1615625
0.10095,0.18795002,9.736951,0.045925,0.0466125,-0.35915
-0.027,0.14295001,9.435,0.01925,-0.0138875,-0.0286
-0.051000003,0.31305,9.946951,-0.027224999,-0.0468875,0.0752125
0.16305001,0.411,9.889951,-0.02035,0.0176,0.089375
0.052950002,0.13305001,10.258051,0.086899996,0.0176,-0.2509375
-0.054,0.46095002,9.33195,0.03795,0.021724999,0.0268125
0.24705002,0.13800001,9.922951,0.077275,0.06655,0.115775
-0.22800002,0.291,10.09095,-0.0704,-0.0385,0.1783375
-0.21405001,0.49500003,9.705001,-0.00825,0.0746625,0.0350625
-0.63795,0.22695,9.637951,0.0842875,0.086625,-0.099825
-0.231,0.246,8.68305,-0.081125,0.124575,0.5042125
0.06705,0.73200005,9.555,-0.0633875,-0.047575,-0.1865875
0.024,0.39195,10.17195,0.180125,-0.0361625,-0.288475
-0.68805003,0.21705002,9.87495,-0.0581625,-0.0906125,0.22659999
0.12495001,-0.060000002,9.99495,0.0361625,0.158675,-0.02805
0.015000001,-0.124050006,9.399,-0.17325,-0.1071125,0.4184125
-0.33105,1.30095,7.9800005,-0.161975,-0.0100375,0.3194125
-0.46305,0.102000006,11.689951,0.1874125,0.0726,-0.179575
-1.3990501,0.98805004,9.98295,0.157025,0.1813625,-0.309375
0.38295,0.49995002,9.49005,0.0999625,0.113299996,-0.2536875
-0.85095006,0.93000007,9.727051,-0.0262625,-0.24653749,0.182325
-0.23595001,0.46395,9.48495,0.1288375,0.1362625,-0.1865875
-0.264,0.63405,9.351001,-0.013062499,0.0132,-0.011825
-0.324,0.53805,8.667001,0.11,0.0064625,-0.19525
-0.18105,0.04695,7.5100503,-0.15853749,-0.001375,0.185075
-0.17595,0.19995001,7.55595,-0.1139875,-0.01155,0.2985125
-0.79800004,0.44700003,7.4890504,-0.143825,-0.0319,0.179575
-0.17595,0.030000001,8.89395,-0.0336875,0.0963875,0.0801625
-0.597,0.39705002,10.9789505,-0.04675,-0.039875,0.18287499
-0.65895003,0.65505004,11.314051,0.0581625,0.032725,0.2464
-1.674,1.69395,11.673,0.122237496,0.0422125,0.2866875
-0.59505004,2.0359502,11.3209505,0.350075,0.221925,0.1258125
-0.82005006,2.7210002,12.085051,0.374275,-0.088825,-0.2239875
-0.68595004,2.18505,13.54695,0.2762375,-0.141075,-0.18095
-1.5660001,0.42495003,15.465001,-0.0166375,-0.0325875,-0.0034375
-0.051000003,0.52395004,11.47395,-0.3471875,0.2685375,0.3166625
-1.09305,0.22395001,10.030951,-0.24447499,-0.121825,-0.3014
-1.521,-0.052050002,8.6310005,-0.2921875,0.081675,0.1148125
1.14195,-1.09395,5.229,-0.26455,0.2897125,0.176
-0.135,0.23595001,5.8180504,-0.399575,-0.33275,0.00825
0.0049500004,0.231,8.559,-0.013475,-0.2223375,-0.4882625
-0.10605001,0.30795002,10.13895,0.2479125,0.015125,-0.81345
0.57705003,0.25995,10.561951,0.2520375,-0.0086624995,-0.5845125
0.07005,0.708,9.121051,0.1126125,-0.20735,0.09185
0.38805002,0.36105,9.448951,0.12705,-0.1197625,-0.1566125
-0.027,0.47595003,9.684,-0.0066,-0.1265,0.3768875
0.003,0.39705002,9.736951,0.0176,0.0284625,0.31515
-0.15405001,0.38700002,9.97095,-0.0253,0.04895,0.253825
0.075,0.31305,9.63105,-0.010725,0.0853875,-0.1018875
0.003,0.15495001,10.026,-0.0064625,0.03025,-0.1863125
-0.18495001,0.33195,9.745951,-0.0463375,0.023924999,-0.18315
0.00795,0.423,9.89505,-0.0286,0.036025,0.0754875
-0.11595,0.31500003,9.969001,-0.0078375,0.02145,-0.045375
0.112950005,-0.097950004,10.030951,0.052525,0.0408375,-0.0474375
-0.21900001,0.30600002,9.897,-0.020624999,-0.003025,0.1373625
0.094050005,0.22905001,10.06005,-0.02145,0.013475,0.24695
0.034050003,0.47295,9.727051,0.015675,-0.02145,-0.0295625
-0.022950001,0.20295002,9.777,0.034375,-0.0199375,0.14533749
-0.049050003,0.483,9.607051,-0.0204875,-0.0055,0.199375
0.06705,0.24795002,9.9210005,0.100099996,0.03135,-0.3738625
-0.40605003,0.38205,9.241051,-0.0325875,0.00935,-0.2391125
-0.31905,0.105000004,8.109,-0.0177375,0.0605,-0.16445
-0.252,-0.16995001,6.5340004,-0.067925,0.0606375,0.0820875
-0.13695,0.231,5.4739504,-0.0928125,0.0897875,0.282425
-1.00605,0.74595004,6.2370005,0.084425,0.12925,0.12925
-0.84105,1.04295,9.769951,0.18933749,0.2121625,0.3130875
-0.18495001,0.49005002,13.2960005,0.122925,0.057475,0.4299625
-0.906,1.57395,12.56595,0.0650375,-0.11275,0.3689125
0.37395,2.7930002,14.698951,0.4112625,-0.0268125,0.0048125
-0.24495001,3.1230001,17.42505,0.46915,-0.4153875,-0.4829
-1.9420501,0.777,14.512051,0.1021625,-0.0196625,-0.2743125
-0.64995,0.55005,10.62705,-0.5132875,0.37661248,0.5259375
-0.06105,0.094950005,9.873,-0.3196875,0.1456125,0.109175
0.61095005,-1.386,8.832001,-0.190025,0.08415,-0.4021875
-0.11805001,-0.651,5.9880004,-0.5709,-0.14795,0.093775
-0.90300006,0.45900002,6.9030004,-0.4065875,-0.221375,-0.2519
-0.564,0.72900003,6.5220003,0.1995125,0.1716,-1.352725
-0.10605001,0.19995001,8.39595,0.4928,0.0598125,-1.4370124
-0.12105001,0.27495003,10.231951,-0.0114124995,-0.2418625,0.5861625
-0.21405001,0.39900002,10.31295,0.073699996,-0.1478125,0.2915
0.13695,0.44205,9.45705,0.061049998,-0.037675,0.17173749
0.15105,0.57105005,9.607051,0.0889625,-0.0452375,0.2063875
0.20895001,0.29895002,9.880051,0.0617375,-0.082225,-0.072875
0.18195,0.279,10.29405,-0.02365,-0.0396,0.14135
0.02205,0.16395001,9.99495,-0.0298375,0.0554125,0.2239875
-0.126,0.25995,9.70995,-0.072875,0.0297,0.1315875
-0.16905001,0.34605002,9.835051,-0.009075,0.0581625,-0.005775
-0.12105001,0.39900002,9.77505,0.0086624995,0.0411125,0.059125
-0.39105,0.64995,9.186001,0.0273625,0.0132,0.020624999
0.01695,0.342,9.792001,0.0411125,0.001375,-0.117425
-0.291,0.96195006,9.36795,0.0105875,-0.0405625,-0.0537625
0.063,0.85605,10.074,0.216975,0.0532125,-0.19745
0.156,0.78705,9.98595,0.102575,-0.008525,0.1948375
-0.19500001,1.0210501,9.550051,0.0517,-0.0567875,0.0037125
0.048,0.717,9.99495,0.0457875,0.0210375,-0.0878625
-0.13005,0.90405005,9.604951,-0.015262499,-0.0235125,0.00275
0.07005,0.62595004,9.613951,0.0350625,0.0539,0.13859999
-0.0010500001,0.46095002,9.129001,-0.0688875,-0.0257125,0.1747625
-0.08205,-0.32805002,10.134001,-0.176,0.0121,-0.1637625
-0.078,-0.708,10.02105,-0.386375,0.044,0.1815
-0.025050001,-0.81105006,10.078951,-0.4321625,-0.0275,0.2052875
-0.058050003,-0.54300004,9.777,-0.28545,-0.0438625,0.060775
-0.09195001,-0.708,10.017,-0.054725,0.039875,-0.0917125
-0.10605001,-0.44700003,9.89505,-0.060775,0.009075,-0.07425
-0.17805001,-0.057000004,8.97105,-0.0097624995,-0.02365,-0.288475
-0.23295002,-0.021000002,8.820001,0.154,0.028324999,-0.0383625
-0.23805001,0.15,9.436951,0.185625,0.0309375,-0.2380125
-0.279,-0.012,9.96405,0.20899999,0.073975,-0.3205125
-0.16605,0.00405,9.78195,0.0490875,0.0259875,0.1546875
-0.087000005,-0.201,10.222051,-0.009075,-0.0097624995,-0.0133375
-0.135,-0.028050002,9.79605,-0.0199375,-0.010175,-0.0565125
-0.22095,-0.040050004,10.09305,0.0031625,0.0045375,0.0169125
-0.123,0.112050004,9.691051,0.0224125,0.027224999,-0.051975
-0.21900001,0.15495001,9.660001,0.0389125,0.0033,0.046475
-0.16605,0.31305,8.68095,0.0771375,0.015262499,-0.09405
-0.37395,0.162,7.7790003,0.082499996,0.0114124995,-0.38747498
-0.33600003,0.052050002,5.5999503,-0.0743875,-0.0044,-0.088825
-0.58305,-0.43800002,5.5410004,-0.1148125,0.1123375,0.2077625
0.027,-0.59295005,8.025001,-0.21133749,0.1907125,0.6073375
-0.47295,-0.20295002,11.874001,-0.0193875,-0.0287375,0.46035
-0.171,-0.54105,13.887001,0.0474375,-0.0573375,0.3224375
-0.86505,1.5000001,13.573951,-0.0215875,-0.077,0.3982
0.29700002,1.02405,14.767951,0.3806,0.0595375,-0.2138125
-1.3939501,0.61395,14.863951,0.277475,-0.2226125,-0.3982
-0.231,-1.917,13.48995,-0.0746625,0.1742125,0.0548625
-0.35505003,-1.2870001,12.373951,-0.56993747,0.0424875,0.664125
-0.669,-1.4770501,9.267,-0.306075,-0.03025,-0.144375
-0.73605,-0.69600004,5.7439504,-0.2926,0.1269125,-0.113437496
-0.46095002,-0.76305,6.08895,-0.1777875,0.17105,-0.190025
1.2739501,-1.1410501,7.5780005,0.014575,0.2239875,-0.7753625
0.27105,-1.5700501,10.548,0.2547875,-0.221925,-0.9326625
-0.80505,0.39900002,9.46605,0.078375,-0.33275,-0.089375
0.606,-0.67005,9.6,0.3389375,0.1013375,-0.7704125
-0.231,-0.43500003,9.613951,-0.0473,-0.2776125,0.38665
0.22800002,-0.74700004,9.99495,0.040975,0.1007875,-0.09955
0.13905,-0.85200006,10.242001,-0.017875,-0.027224999,-0.0451
0.28995,-0.77805007,9.990001,-0.0462,-0.0416625,0.28325
0.027,-0.51195,9.48495,0.0099,-0.0176,0.131175
0.13395001,-0.78705,9.95895,0.0528,0.0504625,-6.875E-4
0.13005,-0.47805002,9.83205,0.021175,0.00385,0.1337875
0.13395001,-0.69105005,9.8869505,0.0559625,0.0374,-0.2464
0.076950006,-0.53805,9.739051,-0.013475,-0.0116875,0.1901625
0.058050003,-0.60105,9.847051,0.034649998,0.0262625,0.1093125
-0.043950003,-0.51900005,9.67395,-0.0174625,-0.00715,0.13585
0.12195001,-0.74700004,10.186951,0.020624999,0.0045375,0.2248125
-0.22605,-0.29205,9.40905,-0.0042625,-0.003025,0.2921875
-0.11595,-0.60795003,10.087951,0.0584375,0.060775,-0.0903375
-0.18105,-0.43305,9.724951,-0.0380875,0.0180125,0.0275
-0.16905001,-0.58395004,9.847051,-0.0012375,0.0138875,0.0022
-0.10395,-0.273,9.385051,0.0204875,0.0198,-0.0886875
-0.109050006,-0.47805002,9.904051,0.0655875,-0.0185625,-0.0385
-0.216,-0.36405003,9.901951,0.0463375,0.0281875,-0.28215
-0.15900001,-0.483,10.13895,0.02365,0.0215875,-0.0229625
-0.19305001,-0.21300001,9.981001,0.02145,0.0218625,-0.0191125
-0.23595001,-0.16695,9.82005,0.0463375,0.028324999,0.009075
-0.126,-0.25800002,9.84195,0.05995,0.0160875,-0.2781625
-0.13995,-0.21795002,9.981001,0.0119624995,-0.0345125,-0.0066
-0.17805001,-0.186,9.94995,0.029975,0.0061875,0.36574998
-0.27195,-0.14595,9.78195,0.0361625,0.0094875,-0.0749375
-0.094050005,-0.30405003,9.93795,0.014575,0.014712499,0.0341
-0.20700002,-0.14295001,9.969001,-0.021175,-0.027775,0.0441375
-0.16605,-0.18195,9.8560505,0.0133375,0.005225,-0.1450625
-0.264,-0.165,9.897,-0.0103124995,-0.00605,0.337975
-0.25995,-0.13905,9.670051,-0.010175,0.011,0.113437496
-0.26700002,-0.17205001,9.67905,-0.0012375,0.0055,-0.1544125
-0.252,-0.12705001,9.81105,0.009625,0.0121,0.070675
-0.25500003,-0.12705001,9.81795,0.0077,-0.0094875,-0.032449998
-0.19305001,0.07395,9.625951,0.010725,-2.75E-4,-0.301675
-0.06105,-0.07395,9.279,0.072325,-0.0105875,-0.208725
-0.36,-0.16995001,8.01105,0.0182875,-0.0363,-0.089237496
-0.36195,-0.057000004,5.3370004,-0.03795,0.0754875,-0.1120625
-0.34095,-0.031050002,5.81295,-0.0793375,0.071775,0.032725
-0.702,-0.072000004,7.9510503,-0.0507375,0.0259875,0.4747875
-0.83400005,-0.18900001,10.177051,-0.066275,-0.059675,0.768625
-1.69305,0.564,11.52,-0.06875,-0.016224999,0.67815
-0.657,0.88005006,12.681001,0.1731125,0.2253625,0.125675
-0.37695003,1.46895,14.016001,0.3353625,0.100375,0.0262625
-0.906,1.3759501,15.847951,0.3933875,-0.0633875,0.1838375
-1.96395,-0.13395001,16.173,0.0724625,0.0015125,0.11605
-1.0519501,-0.24405001,12.847951,-0.307175,0.326425,0.432025
-1.0159501,-0.08295,9.66705,-0.2935625,-0.016775,0.0424875
-2.2099502,0.19095,7.3429503,-0.2608375,-0.08965,-0.1951125
0.77595,-0.66300005,5.4810004,-0.0933625,0.3364625,-0.5190625
-0.40095,-0.66300005,5.9809504,-0.0378125,-0.3716625,-0.9161625
-0.85995007,-0.65295005,7.93905,-0.080025,-0.1508375,-0.303875
-0.15405001,-0.057000004,9.0070505,-0.3727625,-0.19195,0.5665
-0.51105005,0.33,10.43595,0.1337875,-0.098037496,-0.4156625
0.08205,-0.74895006,10.333051,0.395175,0.07205,-0.73755
-0.051000003,-0.28005,10.323001,-0.1326875,-0.1155,0.2853125
-0.08205,-0.21300001,9.660001,0.036849998,-0.045925,-0.0856625
0.14205001,-0.25095,9.672001,0.0114124995,-0.068475,0.1280125
-0.24795002,0.0019500001,9.916051,-0.0182875,-0.1056,0.08965
-0.16605,-0.246,9.901951,0.0930875,0.062975,-0.0823625
-0.066,-0.162,9.591001,-5.5E-4,0.054175,0.15895
-0.20895001,-0.15300001,9.861,0.0446875,0.0265375,0.0026125
-0.22095,-0.094950005,9.84,0.001925,0.0400125,0.0501875
-0.07305,-0.25605002,10.00695,0.017875,0.006875,0.11935
-0.23295002,0.018000001,9.825001,-0.0048125,-0.0075625,-0.0022
-0.24000001,0.0019500001,9.828,0.0270875,-0.0034375,-0.12045
-0.13005,0.021000002,9.741,0.0303875,0.0028875,-0.082775
-0.20505,-0.094950005,9.835051,0.0320375,-0.0108624995,-0.22659999
-0.18795002,0.081,9.708,0.0015125,0.0022,0.2685375
-0.171,-0.060000002,9.79605,0.0072875,-0.01045,0.2297625
-0.20895001,0.069000006,9.712951,-0.0034375,0.007425,0.0847
-0.40800002,0.018000001,9.92595,0.0199375,0.0264,-0.027775
-0.42705002,0.102000006,9.691051,0.010175,0.0529375,-0.084975
-0.38895002,0.08505,9.768001,0.007975,0.0449625,-0.0565125
-0.324,0.102000006,9.660001,0.0163625,0.0207625,0.1265
-0.43005002,0.08805001,9.50895,0.02805,-0.020075,0.0504625
-0.22095,-0.033,8.652,0.0198,0.0312125,-0.0086624995
-0.52005005,-0.08595,7.3639503,0.0237875,0.0158125,-0.3108875
-0.063,-0.11505,6.10995,-0.1381875,0.1475375,0.2322375
-0.13005,0.069000006,7.42395,-0.0583,-0.038775,0.100237496
-0.83895004,1.24905,8.19495,0.2297625,-0.14533749,-0.0633875
-1.6530001,0.804,10.917001,0.5517875,0.1230625,-0.49101248
-0.753,1.3369501,12.303,-0.0097624995,0.304975,0.5808
0.07005,2.4499502,14.586,0.198825,0.003025,0.2523125
0.57705003,2.13,17.24295,0.375925,-0.208725,-0.2431
-1.6099501,-0.33195,17.608952,0.0765875,-0.08525,0.117425
0.11805001,-0.75105006,12.754951,-0.699875,0.1137125,0.9172625
-1.164,0.061950002,8.47995,-0.571175,-0.067375,0.582725
-3.0670502,0.93495005,6.912,-0.2171125,0.147125,-0.33165
0.44595003,-0.96000004,5.95695,0.1309,0.5955125,-1.0218999
0.35505003,-0.72705,6.8689504,-0.199375,-0.1296625,-0.57145
-0.49695003,-0.043050002,9.591001,0.1276,-0.271425,-0.3366
-0.010950001,0.26700002,9.3490505,0.1662375,-0.20693749,0.28435
0.27795002,0.72195005,9.01395,0.197725,-0.1035375,0.1232
0.04605,-0.30405003,10.17,0.1645875,-0.2187625,0.11935
0.08895,0.53505003,9.61905,-0.0341,0.0028875,0.429275
0.30705002,-0.031050002,10.201051,0.1387375,-0.02915,-0.4005375
-0.126,0.47805002,9.724951,-0.0622875,-0.0534875,-0.0515625
0.0,0.13305001,9.703051,0.0045375,0.0611875,0.098175
0.16605,-0.052050002,10.219951,-5.5E-4,0.073425,0.20405
-0.36,0.67200005,9.993,-0.0548625,-0.0105875,-0.0539
0.29700002,0.126,10.13895,0.14025,0.104499996,-0.2816
0.22305001,0.109050006,9.80595,-0.033275,-0.07535,-0.050325
0.010050001,0.23400001,9.918,-0.0397375,-0.0176,-0.0160875
0.109950006,0.21705002,9.910951,0.0251625,0.034925,0.071775
0.048,0.44205,9.693001,0.0042625,0.0023375,0.115775
0.17295001,0.26700002,9.574051,0.0875875,0.0273625,-0.17435
0.13905,0.48000002,9.672001,0.0418,-0.0290125,0.087725
-0.17595,0.77505004,9.83205,0.0584375,-0.032449998,0.0015125
-0.27600002,0.78000003,8.820001,0.0468875,0.002475,-0.4852375
0.00795,0.36795002,8.944051,0.050325,0.0213125,-0.12485
-0.35505003,0.29595003,7.4700003,-0.0636625,-0.0171875,-0.1560625
-0.102000006,0.066,5.8969502,-0.099825,0.078925,-0.158125
-0.31500003,0.38895002,7.056,-0.0512875,0.0697125,0.106837496
-0.39600003,0.018000001,8.487,-0.0265375,0.1122,0.3309625
-0.39405003,-0.32805002,11.022,-0.0653125,0.1079375,0.39325
-0.40800002,0.20805001,11.910001,-0.172975,-0.012375,0.5080625
-0.597,0.94005007,11.280001,0.002475,-0.0317625,0.408925
-0.55395,1.6680001,13.954051,0.345125,0.1241625,-0.0675125
-0.38205,1.1910001,15.64395,0.3513125,-0.0592625,-0.2277
-2.04795,-0.08595,17.13495,0.0320375,-0.055825,0.210375
-0.303,-0.10305001,11.95995,-0.3749625,0.20075,0.520575
-1.33395,0.67395,8.997001,-0.36685,-0.113575,0.4351875
-1.5450001,0.43005002,7.9870505,-0.0361625,0.0823625,-0.0202125
0.61305004,0.64095,5.5260005,0.0418,0.1546875,-0.2919125
-1.84395,0.52395004,6.168,0.17545,-0.4395875,-1.2090375
-1.365,0.78405005,5.45205,-0.06325,0.122237496,-0.4904625
0.46005002,0.39195,9.093,-0.1313125,0.1139875,0.4857875
0.08400001,-0.615,11.722951,-0.016775,-0.41085,-0.0045375
0.14400001,-0.060000002,9.45705,-0.0867625,-0.076175,0.2690875
0.24705002,0.22200002,9.777,-0.0237875,-0.0416625,-0.2407625
-0.13995,0.13800001,9.66195,0.12773749,-0.056649998,-0.27101249
-0.41505003,0.094950005,10.30395,0.0378125,0.070125,0.2123
-0.042000003,-0.094950005,10.17,0.01155,0.1863125,0.0567875
0.12195001,0.0019500001,9.61905,-0.0653125,-0.01045,0.028324999
-0.31905,0.064050004,9.423,-0.01925,-0.0818125,-0.0864875
-0.14205001,-0.079050004,9.78705,-0.0015125,0.0138875,-0.052249998
-0.40095,0.076050006,9.784051,-0.004125,0.055,0.0144375
-0.31500003,0.010950001,9.916051,0.02255,0.0752125,-0.2539625
-0.171,-0.03795,9.94995,-0.002475,0.032725,-0.0165
-0.26700002,0.15195,9.66705,-0.0218625,-0.0496375,-0.1331
-0.33105,0.054,9.636001,0.043725,-0.005225,0.0891
-0.36195,0.303,9.0400505,9.625E-4,0.0143,0.0319
-0.30495003,0.294,9.559051,0.0809875,0.0438625,-0.21807499
-0.126,0.102000006,9.424951,0.0477125,-0.0075625,0.0297
-0.18795002,0.022950001,7.9339504,0.0125124995,-0.027224999,0.0572
-0.04695,-0.06705,7.2949505,-0.1423125,-0.11055,0.4112625
-0.55605,0.98100007,6.663,0.0444125,-0.1450625,0.0506
-0.28095,0.42495003,7.6489506,0.38665,0.13365,-0.7414
0.12195001,0.492,9.5140505,0.1005125,0.15785,0.0639375
0.61305004,0.38895002,11.082001,0.0268125,0.082499996,0.6241125
-0.59505004,1.35195,11.754001,0.0798875,-0.175175,0.2330625
-0.18105,2.127,12.4800005,0.1463,-0.0559625,0.3257375
-0.54405004,3.2950501,14.881051,0.305525,0.0056375,0.095425
-0.67605,0.88005006,16.59,0.198,-0.016775,-0.1874125
-0.32700002,-0.043050002,13.36995,-0.4131875,0.1651375,0.28393748
0.003,0.32205,10.201051,-0.42625,0.0385,0.41085
0.45000002,-1.3260001,8.16405,-0.0350625,0.0715,-0.30305
0.24705002,-0.20595,5.3560505,-0.395725,0.01485,0.2459875
-1.02795,0.279,4.3510504,-0.263725,-0.1648625,-0.6081625
-0.37695003,0.094950005,7.15395,0.0818125,0.2509375,-0.9939875
0.39795002,0.25305,9.141001,-0.11605,-0.1419,0.347875
-0.46305,0.44505003,9.765,0.0444125,-0.3515875,-0.1186625
0.35895002,0.23895001,9.981001,0.19415,0.0672375,-0.06875
0.036000002,0.052050002,9.78705,0.0323125,-0.1095875,0.15895
0.14595,0.22695,9.765,-0.032725,0.0119624995,0.2189
0.043050002,0.061950002,10.1320505,-0.0015125,-0.0204875,-0.1313125
-0.010950001,0.44700003,9.67395,-0.0204875,0.0196625,0.2267375
0.096,0.19800001,9.80805,0.104775,0.02915,-0.2880625
0.01905,0.36105,9.942,-0.012925,8.25E-4,-0.15853749
