@ HyperIMU - ianovir
@ Date:Wed Aug 16 09:25:42 GMT+03:00 2023, Sampling Rate:100ms

bma4xy_accelerometer.x,bma4xy_accelerometer.y,bma4xy_accelerometer.z,oem_pseudo_gyro.x,oem_pseudo_gyro.y,oem_pseudo_gyro.z
-0.41805002,-0.117000006,9.90705,-1.02905,1.1224124,7.7397375
-0.22800002,-0.342,9.804001,-0.93128747,0.6463875,7.4309125
-0.216,-0.31305,9.591001,-0.5841,0.1604625,3.6631374
-0.33405003,-0.32805002,9.993,-0.2883375,-0.070125,1.3800875
-0.55605,-0.031050002,9.66195,-0.2046,-0.0691625,0.7524
-0.41295,-0.15495001,10.026,0.0193875,0.0873125,-0.0386375
-0.18495001,-0.18405001,9.613951,0.0072875,0.0,-0.08305
-0.31005,-0.20295002,9.909,0.0097624995,-0.038775,-0.03795
-0.39600003,-0.072000004,10.210951,-0.014025,-6.875E-4,0.1057375
-0.21195,-0.21000001,9.772051,-0.00385,0.004675,0.036575
-0.25005,-0.060000002,9.61905,-0.0169125,-0.02915,0.02365
-0.45105,-0.076050006,10.155001,0.0331375,0.002475,-0.111925
-0.279,-0.094950005,9.721951,0.0697125,0.029975,-0.1313125
-0.18495001,-0.13905,9.83205,0.00715,-0.0240625,-0.029424999
-0.16605,0.0,9.637951,-0.022824999,-0.060225,0.2413125
-0.094050005,-0.052050002,9.595051,-0.0031625,-0.01705,0.1035375
-0.11400001,-0.14595,9.880051,0.0196625,0.00605,-0.100099996
-0.21405001,-0.105000004,9.732,-0.007425,0.006325,-0.109037496
-0.20895001,-0.043050002,9.504001,-0.01265,-4.125E-4,0.054175
-0.36,-0.09105001,9.80595,0.0099,0.0158125,-0.1398375
-0.20895001,-0.15795001,9.942,0.0037125,0.0411125,-0.1876875
-0.42000002,0.00405,9.873,-0.0070125,0.0048125,0.1683
-0.19305001,-0.21795002,10.045051,0.0231,0.040425,0.0165
-0.16395001,-0.14595,9.75105,-0.0303875,-0.022,0.1758625
-0.24000001,-0.13395001,9.768001,-0.0383625,-0.0633875,0.20185
-0.19005,-0.12195001,9.625951,0.0012375,-0.00275,-0.02695
-0.22395001,-0.094950005,9.745951,0.01485,-0.0160875,0.051975
-0.31005,-0.03795,9.873,0.026124999,0.0026125,-0.1854875
-0.24795002,-0.040050004,9.75105,0.017324999,0.034649998,-0.0372625
-0.29805002,-0.0139500005,9.67905,0.0070125,0.016224999,0.039049998
-0.264,-0.109950006,9.835051,0.0012375,0.00275,0.0066
-0.171,-0.057000004,9.753,-0.0022,0.0017875,-0.1109625
-0.10605001,-0.109950006,9.859051,-0.018424999,-0.0364375,0.1777875
-0.252,-0.14805001,9.715051,-0.0056375,-0.01705,0.0165
-0.075,-0.177,9.79905,-0.0264,-0.001375,0.0154
-0.066,-0.22905001,9.81795,-0.02145,-0.027775,-0.0237875
-0.21900001,-0.24405001,10.134001,-0.0345125,-0.011275,0.117975
-0.075,-0.39000002,9.849001,-0.0724625,0.0034375,-0.1029875
-0.19695,-0.40695003,9.8869505,-0.082499996,-0.0083875,0.059125
-0.23805001,-0.34695002,9.693001,-0.048675,0.0132,0.10835
-0.19005,-0.37605003,9.835051,-0.007975,0.0078375,0.0116875
-0.18495001,-0.38295,9.8869505,0.0070125,0.0092124995,-0.121
-0.079950005,-0.36405003,9.468,-0.0067375,0.005225,0.0526625
-0.22095,-0.25605002,9.721951,0.0119624995,-0.0248875,0.061325
-0.24300002,-0.23895001,9.86295,0.0341,0.0193875,-0.1670625
-0.18795002,-0.25800002,9.733951,0.0213125,0.00825,-0.220275
-0.14895001,-0.22905001,9.79605,0.01815,-0.0144375,0.1560625
-0.11400001,-0.29895002,9.892051,-0.002475,-0.0199375,0.076175
-0.15900001,-0.27,9.877951,0.002475,-0.0067375,0.026124999
-0.147,-0.36405003,9.87495,0.0061875,0.004125,0.0017875
-0.21195,-0.18405001,9.74895,-0.013612499,-0.0061875,0.0226875
-0.22605,-0.27,9.736951,0.0075625,0.0125124995,0.0188375
-0.21195,-0.22005,9.613951,0.004675,0.0012375,0.078099996
-0.15405001,-0.34695002,9.94005,0.0023375,-0.0,0.0196625
-0.24795002,-0.36795002,9.922951,-0.032449998,-0.0125124995,0.1368125
-0.18795002,-0.32505003,9.837001,-0.0240625,0.0094875,0.033275
-0.312,-0.28905,9.727051,-0.0114124995,0.0105875,0.07755
-0.20205002,-0.35895002,9.981001,-0.0031625,0.0180125,-0.1332375
-0.21195,-0.354,9.79395,0.005775,0.0078375,-0.11055
-0.11595,-0.402,9.84,0.0042625,0.0017875,-0.0704
-0.19695,-0.39705002,9.84405,-0.014575,-0.014712499,0.0977625
-0.28095,-0.22005,9.78705,-0.0045375,0.0232375,-0.0704
-0.453,-0.036000002,9.70995,0.0499125,0.0411125,-0.047849998
-0.46305,-0.261,9.804001,0.0790625,0.078375,-0.2063875
-0.20505,-0.37605003,9.7560005,-0.0053625,0.0462,-0.1610125
-0.37905002,-0.22200002,9.801001,-0.0182875,-0.019524999,-0.049775
-0.39105,-0.124050006,9.7890005,0.0242,0.0026125,-0.042625
-0.43905002,-0.22500001,9.825001,0.0306625,0.015125,-0.1287
-0.23805001,-0.51000005,9.96405,-0.017875,0.016224999,-0.042625
-0.18300001,-0.32295,9.63405,-0.087175,-0.0807125,0.1951125
0.04095,-0.483,9.897,-0.0078375,-0.0933625,0.1461625
0.10605001,-0.45705003,9.93795,-0.073425,-0.0891,0.2319625
0.063,-1.05495,11.07705,-0.027775,-0.0754875,-0.0396
0.36405003,0.08505,8.644951,-0.142175,-0.109725,0.260975
0.79995006,-0.028050002,9.901951,0.2046,-0.120175,-0.2261875
0.40695003,0.33705002,9.507001,0.123475,-0.22495,-0.048675
-0.19695,0.19995001,10.97595,0.1892,0.0210375,-0.437525
0.13905,-1.6990501,12.184951,0.11,0.2215125,-0.362175
-0.76695,-1.21305,10.15305,-0.48125,0.0996875,0.8025875
-1.7200501,-0.76305,9.19995,-0.2248125,0.372625,0.1986875
-0.72900003,-0.35595003,8.99205,-0.079475,0.4431625,-0.052249998
-0.504,-0.040050004,9.093,0.1522125,0.1115125,-0.2330625
-0.25995,0.066,9.74895,0.2536875,-0.1351625,-0.4802875
-0.042000003,-0.41400003,12.18,0.2220625,-0.237875,-0.495825
0.39105,-1.5340501,13.090051,0.0308,-0.2044625,-0.130075
0.32595003,-1.1530501,9.141001,-0.3810125,-0.1634875,0.730675
-0.41805002,-0.37305,7.5199504,-0.254375,-0.11605,0.613525
0.21300001,0.186,7.7860503,0.0699875,0.00935,-0.0655875
-0.40605003,0.804,8.6310005,0.3218875,-0.1109625,-0.40535
-0.32895002,0.504,9.837001,0.4576,0.1304875,-0.582725
0.81405,-3.7339501,17.37195,0.0754875,0.089925,0.2630375
-1.7340001,-2.6470501,13.594951,-0.9205625,-0.1793,1.8414
0.29700002,0.076050006,6.29895,-0.5336375,0.1078,0.8614375
-0.16605,0.25800002,7.9080005,0.3163875,-0.04015,-0.6870875
0.61095005,0.43995002,9.44205,0.476575,-0.0248875,-0.8316
1.1899501,0.37995002,9.98595,0.392975,-0.2594625,-0.5050375
0.031050002,-1.23705,8.808001,-0.3235375,0.0240625,0.85085
0.86205006,-1.3740001,10.26795,-0.4866125,-0.2074875,1.0506375
0.31605002,0.42105,7.5540004,-0.1148125,-0.2112,0.1813625
0.58695,-0.076050006,10.234051,0.45113748,0.0449625,-1.105225
0.47205,-0.28005,9.64305,0.2454375,0.09955,-0.6903875
0.26805001,-1.524,11.125051,0.003025,0.027224999,0.13859999
-1.116,-1.43595,11.91195,-0.3724875,0.2585,0.9273
0.261,-0.32805002,7.7860503,-0.27513748,0.4643375,0.4879875
0.04605,0.028050002,8.764951,0.2816,-0.020624999,-0.803825
0.076950006,0.20505,10.143001,0.3381125,-0.0719125,-0.871475
0.93600005,0.40905002,11.28495,0.2140875,-0.127875,-0.36685
0.20400001,0.15495001,8.784,-0.2982375,-0.3546125,0.995775
-0.21900001,-0.53595,8.418,-0.142175,-0.0,0.36107498
0.08895,0.24105,6.1390505,-0.005775,0.069299996,0.010175
-0.18105,0.042000003,10.11495,0.230725,0.170225,-0.801075
0.74505,-0.24900001,15.852001,0.2399375,0.2938375,-0.64845
-0.010950001,-1.1340001,11.359051,-0.0884125,0.0438625,0.4758875
-1.605,0.32700002,7.1299505,-0.34553748,0.111237496,1.1781
-0.075,0.66195005,5.48295,0.0991375,0.081125,-0.0011
-0.726,0.22905001,8.83905,0.28765,-0.2044625,-0.51205
-0.82695,0.15705001,11.92695,0.206525,-0.0400125,-0.400125
0.87405,-0.201,13.04205,0.157575,-0.049225,-0.347875
-0.549,-1.1890501,10.816051,-0.1560625,-0.3540625,0.37235
-0.657,-0.34905002,9.217051,-0.400675,0.12979999,0.61765
0.23700002,0.28695002,8.58495,0.0661375,0.3075875,-0.2949375
-0.71205,0.17400001,10.498051,0.3894,-0.0411125,-0.797775
1.48395,-3.0349503,14.524051,0.1439625,0.08085,-0.30855
-1.713,-1.64205,11.57205,-0.7379625,-0.3128125,1.317525
-0.99405,-0.77295005,10.030951,-0.3724875,0.3579125,0.414975
-0.44895002,-0.060000002,8.487,0.1733875,0.2294875,-0.788975
-0.19695,-0.124050006,10.005,0.3914625,0.0358875,-0.779625
1.01505,-0.15300001,9.069,0.1882375,-0.081125,-0.1953875
0.048,-0.009000001,8.545051,-0.211475,-0.4723125,0.5608625
-0.47505003,-1.47195,11.26605,-0.0372625,-0.00495,-0.0955625
-0.28095,0.23400001,7.68795,-0.1527625,0.15785,-0.072875
0.57495004,-0.69900006,9.076051,0.2520375,-0.0154,-0.618475
0.28800002,-0.63900006,13.341001,0.0746625,-0.1901625,-0.0473
0.30195,-2.05095,10.31805,-0.4081,-0.01265,0.58905
0.039,-2.1079502,10.701,-0.3884375,-0.046475,0.749375
0.393,0.018000001,5.6410503,-0.2011625,-0.07975,0.100237496
0.35505003,-0.90705,10.174951,0.33495,-0.060225,-0.70565
0.14205001,0.112050004,12.70905,0.2633125,-0.0226875,-0.23773749
-0.08205,-1.1509501,8.71395,-0.1494625,0.093637496,0.4444
0.034050003,-1.9720501,9.552,-0.24365,-0.181775,0.74909997
0.17295001,0.109050006,6.867,-0.14905,0.0169125,0.4142875
0.109950006,0.109050006,10.49295,0.45155,0.11495,-0.963875
0.32595003,-0.50505,13.614,0.4101625,0.035475,-0.63085
-1.1400001,-2.2110002,13.618951,0.0911625,0.1485,-0.0939125
-1.212,-0.74205005,9.109051,-0.49307498,0.2990625,0.9904125
0.90795004,0.25995,7.1659503,0.0295625,0.142725,0.038225
0.20400001,-0.25305,9.1050005,0.4151125,-0.3342625,-0.9348625
-0.25005,-0.82305,10.95705,0.091025,0.033,-0.1255375
0.072000004,-3.456,15.77595,-0.054725,-0.08745,0.2765125
0.32595003,-0.71295005,8.911051,-0.3762,-0.043725,0.6254875
0.0,-1.09095,8.652,-0.099,-0.063525,0.428725
0.010050001,0.342,8.80305,0.205425,0.052525,-0.487025
-0.14505,-0.10695001,11.269051,0.4838625,0.09295,-0.7800375
-1.4490001,0.531,9.77505,0.197725,0.0853875,-0.19635
-0.91800004,-1.98195,10.390051,-0.100375,0.0240625,0.4664
-0.432,0.73905003,7.48395,-0.5735125,0.0210375,1.1826375
-0.45600003,-0.10005,8.607,0.4521,0.0639375,-0.8622625
-0.22095,-0.97605,12.501,0.2506625,0.0262625,-0.4785
0.24705002,-3.4939501,15.89805,-0.003025,-0.02365,-0.1480875
0.80505,-1.338,10.227,-0.5328125,-0.19607499,0.8053375
-0.51600003,-0.57900006,6.83505,-0.27225,-0.302775,0.40205
-0.52995,0.77205,8.05095,0.1296625,0.0878625,-0.5049
-0.88695,-0.15795001,10.6050005,0.5229125,0.27981248,-1.21055
-3.6370502,0.43005002,9.45405,0.0422125,0.1167375,-0.2041875
-1.22895,-2.1349502,11.680051,-0.4318875,0.352,0.71665
0.84300005,0.54,6.4450502,-0.54505,-0.1947,1.1946
0.29700002,-0.69900006,6.5790005,0.43285,-0.3843125,-0.7968125
0.15405001,-0.768,10.10505,0.084975,-0.14245,-0.3146
0.78300005,-1.4170501,15.663001,-0.21505,-0.071225,0.298925
0.16800001,-1.8720001,10.110001,-0.33385,-0.084975,0.5652625
0.63495004,-2.058,8.547,-0.306075,0.1709125,0.5874
-0.09900001,0.64995,6.2389503,0.034925,0.11495,-0.5621
0.23295002,-1.7880001,11.74995,0.66728747,0.276925,-1.8319125
0.23505001,-0.897,14.964001,0.08305,0.021175,-0.15853749
0.49800003,-3.7480502,14.770051,-0.16733749,0.1397,0.5643
-0.50595003,-0.94995004,7.6800003,-0.519475,-0.1414875,1.05325
0.72105,-0.22005,5.9160004,0.1469875,0.182325,-0.465025
0.80700004,-1.70595,10.729951,0.28861248,-0.2913625,-0.4879875
0.48900002,-1.3950001,13.075951,0.0342375,-0.281325,-0.0097624995
2.05605,-2.5819502,17.125952,0.1739375,-0.041249998,-0.253275
0.87900007,-4.011,13.861051,-0.061049998,-0.190575,0.2745875
0.14595,-0.75405,7.458,-0.4527875,0.0490875,1.0063624
0.60405004,-0.17895001,9.97095,0.4285875,0.453475,-1.1765875
0.120000005,0.23595001,10.48095,0.623425,-0.076725,-1.2076625
-0.74295,-3.79605,10.648951,0.0240625,0.0416625,-0.1056
-1.0999501,-4.67205,12.847951,-1.078275,-0.1929125,2.09165
0.62295,-0.924,7.6399503,-0.811525,-0.00825,1.8387874
0.38805002,-0.58605003,7.1350503,0.3779875,-0.1667875,-0.8179875
-0.40995002,-0.735,11.059951,0.5198875,0.109725,-1.20065
0.76395005,-2.1730502,14.767951,0.4923875,0.2943875,-1.0841875
-0.32895002,-3.2290502,8.89605,-0.5775,-0.0154,0.6857125
-0.40095,-4.1860504,11.932051,-0.759,-0.17985,1.2032624
-0.025050001,-0.82605004,4.6069503,-0.4593875,-0.3421,0.952875
0.26805001,-0.82095003,6.1150503,0.2795375,0.1285625,-0.729575
0.80700004,0.69600004,8.81505,0.54065,0.0295625,-1.37555
0.37605003,-2.1349502,11.362051,0.9444875,-0.1948375,-1.6726875
-1.1689501,-3.1710002,11.44095,-0.1881,0.055,0.344025
0.21300001,-4.88805,14.328001,-0.66522497,0.4401375,1.3671625
0.59895,-1.1920501,7.86705,-0.49307498,-0.0837375,1.05435
0.192,-0.71295005,8.03205,0.1879625,-0.2061125,-0.549725
0.31905,-1.8049501,10.065001,0.41181248,-0.1266375,-0.8382
-1.0710001,-2.436,9.540001,0.1364,-0.0983125,-0.1882375
0.132,-2.262,9.712951,-0.2805,0.069025,0.48688748
0.27105,-1.6180501,9.406051,-0.2116125,0.0422125,0.3144625
0.582,-0.87600005,9.583051,0.2629,0.15895,-0.68901247
-0.60705,-1.50495,9.835051,0.448525,0.0908875,-0.7722
-0.82005006,-2.5440001,10.6390505,-0.0605,0.27513748,0.138325
-2.02095,-2.6490002,11.203951,-0.424875,-0.066,0.74415
0.83805007,-2.8600502,10.83495,-0.1590875,0.41593748,0.247775
0.47895002,-0.32295,5.55705,-0.08965,-0.5559125,0.19635
-0.13005,-1.40205,10.3279505,0.3883,-0.117425,-0.9647
1.03005,-0.59595,10.783051,0.186175,-0.0121,-0.16885
0.53895,-2.5420501,9.946951,-0.0158125,-0.105875,0.1087625
-0.030000001,-1.46895,5.92605,-0.268675,-0.0484,0.5346
0.22500001,-0.024,6.7519503,0.0485375,0.11495,-0.061325
0.76605004,-1.1920501,10.029,0.6241125,0.0158125,-1.167925
1.07505,-2.592,14.0449505,0.0930875,-0.003575,-0.5042125
1.9849501,-5.15805,13.906051,-0.381975,0.0930875,0.839025
-1.0710001,-1.9270501,7.2739506,-0.6824125,-0.298375,1.3697749
0.27600002,-0.68205005,6.77295,-0.0108624995,0.4866125,-0.1903
1.077,-1.44105,9.828,0.469425,0.0114124995,-0.9851875
1.422,-2.11305,11.934001,0.251075,-0.3832125,-0.21807499
1.389,-4.4380503,15.727951,0.1073875,-0.33275,0.1016125
0.73800004,-2.2780502,10.029,-0.2979625,0.041249998,0.637175
0.10605001,-0.97395,6.73995,-0.13805,0.1216875,0.2165625
0.52500004,-0.78495,9.904051,0.183975,0.1637625,-0.5929
-0.12795001,-2.1040502,10.996051,0.410025,0.100099996,-0.97171247
1.401,-3.1999502,11.647051,-0.1238875,0.0699875,0.2655125
-0.89595,-3.21405,10.83495,-0.441375,-0.3909125,0.9812
1.149,-2.283,10.201051,-0.2783,0.48894998,0.6461125
1.06305,-1.23,8.03205,0.0658625,-0.055825,-0.2707375
0.73995006,-1.8930001,10.43595,0.2938375,-0.31707498,-0.556325
0.79695004,-2.628,10.210951,-0.0099,-0.124437496,-0.0606375
0.42900002,-2.1400502,9.945001,-0.0609125,-0.1167375,0.24447499
0.10305001,-2.0269501,6.9529505,-0.127325,0.1302125,0.2327875
0.63495004,-1.3279501,7.55595,-0.0974875,0.103675,0.05775
0.43095002,-1.11,9.79905,0.2319625,0.034925,-0.7577625
0.68505,-1.9939501,13.992001,0.328625,0.16665,-0.840675
-0.372,-3.2719502,10.042951,-0.29755,-0.183975,0.8322875
-0.38595003,-1.5480001,7.4050503,-0.462825,-0.0408375,0.915475
0.16305001,-0.18405001,5.919,0.10065,0.202675,-0.289025
1.48395,-2.08905,10.29405,0.4772625,-0.00825,-0.6293375
1.52505,-0.91605,13.873051,0.103675,-0.4466,0.1142625
1.69305,-3.1260002,11.154,-0.009625,-0.01815,0.1464375
1.4959501,-3.01095,10.029,-0.349525,-0.26427498,1.1529375
1.13505,-1.161,7.52505,-0.17847499,-0.20625,0.699325
1.2,-0.67905,8.54895,0.28861248,0.13585,-0.6226
0.12495001,-1.6300501,10.07205,0.3939375,0.0501875,-0.8944375
0.77595,-3.0180001,12.766951,-0.055275,0.2209625,0.1656875
-0.74505,-1.6320001,9.904051,-0.3997125,-0.1346125,0.7643625
0.90795004,-1.4959501,7.8190503,-0.099825,0.565125,-0.155375
0.762,-1.25205,10.23705,0.066275,-0.045649998,-0.1846625
1.6810501,-2.08905,11.367001,0.13695,-0.2314125,-0.0611875
2.0640001,-3.9130502,13.924951,0.11385,-0.2913625,-0.0908875
0.99600005,-2.8510501,10.45005,-0.09845,-0.184525,0.3216125
0.69405,-1.6470001,6.97695,-0.2591875,0.0055,0.4783625
0.01905,-0.82095003,9.87495,0.0391875,0.1995125,-0.4923875
0.094050005,-1.7950501,11.482051,0.274175,0.382525,-0.9233125
0.16995001,-2.7840002,12.034051,0.02805,0.1830125,-0.0182875
-0.94395006,-1.575,11.41005,-0.36465,-0.4514125,1.208625
0.67995006,-0.67005,7.6759505,0.0070125,0.2611125,0.12815
1.233,-0.45705003,10.06005,0.30525,-0.1948375,0.0275
0.83100003,0.069000006,9.861,0.490325,-0.3925625,-0.025575
0.59895,-0.072000004,9.535951,0.5542625,0.0380875,-0.291225
0.015000001,-0.99495006,11.280001,-0.12375,0.034649998,0.8435625
0.00795,0.016050002,8.15205,-0.131175,0.2288,0.4002625
0.027,0.88500005,8.500951,0.270875,0.186725,-0.54202497
-0.46800002,0.72900003,10.347,0.44701248,0.07535,-0.90543747
-1.64505,0.82995003,9.777,0.2061125,0.1947,-0.6070625
-2.4810002,-1.8049501,11.25195,-0.70867497,-0.0149875,1.1375375
-0.61605,0.79605,5.63595,-0.650375,0.28325,1.100825
-0.35505003,0.54300004,6.8550005,0.402325,0.2239875,-0.80602497
-0.66195005,0.24795002,10.797001,0.3873375,-0.1225125,-0.3331625
-2.364,-1.2229501,12.762001,0.1989625,-0.11715,0.093637496
-0.35505003,0.10005,8.33895,-0.4736875,0.10725,0.5988125
-1.18095,0.09,7.3360505,-0.1991,-0.0847,0.1584
-0.066,0.16005,7.05105,0.044825,0.0924,-0.1522125
-1.00605,0.74595004,10.45695,0.411675,-0.073699996,-0.523875
-1.5640501,1.371,13.29405,0.4983,0.3245,-0.6337375
-0.36705002,-0.531,10.79895,0.1357125,0.254925,-0.0367125
-1.521,0.07395,8.367001,-0.564575,0.026675,1.2034
-0.027,1.38495,6.1320004,0.1727,0.0548625,0.0628375
-0.54405004,0.53505003,9.954,0.6648125,-0.358875,-0.57928747
-0.87705004,0.69105005,13.132951,0.05555,-0.2244,0.0686125
-0.43905002,0.777,12.33405,0.07535,-0.1219625,-0.0160875
-0.657,-0.94995004,10.65795,-0.0460625,0.172975,0.041249998
0.90495,0.26295,7.3290005,-0.4422,0.2853125,0.5119125
-0.46995002,0.68595004,10.207951,0.2435125,-0.4544375,-0.605275
-0.33405003,0.99300003,11.89095,0.3144625,-0.0760375,-0.833525
1.5679501,-1.26405,12.52995,-0.107525,-0.0496375,0.1480875
-1.4760001,0.028050002,8.217,-0.7528125,0.1579875,1.1585749
-0.14505,0.87105006,6.3810005,-0.0815375,0.3839,-0.2294875
-0.43005002,0.68595004,8.856,0.55935,-0.121,-0.8325625
0.33495003,1.11705,11.09895,0.2919125,-0.17655,-0.232375
-0.56805,-2.2710001,16.213951,0.33275,-0.3845875,-0.2732125
0.21300001,-0.12195001,9.556951,-0.52305,-0.1584,0.855525
0.15405001,0.59295005,7.3639503,-0.138325,0.0397375,0.0636625
-0.56595004,1.0309501,9.721951,0.3427875,0.04235,-0.921525
-0.85095006,0.88995004,11.071951,0.2806375,0.259325,-0.6191625
0.69900006,-0.92100006,13.300951,0.091299996,0.269775,0.054449998
-1.284,-0.55305004,9.69795,-0.6048625,-0.221925,1.4466375
0.30195,0.92595005,5.39505,-0.337975,0.3056625,0.307725
0.54405004,0.40605003,8.370001,0.329725,-0.21779999,-0.7723375
-0.171,0.112050004,11.323951,0.13035,-0.3597,-0.2558875
0.12495001,-0.55305004,13.123951,-0.117975,-0.0405625,0.1425875
-0.48900002,-0.65295005,10.081051,-0.2393875,-0.18287499,0.4796
0.20595,0.102000006,5.88495,-0.318725,0.202125,0.388575
-0.37905002,0.98805004,8.142,0.2105125,0.0242,-0.650375
-0.46095002,0.45405003,10.561951,0.3546125,0.18493749,-0.8611625
-1.03695,0.39705002,8.746051,0.0182875,0.1208625,-0.2325125
-1.7220001,-1.7689501,13.258051,-0.3559875,-0.205975,0.8072625
-0.14505,-0.84000003,8.604,-0.49005,0.2701875,0.8501625
-0.30495003,0.294,8.113951,-0.0088,0.0372625,-0.0122375
-0.0010500001,-0.112050004,10.660951,0.19195,-0.1739375,-0.198275
-0.312,-0.30600002,10.663051,0.0452375,-0.2561625,0.04895
0.24000001,0.33,9.186001,0.0023375,-0.003025,0.1189375
0.50505,-0.28695002,8.80095,0.0801625,0.0672375,-0.19139999
0.31605002,1.4310001,6.67995,0.0985875,-0.16335,-0.1485
-0.06105,1.1410501,9.415951,0.51865,0.044275,-0.7357625
-0.252,1.4620501,10.68,0.2773375,0.1725625,-0.0814
-2.1700501,0.141,13.096951,0.206525,0.0683375,0.098037496
-1.116,-0.20805001,9.757951,-0.348425,0.53405,0.848375
-0.05595,2.2420502,6.1920004,-0.06435,0.166375,0.275275
-0.18495001,0.423,12.1060505,0.5999125,-0.2838,-0.5242875
0.22305001,1.7629501,12.439051,-0.095837496,-0.0875875,0.3243625
0.14400001,0.555,11.070001,-0.0669625,-0.1494625,0.186725
-0.65205,0.38505003,8.54205,-0.3133625,0.0303875,0.489775
0.072000004,1.14795,6.64905,-0.0595375,0.0518375,-0.1513875
0.024,0.60495,9.526051,0.247225,-0.2314125,-0.734525
-0.669,0.72195005,11.25405,-0.030524999,-0.11605,-0.16995
-0.81000006,-0.38505003,9.95205,-0.7887,-0.003025,1.3563
-1.18095,0.51405,7.58895,-0.496925,0.3493875,0.742775
-0.34305,1.06005,5.8639503,0.050049998,0.3073125,-0.1309
0.043050002,0.36600003,9.262951,0.5424375,-0.00715,-1.02795
0.192,1.24395,10.561951,0.286275,-0.2085875,-0.419375
1.2280501,0.19095,13.827001,0.3100625,-0.4769875,-0.230175
-0.64695,-1.7040001,14.13405,-0.1475375,-0.40535,0.428175
0.85995007,0.81600004,5.4690003,-0.6017,0.0182875,0.9812
0.43095002,0.66,8.82195,0.38995,-0.0906125,-1.1055
0.97005004,0.41805002,12.0060005,0.1315875,0.0814,-0.6468
1.626,-3.89895,16.855051,-0.027775,-0.0308,-0.0961125
-0.82905006,-1.32105,11.754001,-0.9878,0.253275,1.6174124
0.29205,0.85395,5.478,0.12815,0.45045,-0.24475
0.74205005,0.26700002,8.311951,0.543125,-0.0611875,-0.907775
-0.01995,1.19895,10.522051,0.2267375,-0.1354375,-0.3378375
2.8510501,-3.59295,17.334002,0.4431625,0.085525,-0.68282497
0.96300006,-1.51995,10.77105,-0.8589625,-0.2728,1.7423999
0.02205,1.098,6.35895,-0.601975,-0.322575,0.9010375
0.28005,0.65295005,10.30395,0.4816625,0.0672375,-1.6522
-0.11595,0.94005007,9.507001,0.184525,0.013612499,-0.70661247
0.47400004,-1.7809501,15.235051,0.097075,0.0213125,0.0605
-1.21695,-1.9600501,12.02295,-0.5841,0.156475,1.8013875
0.462,0.507,5.72205,-0.4860625,0.341825,1.3347125
-0.26700002,1.07595,6.438,0.5638875,-0.047575,-1.1754875
0.65595,1.26795,8.88,0.494725,-0.0532125,-0.7816875
-0.20700002,1.4239501,10.44705,0.4148375,-0.2776125,-0.194975
-0.44895002,0.27195,7.149,-0.3755125,-0.0224125,1.065625
-0.70005006,-0.031050002,8.00595,-0.36574998,0.247225,0.5922125
-1.36995,2.52495,7.6920004,0.033275,0.2355375,-0.41593748
0.22500001,1.06005,9.315001,1.0555875,0.2770625,-2.1483
0.93600005,0.58095,14.428051,-0.0534875,-0.3271125,0.353925
-0.81705004,0.564,8.178,-0.2820125,-0.0433125,0.8635
-0.48000002,-0.86100006,10.06005,-0.2448875,0.2305875,0.7194
0.38295,0.76995003,6.0810003,-0.567325,0.1529,1.0313874
-0.59205,0.78405005,9.35595,0.158675,-0.3403125,-0.4686
0.35700002,0.64095,10.986,0.3608,-0.0367125,-0.9185
-0.06105,-0.68700004,12.429001,0.1452,-0.1940125,-0.161975
0.441,-0.82095003,10.5070505,-0.472725,-0.1285625,0.89814997
-0.77400005,-0.15495001,7.728,-0.406175,0.0757625,0.6136625
0.015000001,0.906,7.1059504,-0.05775,0.1073875,-0.4217125
0.22995001,-0.28695002,10.555051,0.2762375,0.0081124995,-0.9428375
-0.60705,0.34905002,10.146001,-0.113437496,-0.18727499,0.2759625
-1.626,-1.1410501,9.934951,-0.02695,0.0089375,0.1120625
-0.55905,0.47100002,6.333,-0.40205,0.34265,0.83875
-0.504,1.39995,5.301,0.0262625,0.1027125,-0.2039125
-0.21405001,0.29895002,8.734051,0.4827625,-0.0231,-1.126675
0.63000005,1.7710501,11.59395,0.162525,-0.1909875,-0.2721125
-0.20895001,-1.7730001,12.88395,0.0363,-0.1533125,0.134475
0.46905002,-0.92805004,8.88,-0.5781875,-0.0952875,1.1185625
0.22800002,0.40395,5.313,-0.08855,-0.1568875,0.133375
0.59400004,-0.012,8.98995,0.3575,0.042075,-0.8943
-0.65205,-0.26805001,12.130051,0.177925,-0.013475,-0.5358375
1.8840001,-3.0300002,10.9480505,0.0160875,0.377575,-0.339625
-0.09705,-1.845,11.170051,-0.8272,-0.3047,1.620575
0.47700003,-0.33195,7.0680003,-0.280775,0.15015,0.0506
0.156,0.23595001,8.00805,0.2501125,-0.092675,-0.7799
1.0890001,-0.0139500005,10.036051,0.42941248,-0.011275,-0.7319125
0.30900002,-0.79905003,11.788051,0.3026375,-0.18535,-0.16293749
0.10305001,-0.71295005,7.6249504,-0.0803,0.1194875,0.4525125
0.14895001,0.29595003,6.4620004,-0.3469125,-0.0045375,0.7271
-0.49695003,0.98295003,6.91905,0.1821875,-0.0889625,-0.4582875
0.18195,0.28395,9.637951,0.454575,0.1310375,-1.015025
-0.762,-0.37995002,10.93305,0.1518,0.0686125,-0.2365
-1.7989501,-2.42895,11.778001,-0.37661248,0.0680625,0.6411625
-0.33900002,-1.6180501,9.01605,-0.6304375,0.5852,0.604725
0.52905005,0.33405003,4.6309505,-0.167475,0.1901625,-0.279675
0.60405004,-1.70595,11.69505,0.3950375,-0.193875,-0.63195
0.38295,0.16905001,12.583051,-0.0771375,-0.48565,0.4915625
-0.40305,-0.70605004,12.325951,0.0506,-0.1705,0.0350625
0.67800003,-1.4650501,10.378051,0.013475,-0.0757625,0.0859375
0.28005,0.102000006,5.9089503,-0.0482625,-0.0435875,0.102437496
-0.09195001,-0.12195001,9.265051,0.3179,0.219725,-0.91245
-0.36705002,-0.51900005,10.078951,0.238425,0.2198625,-0.460075
1.149,-2.42205,13.626,0.0715,0.0919875,-0.0240625
0.14400001,-2.6880002,11.331,-0.609675,-0.138325,1.3024
0.31395,-0.00705,6.3499503,-0.4461875,-0.00715,0.840125
0.11805001,-0.45705003,9.492001,0.3254625,-0.0341,-0.4912875
0.23295002,-0.49305,10.099951,0.2360875,0.0303875,-0.2820125
-0.39405003,-0.91905004,12.453001,0.0774125,-0.0334125,-0.045925
0.076950006,-2.29305,12.208951,-0.073699996,0.1461625,-0.1087625
-0.22395001,0.08295,5.8230004,-0.31239998,0.0853875,0.3702875
0.24900001,-0.17400001,8.286,0.2481875,0.136125,-0.694375
0.462,-0.53595,10.990951,0.2167,-0.1186625,-0.42734998
-0.90795004,0.07395,10.43805,0.044275,-0.2003375,0.47025
-0.14895001,-2.6089501,13.2289505,-0.1544125,0.0528,0.4577375
0.31605002,-2.2450502,11.529,-0.610225,-0.023924999,1.2023
-0.79095006,0.60705,5.4570003,-0.1926375,-0.012375,0.083875
-0.15705001,0.21495001,8.58495,0.5625125,0.372075,-0.94159997
-0.72405005,0.022950001,12.53505,0.5270375,0.0086624995,-0.8437
-0.52500004,-2.15595,15.028951,0.2805,-0.0100375,-0.4076875
0.08400001,-1.8019501,10.203,-0.464475,-0.06435,0.96305
0.34995002,0.67695004,5.1049504,-0.3053875,-0.12485,0.5996375
-0.19305001,0.44205,8.75805,0.450175,-9.625E-4,-0.604725
0.12705001,-0.78705,10.660951,0.281325,0.0435875,-0.4659875
-0.34305,-1.0189501,11.508,-0.14533749,-0.072325,0.5473875
-2.22495,-1.4790001,11.604,-0.3001625,0.092675,1.182225
-0.231,-0.80895007,8.48205,-0.334125,0.355575,1.2832875
-0.26205,0.11895001,6.8980503,-0.04675,0.0466125,0.6276875
-0.063,0.08295,8.908051,0.3199625,-0.0264,-0.43835
0.15405001,-0.47595003,12.279,0.253825,-0.2176625,-0.3757875
-0.45105,-1.4290501,12.961051,0.2112,-0.14135,-0.400125
0.675,-2.1060002,11.295,-0.2715625,0.17105,1.314775
-0.171,0.303,8.236051,-0.5501375,-0.2068,1.7300249
0.18,-0.16695,8.875051,0.23539999,-0.005775,-0.1469875
0.67995006,-0.28905,8.382,0.28545,-0.1111,-0.062975
0.711,0.12105001,11.05095,0.15895,-0.2605625,0.4255625
1.6330501,-2.87205,12.22095,0.0224125,-0.0100375,1.03895
-1.03695,-2.55795,13.411051,-0.6996,-0.115637496,2.5650625
-1.5589501,1.2940501,5.5189505,-0.2666125,0.2145,1.4724874
0.39495003,-0.54105,9.294001,0.643775,0.3680875,-0.1610125
-0.13005,-0.112050004,11.071951,0.0559625,-0.478775,-0.181775
0.24705002,-1.6699501,12.87195,0.23375,-0.066275,-0.2585
0.90000004,-0.933,9.40905,-0.06325,-0.0413875,1.2544125
-0.384,-0.411,7.9339504,-0.191125,-0.2396625,0.62425
-0.003,-0.32295,9.04695,-0.0433125,0.052249998,1.2859
-0.034950003,-0.483,9.05895,0.183425,0.0713625,0.4455
-0.87705004,-1.1149501,11.998951,0.0163625,-0.0523875,0.6824125
-0.54195005,-2.187,12.429001,-0.0275,-0.005225,1.8717875
-0.12105001,-1.848,10.9789505,-0.4261125,-0.0262625,1.2805375
-1.04505,0.38205,7.6369505,-0.258225,-0.0303875,1.1708125
-0.76905006,-0.411,9.271951,0.2690875,0.1456125,2.1286376
-0.37005,0.0139500005,9.4129505,-0.0312125,-0.138875,1.238325
0.64695,0.16395001,10.65795,0.0031625,-0.269225,1.419
-0.46800002,-1.2280501,8.83905,-0.0435875,-0.303325,1.5852375
-0.19005,-2.628,12.805051,-0.3370125,-0.015125,0.6419875
-0.77205,0.22005,8.217,-0.2957625,-0.027224999,0.6109125
0.606,-0.27,8.86305,0.258225,-0.0972125,1.8253125
0.132,-0.37305,10.00905,0.084425,-0.5058625,1.07965
0.156,0.50205004,10.917001,0.0804375,-0.2495625,1.4070375
0.93105006,-2.118,11.44095,0.2426875,0.095975,1.4696
-1.047,-1.5870001,11.142,-0.38334998,-0.0906125,-0.2946625
-0.18795002,0.81600004,6.28695,-0.1456125,-0.001925,0.6292
-0.43695003,-0.21300001,9.415951,0.5226375,-0.093775,2.238225
-0.16605,-0.14595,10.854,0.1260875,-0.02365,1.144825
1.00605,-0.28905,11.236951,0.08965,-0.073699996,1.1207625
0.69900006,-1.6489501,9.97095,-0.2121625,-0.07315,0.02585
-0.078,-2.058,11.616,-0.368225,-0.137225,-0.282425
0.50505,-0.40905002,8.03895,-0.32793748,-0.0037125,-0.51755
-0.094050005,0.10005,8.113951,0.1678875,-0.1923625,0.48125
0.62295,-0.87105006,10.354051,0.23375,-0.02035,0.63085
0.11805001,-2.5420501,12.37695,0.0171875,-0.0408375,0.4109875
-0.53505003,-2.319,9.459001,-0.63085,0.1967625,-0.9592
-0.89595,-1.3069501,8.71395,-0.379775,0.57145,-0.7623
-0.39600003,-0.66795003,8.214001,0.1387375,0.2497,0.4016375
0.31905,-0.43500003,9.250951,0.39421248,-0.0042625,0.77907497
1.3260001,-0.079050004,10.693951,0.2479125,-0.400675,1.045275
2.01105,-2.86695,11.887951,-0.1711875,-0.004675,-0.214225
0.81705004,-2.3719501,10.95705,-0.23485,-0.5058625,0.1901625
0.513,-0.63405,7.3620005,-0.32381248,0.0584375,-0.6155875
0.37905002,0.30105,8.11095,0.2677125,-0.14245,0.5082
0.048,-0.44700003,10.416,0.5319875,-0.0820875,0.9282625
-1.03695,-1.8760501,11.745001,0.2017125,0.215325,-0.220275
-0.06795,-2.2020001,9.106951,-0.6012875,0.050875,-1.2227875
-0.14505,-1.3470001,8.772,-0.5542625,0.4310625,-1.348325
-0.47700003,0.064050004,7.8430505,0.032175,0.0743875,0.275825
-0.26205,-0.58905005,10.392,0.4717625,0.0611875,0.8591
0.67995006,0.492,10.219951,0.302775,-0.0204875,0.6622
1.3909501,-3.2599502,13.714951,0.0906125,-0.139425,0.25025
0.60795003,-0.70095,9.59805,-0.42075,-0.3348125,-0.2706
0.47205,-0.25605002,7.48395,-0.1478125,-0.13915,-0.19139999
0.666,0.042000003,8.63805,0.150425,-0.094325,0.2954875
0.72105,-0.648,10.366051,0.4202,-0.11055,0.733425
-0.22095,-0.933,11.62005,0.126225,0.1720125,-0.33605
-0.231,-0.93105006,9.27705,-0.37565,0.048125,-0.956725
0.34500003,-0.84705,8.25,-0.43285,0.444125,-1.4645125
0.333,0.17595,7.6420503,-0.0749375,-0.0554125,-0.03795
0.606,-0.684,9.366,0.433675,-0.13915,1.041975
0.59895,-0.33495003,10.95705,0.0983125,-0.1573,0.3664375
-0.13695,-2.60595,14.557051,0.186175,-0.1117875,0.1241625
1.2070501,-0.51000005,7.7980504,-0.5187875,0.19745,-1.21935
0.10605001,-0.77805007,8.439,-0.114675,-0.22715,-0.031075
0.33795002,-0.081,8.29605,-0.0391875,0.0543125,-0.2410375
0.42600003,-0.35205,10.407001,0.4272125,-0.0180125,0.74855
-0.16095,-0.54300004,12.337951,0.16225,0.0303875,0.3408625
-0.76695,-0.093,13.1640005,0.1318625,0.163075,0.0045375
0.216,-2.118,12.09405,0.0273625,0.18645,-0.2737625
-0.24300002,0.98100007,6.144,-0.528275,-0.0862125,-1.3875124
-0.10395,0.22905001,10.366051,0.5977125,0.086075,1.552375
0.82605004,-0.024,11.13405,0.2613875,0.0369875,0.7261375
-0.19500001,-3.8440502,17.703001,0.060225,-0.033275,0.0638
0.78795004,0.411,8.266951,-0.6829625,0.0270875,-1.4383875
0.37905002,-0.61995006,8.937,0.122925,-0.1874125,0.1832875
0.024,0.80805004,7.9750504,0.08195,-0.1505625,0.4197875
-0.19695,0.26295,10.167001,0.459525,0.054175,0.9428375
-0.74505,-0.18405001,12.063001,0.1346125,0.12595,0.269775
-0.43005002,-1.5270001,12.913051,0.01485,0.2228875,-0.30855
-1.29795,-1.5409501,11.026951,-0.522775,-0.0325875,-1.489125
-0.49395,0.40395,6.2800503,-0.4170375,0.2597375,-1.09725
-0.68805003,0.28905,9.295951,0.35901248,0.130625,0.8575875
-0.40605003,0.57600003,10.017,0.220825,-0.0691625,0.5677375
-1.815,-1.02405,12.172951,0.132825,-0.1953875,0.834625
0.27795002,0.10005,7.4269505,-0.6094,-0.088825,-0.89925
-0.31500003,-0.37095,9.13095,-0.1472625,-0.3298625,0.2685375
-0.351,0.25305,7.6969504,0.0796125,-0.0301125,0.3645125
-0.80505,0.45900002,8.892,0.33261248,0.0356125,0.6527125
-1.0159501,0.34605002,10.378051,0.188925,0.1522125,0.0204875
-0.53205,-2.59905,13.9800005,0.0642125,0.272525,-0.5473875
-1.3369501,-2.7160501,13.01595,-0.509025,0.0364375,-1.44705
-0.09,0.16695,7.1710505,-0.4390375,0.1035375,-0.942425
-0.15405001,0.22395001,9.562051,0.302775,-0.29975,1.136025
0.39795002,-0.23895001,9.5140505,0.36245,-0.321475,1.1544499
1.00605,-0.23895001,9.579,-0.0270875,-0.395175,0.71389997
0.48405004,-0.86595005,9.46605,-0.2079,1.375E-4,-0.7931
-0.83595,-0.91200006,8.487,-0.2875125,0.0633875,-0.9389875
0.14205001,0.54300004,6.8280005,-0.12045,0.2074875,-0.58795
-0.39105,-0.13095,10.809001,0.4323,-0.18535,1.1697125
-0.74295,-0.483,12.010951,0.0174625,0.1197625,-0.004125
0.63195,-1.5820501,10.849951,-0.126775,0.218625,-0.6369
-0.88695,-2.535,12.559051,-0.2558875,0.17985,-1.2153625
-0.010950001,0.54,6.5149503,-0.271975,0.2171125,-0.9004875
-0.10605001,-0.34005,10.1629505,0.535425,-0.1243,1.675025
-0.00795,-0.025950002,10.351951,0.10065,-0.149875,0.99935
-1.36995,-1.3879501,10.309051,0.0515625,-0.0671,0.385825
-0.33405003,0.010950001,6.3900003,-0.51094997,0.0501875,-1.094225
-0.29805002,-0.59805006,8.961,-0.19415,-0.1287,-0.4169
-0.147,0.294,7.7640004,0.0364375,-0.0803,0.0257125
-0.38895002,-0.16995001,10.155001,0.36574998,-0.1128875,0.753775
0.02205,0.022950001,11.611051,0.110275,0.014712499,0.116325
0.28995,-2.19195,13.942051,-0.0919875,0.03135,-0.2908125
-1.18605,-1.18005,10.15995,-0.41525,0.0193875,-0.75625
0.036000002,0.34905002,6.18405,-0.0468875,0.2506625,-0.5984
0.82905006,0.15195,8.81505,0.4299625,-0.097625,0.69313747
-0.537,0.85905004,9.660001,0.390225,-0.1992375,0.6180625
0.058050003,-0.83295006,11.53695,0.2223375,0.0281875,0.2866875
0.18900001,-0.31800002,8.478001,-0.366575,-0.1667875,-0.527725
0.08895,-0.97200006,9.09,-0.2132625,-0.089237496,-0.2629
0.24705002,0.45600003,8.03505,-0.1876875,-0.0358875,-0.2707375
0.21105,-0.23700002,10.347,0.447425,-0.082499996,1.1856625
-0.16395001,-0.31995,11.488951,-0.041525,0.0020625,0.1898875
-0.14895001,-2.38905,13.606951,-0.1860375,0.2198625,-0.628925
-1.21905,-0.74700004,9.540001,-0.4676375,0.234575,-1.3105125
0.46500003,-0.201,6.4789505,0.0796125,0.2498375,-0.137225
0.28995,0.24300002,7.1470504,0.219725,-0.2409,0.839575
0.59205,-0.82800007,10.5070505,0.176275,-0.2998875,0.596475
0.55095005,-4.48995,16.293001,-0.0407,-0.20899999,-0.04235
1.044,-0.56895,9.018001,-0.8251375,-0.3267,-1.1224124
0.666,-0.36405003,6.70095,-0.0067375,-0.2443375,0.3718
0.76605004,-0.201,8.920051,0.26427498,-0.1716,0.7833375
0.86700004,-0.483,10.14105,0.4239125,-0.21945,1.0404625
0.45795003,-2.66595,15.852001,0.1896125,-0.0776875,0.4972
-0.64695,-2.8909502,10.693951,-0.7744,0.403975,-1.5219874
-0.216,-1.3110001,8.346001,-0.566775,0.6873625,-1.4678125
0.24195,0.08805001,6.603,0.1351625,0.1043625,0.2041875
0.273,-0.072000004,8.2570505,0.5473875,-0.2365,1.106325
0.76395005,-0.41895002,11.87205,0.363825,-0.24653749,0.7495125
1.45095,-2.69295,14.277,0.10065,-0.3078625,0.381975
0.56295,-1.5700501,10.029,-0.21807499,-0.0424875,-0.3025
0.32295,-0.31095,6.852,-0.2140875,0.22165,-0.61861247
0.216,-0.29895002,9.36795,0.132,0.0451,0.3762
-0.049050003,-1.065,10.681951,0.1969,0.0237875,0.3568125
0.043050002,-2.53695,12.934051,0.0617375,0.1436875,0.0917125
0.015000001,-2.5870502,11.391001,-0.607475,-0.128975,-1.0247875
0.34500003,-0.22905001,7.0800004,-0.4269375,0.2129875,-0.9442125
-0.384,0.354,6.7780504,0.2822875,-0.110275,0.6864
-0.47295,-0.06705,8.667001,0.5467,0.16555,0.6100875
-1.28205,-0.32505003,11.008051,0.3001625,0.0688875,0.520025
0.42900002,-0.98595005,10.5070505,-0.359425,0.091437496,-1.04775
0.27795002,-1.8000001,10.716001,-0.20625,-0.292875,0.2435125
0.31905,-0.29205,7.48395,-0.081125,-0.1458875,0.4954125
0.70395005,-0.069000006,8.66205,0.346775,-0.18975,0.9538375
1.0680001,0.117000006,9.073951,0.25795,-0.16733749,0.6202625
-1.251,-1.02195,9.691051,0.2534125,-0.1005125,0.3568125
-0.29295,-2.21895,12.3,-0.477125,0.4074125,-1.8082625
0.55305004,-0.84705,8.889001,-0.417175,0.553575,-1.5005375
-0.034950003,0.49695003,7.1509504,0.1634875,-0.0554125,0.509025
0.261,-0.49995002,9.934951,0.439725,-0.184525,1.15555
0.25605002,-0.26295,12.994051,0.1958,-0.1370875,0.5663625
0.48405004,-0.9979501,12.694951,0.152075,-0.0779625,0.172975
0.35205,-1.3620001,9.92595,-0.211475,-0.07755,-0.9040625
0.01905,0.55905,6.3780003,-0.3403125,0.0708125,-1.023825
0.055050004,0.31995,8.56095,0.296725,0.0581625,0.415525
0.216,-0.261,10.431001,0.3084125,0.0743875,0.3867875
-2.6149502,1.4950501,7.6159506,-0.01815,0.0081124995,0.039325
-0.13005,-1.9459502,10.648951,-0.109725,0.229075,-0.6180625
0.07005,-0.31605002,7.6710005,-0.6950625,-0.128975,-0.839025
0.109950006,-0.22200002,8.36505,0.0567875,-0.2831125,1.1352
-0.042000003,-0.294,8.905951,0.33467498,-0.052249998,0.90915
1.2570001,-0.94305,11.941051,0.095837496,0.0930875,0.2033625
-0.003,-0.031050002,9.378,-0.0605,-0.054449998,-0.43147498
-0.441,-1.491,9.68595,0.0012375,0.1626625,-0.7033125
0.31605002,-0.081,7.1389503,-0.2536875,0.1769625,-0.5902875
0.192,-0.63900006,9.658051,0.1555125,-0.192225,0.86845
0.393,-1.338,11.70705,0.0209,-0.122925,0.399575
2.1450002,-4.2649503,14.452051,-0.113299996,0.0545875,0.0831875
-0.43695003,-2.2350001,11.42205,-0.6499625,-0.020624999,-1.0495375
0.42600003,-0.31605002,6.5290504,-0.1373625,0.2476375,-0.3821125
0.30405003,-0.411,9.198001,0.43945,-0.07975,0.747175
0.43095002,0.28695002,9.693001,0.5082,-0.0556875,0.6711375
1.56105,0.078,9.696,0.3425125,-0.106837496,0.4816625
-0.015000001,-1.065,10.17,-5.5E-4,-0.12979999,-0.1287
0.015000001,-0.34905002,7.5460505,-0.3961375,0.075625,-0.985325
0.66795003,0.25800002,8.655001,0.2567125,-0.0977625,0.3460875
0.20400001,-0.13095,9.516001,0.3617625,-0.1527625,0.75734997
-0.28800002,0.81105006,11.7949505,0.0444125,0.066825,-0.2003375
0.71805006,-1.3069501,10.408951,-0.0275,0.345125,-0.6056875
0.10605001,-1.9150501,11.13195,-0.534325,0.2264625,-1.3778875
-0.324,1.16505,6.6660004,-0.20845,0.01045,0.09515
-0.20505,0.076050006,9.849001,0.58575,-0.0424875,1.63185
-0.24495001,-0.009000001,11.199,0.2063875,-0.00825,0.55165
0.34995002,-2.9869502,15.937951,0.1529,-0.0103124995,0.062975
-0.07305,-1.7350501,11.494051,-0.4761625,0.0419375,-1.1881375
0.11805001,-0.37800002,8.596951,-0.3443,0.1051875,-1.164075
0.41895002,-0.01905,7.5870004,0.0598125,-0.0760375,0.254375
0.42900002,0.46095002,9.295951,0.11165,-0.3658875,0.56581247
0.312,1.1910001,11.689951,0.3009875,-0.1337875,0.656425
-0.41295,-2.3119502,11.854951,0.20515,0.016775,0.2303125
-0.44400004,-0.069000006,9.054001,-0.798325,0.258225,-1.477025
0.333,0.022950001,7.209,0.20735,0.0386375,0.5808
0.32805002,0.31800002,8.391001,0.23333749,-0.2767875,0.6557375
0.33105,-0.51000005,11.371051,0.1835625,-0.2311375,0.65999997
-0.25500003,-2.17995,13.918051,0.0493625,-0.00935,0.1989625
0.50505,-2.05095,10.65795,-0.496375,0.2941125,-1.2126125
-0.07005,0.093,7.2900004,-0.447425,0.038225,-0.687225
0.36405003,0.08505,8.70705,0.2770625,-0.054175,0.6463875
0.582,-0.34695002,10.46895,0.3980625,-0.15413749,0.8644625
-1.00905,-0.95205003,10.234051,0.1612875,-0.1035375,0.1892
-0.264,-2.1760502,9.045,-0.4983,0.0537625,-1.1334125
0.333,-0.22905001,7.2660003,-0.7415375,0.286275,-1.4315125
-0.06795,0.51405,7.4269505,0.29273748,-0.0653125,0.7568
0.381,0.25095,8.734051,0.5869875,-0.0694375,1.0759375
0.11505,0.363,11.505,0.264825,-0.0713625,0.269225
-0.25500003,-0.069000006,10.351951,-0.35694999,0.117837496,-0.7800375
0.32595003,-2.709,12.508051,0.0114124995,-0.168025,0.2061125
0.11805001,0.31005,5.6790004,-0.4107125,-0.0782375,-0.5289625
0.16095,-0.273,9.53295,0.3026375,0.0114124995,0.424875
0.48105,-0.53295004,10.998,0.31913748,0.077275,0.3982
-1.0999501,-1.05495,12.36495,0.140525,-0.0187,0.225775
0.22800002,-2.022,11.962951,-0.3403125,0.11605,-1.1369874
0.23700002,0.19605,7.2330003,-0.311575,0.2660625,-1.0217625
0.34695002,0.33405003,8.64,0.2981,-0.02145,0.722425
0.120000005,1.0020001,9.279,0.39655,-0.17173749,0.67553747
-0.85095006,0.47595003,10.242001,0.3227125,-0.114125,0.5808
0.36405003,0.70305,6.3829503,-0.2374625,-0.014575,-0.7216
0.031050002,-0.95205003,8.229,-0.2300375,-0.083875,-0.5603125
-0.21900001,0.555,7.2900004,-0.300025,0.0441375,-0.5902875
0.015000001,0.48000002,9.13095,0.2569875,0.1111,0.9482
-0.58305,0.07395,12.04905,0.1595,0.0176,0.7231125
2.5159502,-2.322,14.37495,0.1769625,0.27995,0.1469875
-0.50895,-1.9429501,12.975,-0.4224,-0.18727499,-0.5781875
0.02205,1.05495,6.5869503,-0.3641,0.1931875,-0.769725
0.063,1.0309501,7.7190003,0.42955,-0.0435875,0.84741247
-0.372,0.56205004,9.8869505,0.4538875,-0.09625,0.7794875
-1.794,-0.11895001,12.262051,0.102575,0.0231,-0.12265
0.87900007,-2.2780502,12.772051,-0.20515,0.1445125,-0.648175
-0.34305,0.41805002,7.6039505,-0.566775,-0.24475,-0.802175
-0.22605,0.16005,9.67695,0.23925,0.0408375,0.649
-0.010950001,-0.064050004,9.682051,0.168575,0.058025,0.8305
-1.4470501,0.351,11.92395,-0.0312125,-0.0782375,0.410575
-2.05005,-0.531,8.15205,-0.2167,0.2278375,-0.9510875
-0.63795,-0.012,9.16905,-0.56595,0.4514125,-1.760825
0.15405001,0.45195,6.97695,0.054449998,-0.105325,0.7962625
0.18,0.016050002,8.793,0.29947498,-0.28765,1.276825
0.58395004,0.078,12.622951,0.068475,-0.2897125,0.4778125
0.44805002,-1.90005,14.385,0.0859375,-0.3355,0.4200625
0.53895,-0.90900004,9.241051,-0.4943125,-0.111925,-1.1452374
0.78105,-0.12900001,9.02805,-0.027224999,-0.078099996,-0.0515625
0.55305004,0.16905001,9.535951,0.2448875,-0.1728375,0.6351125
0.28800002,-0.00705,9.721951,0.246125,-0.1032625,0.65945
-1.6840501,0.112050004,10.77795,0.0352,-0.011275,-0.032449998
-0.006,-2.70705,12.661951,-0.1705,0.1392875,-0.8562125
0.79005,0.65295005,7.0630503,-0.5539875,0.3466375,-1.3475
0.15105,0.23400001,7.1590505,0.4049375,-0.25245,1.0927125
0.69405,-0.62700003,10.94295,0.3169375,-0.094875,0.3579125
-0.18495001,0.12105001,11.13405,0.0270875,-0.1566125,0.270325
-0.441,-0.18900001,8.643001,-0.275275,0.2165625,-0.8058875
-0.55200005,-0.49005002,8.832001,-0.234575,0.092125,-0.6760875
0.028950002,0.15705001,7.12305,0.119625,0.02805,0.169125
-0.027,0.47100002,8.99205,0.295625,-0.1106875,0.5856125
0.93405,-0.78495,12.23595,0.1640375,-0.0991375,0.5955125
1.659,-1.7040001,10.873951,-0.18053749,-0.0606375,-0.126775
-0.54705,-2.32395,12.3,-0.4277625,-0.1639,-0.4010875
0.22305001,0.51900005,8.118,-0.205425,0.36245,-0.6142125
0.16605,0.42795002,8.65905,0.5240125,-0.0925375,1.258675
0.78300005,-0.78195006,10.990951,0.4257,-0.0716375,0.9750125
-0.58695,-1.1770501,10.36095,-0.0622875,-0.2745875,0.44055
0.71595,-1.539,9.14805,-0.430375,0.080025,-0.876975
0.192,-0.246,7.4719505,-0.5366625,0.0281875,-1.084325
0.74505,-0.34905002,8.2240505,0.1150875,-0.053075,0.143825
0.47895002,-0.37800002,9.95205,0.3119875,-0.1667875,0.715825
-0.975,-0.88095003,11.71905,0.0306625,0.141625,0.2728
-0.56595004,-2.33295,9.22395,-0.260975,0.3892625,-0.6620625
-0.19995001,-0.82095003,8.19495,-0.6155875,0.43614998,-1.35465
0.19695,0.27705002,6.9580503,0.190575,-0.094325,0.6048625
0.10605001,0.061950002,9.15705,0.5209875,-0.3223,1.5211625
0.72300005,-0.53595,12.328951,0.2061125,-0.1808125,0.84328747
-0.12105001,-2.0320501,14.232,-0.0242,-0.0402875,-0.144375
1.3549501,-1.7179501,9.14505,-0.42473748,0.077,-0.92125
0.39495003,0.19800001,6.29895,-0.2371875,-0.3180375,-0.014712499
0.201,-0.18405001,8.2570505,0.3870625,-0.15455,0.8130375
0.71400005,-1.0510501,8.7619505,0.154275,0.082775,0.1189375
-0.22800002,-2.56305,15.340051,-0.116325,0.135025,-0.565675
-1.57095,-3.31695,14.602951,-0.36685,0.61036247,-1.323575
0.74505,-0.30405003,6.3109503,-0.3290375,0.590975,-0.925375
0.65595,0.030000001,4.6519504,0.207625,-0.406725,0.9581
-0.126,0.41805002,6.249,0.406725,-0.4841375,0.9521875
0.771,-0.33705002,11.545951,0.4742375,-0.0402875,0.7579
-0.432,-4.086,21.33105,0.3223,-0.3216125,0.9499875
0.77595,-2.3500502,12.195001,-0.8900375,0.157575,-1.3682625
-0.14895001,0.22395001,7.0200005,-0.3713875,0.03025,-0.493625
0.28800002,0.36600003,6.8980503,0.40315,0.1398375,0.477675
0.64695,-0.56505,11.14395,0.35433748,-0.0589875,0.426525
1.9300501,-2.4150002,12.891001,0.087037496,-0.1186625,-0.3416875
-1.473,-0.58605003,8.394,-0.4670875,-0.2239875,-1.0231375
0.46005002,-0.91605,8.121,-0.2134,0.6521625,-1.0038875
0.24000001,-0.42600003,9.636001,0.1029875,-0.1596375,0.985875
0.52500004,-1.1700001,12.918,0.12375,-0.128975,0.7106
-0.384,-1.539,13.411051,0.16885,-0.1566125,0.6230125
0.84495,-1.539,9.44505,-0.176825,0.026124999,-0.3972375
1.1920501,-0.99105006,6.8760004,-0.341,-0.224125,-0.01705
0.18,-0.19095,7.9800005,-0.0501875,-0.091025,-0.024475
-0.43695003,-0.77295005,10.825951,0.33715,0.05555,0.281325
-1.8420001,-0.048,11.12205,0.0529375,0.344575,-0.4096125
-0.94200003,-3.3600001,10.842001,-0.115637496,0.4189625,-0.9257875
-0.49695003,-0.19095,7.0990505,-0.63827497,0.1945625,-1.4575
0.21105,-0.08595,7.293,0.2869625,-0.2223375,1.0912
-0.08205,-1.0170001,10.641001,0.5724125,-0.3433375,1.387375
-1.2049501,-0.45705003,11.89095,0.0507375,-0.05555,0.126225
-0.54,-0.531,7.2229505,-0.486475,0.31185,-1.138225
-0.078,-1.5679501,9.765,-0.176,-0.1145375,-0.5110875
-0.46800002,0.25095,6.1650004,-0.0661375,-0.076175,-0.28325
0.10605001,-0.60795003,8.57295,0.4409625,-0.06765,0.91685
0.087000005,-1.09395,10.567051,-0.0020625,-0.061049998,-0.0254375
1.67805,-3.21195,14.104951,0.0631125,-0.0103124995,0.122237496
-1.9950001,-1.3590001,9.682051,-0.356125,-0.0908875,-0.5922125
0.48900002,-0.24105,7.2499504,-0.1263625,0.5748875,-0.583275
-0.67395,0.20295002,8.535001,0.28985,-0.190575,0.8408125
-0.55395,-0.93600005,11.017051,0.2987875,0.0097624995,0.5786
0.702,-2.67105,13.686001,0.15235,-0.154,0.36135
0.44805002,-1.7590501,10.785001,-0.18425,-0.114675,-0.4076875
-0.22800002,0.12900001,6.4410005,-0.20625,-0.023924999,-0.5863
-0.279,-0.141,8.557051,0.1995125,0.0683375,0.374275
0.32805002,-0.92100006,11.415001,0.1170125,-0.073975,0.23815
-0.64005005,-1.74495,12.325951,-0.026124999,-0.0760375,-0.1991
-1.5109501,-1.6609501,10.596001,-0.2283875,0.09845,-0.6131125
0.66795003,0.03795,6.5479503,-0.2629,0.197175,-0.7678
0.20895001,-0.060000002,7.7689505,0.2597375,-0.33165,1.127225
0.156,-1.2199501,11.59395,0.301675,-0.083325,0.6986375
-0.59205,-3.2260501,13.585951,-0.0664125,-0.0782375,-0.0209
1.06095,-1.5289501,9.8539505,-0.6589,0.1838375,-1.4205124
0.50295,-0.66495,7.5660005,-0.301125,-0.1727,-0.3014
0.17295001,-0.768,11.56995,0.3232625,-0.15895,0.720775
0.072000004,0.43500003,8.323951,0.46667498,0.0704,0.5966125
-0.078,-2.28795,10.88805,0.3524125,0.1274625,0.0352
-2.2390501,-0.77295005,10.78995,-0.3586,-0.0372625,-0.84425
-0.93195003,1.266,8.46105,-0.02035,0.76285,-0.813725
-2.00895,1.20105,8.004001,0.34265,0.335775,0.81785
-2.5500002,0.555,9.80595,0.4987125,0.49555,1.3187625
-1.6339501,-0.57705003,11.26605,0.2435125,0.5533,0.24007499
-0.88395005,-1.05495,9.088051,-0.323125,-0.0691625,-0.4560875
-0.95100003,-0.71505004,8.323951,-0.3975125,-0.2024,-0.9101125
-1.023,1.08105,6.6180005,0.0187,-0.128975,-0.1348875
-1.34595,0.65505004,10.368,0.4195125,-0.07205,0.6675625
-2.4499502,1.9050001,11.127001,0.384175,0.04235,0.11715
-1.7839501,-1.31895,10.91895,0.088825,0.16293749,-0.5462875
-1.3270501,-0.411,9.801001,-0.3224375,0.0628375,-1.8418125
-1.167,1.416,5.7180004,-0.1530375,-0.08195,-0.2138125
-1.03695,0.25500003,9.076051,0.2145,-0.125125,1.610125
-0.46800002,0.126,13.755001,-0.17875,-0.3421,0.8272
-1.1190001,0.96405005,9.45195,-0.2498375,-0.43835,0.5478
-1.1839501,0.27495003,8.961,-0.3873375,-0.2492875,-1.425325
-0.45105,1.3450501,6.156,2.75E-4,-0.087175,-0.12155
0.30900002,-0.84705,10.816051,0.2756875,-0.08085,0.2129875
-1.0710001,-0.15300001,11.0119505,-0.3653375,-0.35915,-0.7832
-0.09900001,-1.3590001,11.524951,-0.2437875,0.0928125,-0.859375
-0.78900003,-0.052050002,8.40795,-0.2215125,0.223025,-0.8679
0.26595002,0.99495006,7.7380505,0.183975,0.1029875,0.503525
0.61605,1.4070001,11.13,0.5864375,-0.2850375,1.1094875
0.82605004,1.8900001,8.736,0.3834875,-0.420475,0.895675
1.04595,0.423,6.6060004,-0.3025,-0.5055875,-0.29095
0.43800002,-2.23095,12.858001,-0.6546375,-0.414975,-0.6771875
0.39495003,1.26795,5.30595,-0.7577625,0.2704625,-0.94545
-0.19305001,0.124050006,10.40205,0.72985,0.3900875,1.4173499
-0.16905001,1.57395,10.52595,0.169675,0.3579125,0.214775
0.582,-2.2810502,10.066951,-0.336325,0.11605,-0.4871625
-0.73605,-0.67200005,9.21,-0.5867125,0.0884125,-1.6567374
0.19695,1.3369501,5.56395,0.1566125,0.175725,0.2195875
1.0890001,0.15495001,8.841001,0.832425,-0.22715,1.739375
1.64205,-0.124050006,14.34405,0.32505,-0.3619,0.87175
0.71595,-1.45305,14.62005,-0.01375,-0.3573625,0.2446125
-1.4970001,-0.66,7.8600006,-0.5993625,0.095699996,-1.4469125
-1.64505,2.424,6.1369505,-0.105325,0.64735,-0.74745
0.112950005,0.25995,9.28905,0.572825,0.527175,0.646525
1.3120501,0.57900006,12.589951,0.0369875,-0.2866875,-0.0499125
1.6500001,-2.2069502,12.870001,-0.024475,-0.4401375,-0.1890625
-0.86295,-0.81105006,10.486051,-0.38747498,-0.2160125,-0.84645
-0.19695,0.51195,8.34105,-0.13653749,0.2063875,-0.0306625
0.65595,-0.22695,9.403951,0.2151875,0.104499996,0.9431125
-0.48900002,1.8259501,9.96195,0.3113,0.2145,0.7247625
-0.063,1.014,8.575951,0.398475,0.0138875,0.4587
0.85200006,-0.13395001,9.033,-0.25547498,-0.3430625,-0.2215125
0.252,-0.24900001,7.8190503,-0.438075,-0.326975,-0.4101625
-0.19995001,0.22200002,9.880051,-0.0796125,-0.0457875,-0.0606375
0.15105,0.018000001,10.31805,0.2041875,0.1643125,0.1780625
-1.16205,0.28905,9.889951,0.0287375,0.0881375,-0.090475
-1.1020501,0.37005,8.644951,-0.3419625,0.0521125,-1.021075
-0.31500003,-0.61695004,9.34605,-0.160325,0.2949375,-0.4695625
-0.28095,1.31805,5.3200502,0.0158125,-0.014025,0.1573
0.46695003,-0.55695003,10.9789505,0.488675,-0.01705,1.2214125
0.13695,0.906,12.3,-0.17847499,-0.35021248,0.35255
0.73005,-1.7260501,12.790951,0.025024999,-0.06985,0.4800125
-0.31905,-0.71505004,10.203,-0.309925,-0.17765,0.060775
-0.16905001,0.00405,8.01795,-0.192225,0.1243,-0.5990875
0.00795,0.37995002,8.178,0.1854875,0.042625,0.275
0.109950006,-0.30795002,11.44305,0.2112,0.0196625,0.297
-1.44,0.59295005,10.852051,-0.00825,0.02585,-0.0031625
-1.00395,-0.67005,9.94005,-0.0259875,0.2569875,-0.33495
-0.51600003,-1.455,9.889951,-0.3513125,0.2498375,-0.775225
-0.64005005,1.131,5.5210505,-0.29535,-0.0592625,-0.2666125
-0.41295,-0.354,10.219951,0.400125,-0.1265,1.221275
-0.60405004,0.82800007,12.24495,0.0669625,-0.15853749,0.517275
0.49305,-0.34695002,9.30105,-0.1359875,-0.0048125,-0.0521125
0.08205,-0.88305,9.5449505,-0.114675,-0.329725,0.2627625
-0.025050001,0.42495003,6.84,-0.2737625,-0.0215875,-0.5721375
-0.015000001,0.47100002,8.466001,0.33825,0.0380875,0.793925
0.32295,-0.025950002,10.717951,0.272525,0.053625,0.5773625
-0.91800004,1.3300501,11.58405,-0.0856625,-0.0328625,0.0089375
0.20400001,-2.6179502,13.17405,0.1373625,0.5599,-0.4316125
-2.28705,-1.5990001,12.25695,-0.6205375,0.061049998,-1.1482625
-0.12105001,-0.076050006,6.6270003,-0.2476375,0.4467375,-0.71596247
-0.19005,-0.34395,10.10505,0.1431375,-0.0801625,0.995225
-0.33405003,0.36795002,9.35595,0.153725,-0.2327875,1.075525
-1.6840501,0.126,10.02105,0.2866875,-0.1340625,1.1798875
0.22095,-0.77505004,9.688951,-0.0418,0.14465,0.004125
-0.19305001,-1.21095,10.515,-0.169125,-0.36313748,0.5993625
-0.49395,-0.031050002,8.32905,-0.2552,-0.0539,0.16665
0.15105,-0.71805006,9.625951,0.117975,8.25E-4,0.8578625
-0.135,-0.933,10.13595,0.006325,-0.0961125,0.701525
-0.73095006,0.016050002,9.78705,-0.132275,-0.0086624995,0.372075
0.17505,-1.6150501,10.488001,-0.049775,0.06435,0.5388625
-1.4800501,-0.38700002,9.085951,-0.3425125,-0.2019875,0.8383375
-0.51600003,-0.98805004,9.87495,-0.006325,0.282425,0.26125
-0.79800004,0.117000006,8.54205,0.036025,-0.0323125,0.8463125
-0.72195005,-0.27495003,9.954,0.2921875,0.088825,0.39655
-0.41295,-0.52605003,11.10795,0.122925,-0.0246125,0.7440125
-1.44,-0.73005,10.938001,-0.067375,-0.1662375,0.7574875
-0.25005,-2.0389502,10.620001,-0.217525,0.083325,0.2930125
-0.19695,-0.84000003,7.7760005,-0.21945,-0.2789875,1.00155
0.24000001,-1.47195,9.415951,-0.036575,-0.2267375,1.2640375
-0.003,-0.47805002,9.978001,0.0438625,-0.34814999,1.1804374
0.00795,-0.55305004,10.11705,0.265375,-0.2151875,0.9106625
0.28305,-1.218,10.234051,0.1379125,-0.10175,0.8012125
-0.26205,-0.88305,10.219951,-0.030524999,-0.1104125,0.9070875
0.15795001,-1.644,9.77505,-0.2352625,-0.24887499,1.4438875
-0.41805002,-0.58095,8.88195,-0.0270875,-0.028324999,1.0668625
0.32805002,-1.16295,10.941001,0.1186625,0.092675,0.87436247
0.312,0.18795002,8.86095,0.0680625,-0.2431,0.98202497
0.537,0.0139500005,9.910951,0.3738625,-0.1568875,0.1115125
0.65595,-0.35895002,10.821,0.1769625,-0.1478125,0.5377625
-1.3770001,0.294,10.34895,0.1428625,-0.1159125,0.31625
0.61095005,-0.13905,8.595,-0.0281875,0.2957625,0.3994375
0.08895,-0.81600004,9.708,0.0281875,-0.205975,0.5880875
0.063,-0.26805001,9.255,-0.2072125,0.050875,0.823075
0.060000002,0.294,9.4129505,0.0243375,0.113025,0.104637496
0.19905001,0.30600002,10.28505,0.2619375,0.0677875,-0.4585625
0.40500003,0.028050002,11.06505,0.182325,0.012375,-0.3606625
0.53400004,-1.0890001,11.611051,0.0858,-0.0765875,-0.2134
-0.47295,-0.246,9.19095,-0.3240875,-0.19745,0.742775
0.47700003,-0.59295005,9.361051,-0.1192125,0.2701875,0.3298625
-0.09900001,0.77205,8.238,-0.013062499,-0.0950125,0.2286625
-0.21195,0.40095,9.2029505,0.32587498,0.0820875,-0.6446
-0.80295,1.1509501,9.889951,0.2508,0.152625,-0.573925
-0.57105005,0.92805004,10.93305,0.2616625,0.1406625,-0.7222875
0.32805002,-2.02005,15.397951,0.0121,-0.0858,0.1233375
1.4389501,-0.924,10.345051,-0.3146,-0.153725,0.741675
0.558,-0.82995003,8.02995,-0.3067625,-0.2820125,0.66275
0.10605001,0.813,8.236051,-0.0669625,0.0298375,0.1606
-0.109050006,0.591,10.048051,0.436975,0.123475,-0.9306
0.41205,0.20805001,12.417001,0.2674375,0.09295,-0.389675
-0.022950001,-0.57705003,12.39795,0.0748,-0.0559625,-0.092675
-0.030000001,-3.0280502,14.526001,-0.3661625,0.1117875,1.008975
0.47700003,1.24395,5.8350005,-0.78375,0.0836,1.4936625
0.21105,0.11895001,10.30395,0.4640625,-0.0820875,-0.9101125
0.16095,0.105000004,9.54705,0.2046,-0.0902,-0.447425
-0.36195,1.3800001,8.865001,-0.027775,-0.1035375,0.0246125
-0.38595003,-0.73695004,10.206,0.042075,0.0521125,0.14025
-0.68805003,-0.58395004,10.111951,-0.4338125,0.113437496,0.7508875
-0.279,0.591,8.217,-0.104499996,0.1907125,-0.0306625
-0.441,0.564,8.42205,0.27307498,0.151525,-0.7539125
0.402,-0.20805001,13.633051,0.120037496,0.0416625,-0.1758625
0.34500003,-1.05795,13.734,0.1651375,-0.0584375,-0.082499996
0.12495001,-0.32295,8.33205,-0.314325,0.0581625,1.0000376
0.69195,1.1770501,5.94,-0.0774125,-0.04675,0.3540625
-0.075,0.87795,9.339001,0.3961375,-0.1634875,-0.573375
-0.633,0.47295,13.392,0.232925,-0.0738375,-0.46461248
0.62700003,0.18795002,12.24495,0.0999625,0.043449998,0.01815
-0.16905001,-1.8690001,13.542001,-0.0682,-0.0441375,0.2431
-0.74295,0.78900003,6.87405,-0.571175,0.14355,0.7137625
0.027,0.47295,8.69295,0.3100625,0.25245,-1.0660375
0.13005,0.28905,11.677951,0.2486,-0.171875,-0.6485875
-1.0830001,-0.41895002,10.821,-0.089375,-0.0996875,0.2519
-0.38205,-1.36395,9.460951,-0.5605875,0.1288375,1.279575
0.53400004,-0.45195,7.7380505,-0.53735,0.041525,1.1746625
0.54105,0.0019500001,8.089951,0.141625,-0.2028125,-0.319
0.42900002,-0.21300001,9.909,0.3581875,-0.1843875,-0.7195375
-0.24795002,-0.90705,10.00695,0.1057375,-0.104225,-0.34595
-0.31500003,0.19095,7.7119503,-0.6238375,0.3146,0.853325
-0.01305,-0.39195,8.724,-0.171875,0.0081124995,0.168575
0.20595,0.777,6.1320004,0.10945,-0.04455,-0.50655
-0.0010500001,0.14295001,9.540001,0.4984375,-0.0812625,-1.1510125
-0.11595,-1.005,13.863001,0.0301125,0.039049998,-0.193875
1.8460501,-1.8379501,12.160951,0.0801625,0.24035,-0.0699875
-0.80505,-0.87105006,8.944051,-0.474925,-0.257125,0.957
0.08895,0.56895,6.0739503,-0.1247125,0.323125,0.063525
0.01695,0.246,9.282001,0.404525,0.0268125,-0.7555625
0.34695002,0.73395,11.920051,0.16885,-0.13255,-0.36135
0.52005005,-2.49405,14.368051,0.12045,-0.1120625,-0.130075
-0.04695,-1.09095,9.727051,-0.44027498,-0.02695,0.6754
0.09105001,0.60495,6.07905,-0.1326875,0.0174625,0.1126125
-0.06105,0.14805001,8.97795,0.390775,0.034375,-0.96236247
-0.60405004,-0.177,11.994,0.24007499,-0.0394625,-0.3735875
-1.84395,1.01205,8.272051,-0.1879625,0.116875,0.385825
-0.14505,0.46605003,8.367001,-0.0600875,0.2220625,0.153175
-0.37395,-0.42795002,7.8580503,-0.0930875,0.2013,0.05775
-0.37905002,0.69795,7.3170004,0.077275,0.107525,-0.527725
0.89805007,-0.98295003,11.57505,0.3790875,-0.093637496,-0.8399875
-0.57105005,0.75105006,10.087951,-0.1711875,-0.371525,0.29535
0.08400001,0.17400001,7.281,-0.2371875,-0.0757625,0.6007375
-0.69495004,-0.70305,6.4240503,-0.33055,-0.304425,0.864325
-0.42705002,0.102000006,5.9689503,-0.1111,0.146575,0.3108875
0.19395001,0.744,8.58495,0.2679875,0.2080375,-0.3026375
-0.21900001,0.24795002,13.5709505,0.482075,-0.012925,-0.61985
0.20595,-2.21895,15.376051,0.176275,0.3025,-0.47753748
-0.12795001,-1.8280501,10.31805,-0.5424375,0.12815,0.5665
-0.303,0.85095006,4.4440503,-0.4175875,-0.0204875,0.542575
0.72795004,-0.75105006,10.32495,0.5108125,0.2211,-0.85085
0.558,-0.58605003,12.571051,0.14795,-0.2453,-0.1034
0.63000005,-3.3319502,16.800001,0.081675,-0.1590875,-0.1582625
0.75705004,-1.12695,9.80595,-0.443025,-0.1516625,0.870375
0.43800002,-0.016050002,6.4999504,-0.2926,-0.22453749,0.417725
0.261,-0.35895002,9.555,0.2633125,-0.11,-0.62755
0.35505003,-0.61995006,10.750951,0.1373625,0.1079375,-0.3174875
-1.9660501,0.03795,9.354,0.010725,0.20253749,-0.1104125
-1.4899501,-0.88305,8.248051,-0.148225,0.3301375,0.1384625
0.015000001,-0.98595005,8.413051,-0.4307875,0.172975,0.7035875
-1.047,0.98805004,7.2640505,0.1243,-0.0191125,-0.17215
0.064950004,-1.04595,11.314051,0.6741625,0.2336125,-1.2761375
0.075,1.6890001,11.544001,-0.072875,-0.24365,0.3174875
1.281,-2.42895,12.003,0.2723875,-0.095425,-0.25905
0.19905001,-0.40905002,8.134951,-0.5064125,-0.3713875,1.274625
0.097950004,0.588,5.3830504,0.108075,-0.0100375,-0.1291125
-0.094050005,-0.48105,10.219951,0.2739,0.0496375,-0.628375
-0.025050001,-1.16505,13.477951,-0.092675,0.0576125,0.062975
1.4770501,-2.874,12.786,0.0374,0.2696375,0.079475
-0.66405004,-1.55805,10.251,-0.4877125,-0.0792,0.8050625
-0.81495005,0.87495005,5.6460004,-0.1038125,0.1467125,0.135575
-0.78900003,0.14295001,9.21,0.6006,0.325325,-1.0432125
-0.06795,0.16905001,11.058001,0.09625,-0.041249998,0.076725
0.99105006,-2.805,13.995001,0.30153748,-0.007975,-0.3744125
0.28995,-1.1890501,10.98795,-0.30635,-0.3298625,0.7324625
-0.34305,0.43005002,5.71005,-0.2497,-0.1804,0.500225
-0.07005,0.60495,8.97105,0.3444375,0.1148125,-0.7074375
-0.08205,0.10005,11.424001,0.382525,-0.0284625,-0.612975
-1.2720001,-0.41595003,10.08405,0.0213125,0.06325,0.075075
-1.03695,-2.214,12.19995,-0.5405125,0.052525,1.000175
0.53895,0.40395,6.76095,-0.4313375,-6.875E-4,0.791175
-0.37395,0.507,9.085951,0.321475,-0.120037496,-0.564575
0.75195,-0.735,11.557951,0.4411,0.0598125,-0.8281625
0.75900006,-0.040050004,9.418051,-0.1343375,-0.2343,0.22275
-0.063,-0.555,9.540001,-0.15895,-0.12815,0.3784
-0.71895003,-0.507,7.77405,-0.21945,0.100925,0.397925
-0.39795002,0.040050004,8.401051,0.1439625,0.42955,-0.4882625
-0.006,-0.261,10.29195,0.33495,0.202125,-0.85965
0.079050004,-0.58395004,11.47395,0.0554125,-0.12485,-0.00275
-1.26195,1.692,9.106951,-0.047025,-0.101475,0.42625
0.24195,-0.69405,9.226951,6.875E-4,0.16005,0.4973375
0.42900002,0.39405003,7.8190503,-0.184525,-0.1434125,0.669075
0.27105,0.36600003,9.583051,0.2393875,-0.3070375,-0.1989625
0.132,0.22005,12.40995,0.1071125,-0.2022625,-0.21835
0.156,-3.006,17.119051,0.1214125,0.0077,-0.40301248
0.16095,-1.70895,10.075951,-0.6697625,0.1513875,0.8897625
-0.094050005,0.98505,4.5589504,-0.4318875,-0.059675,0.563475
0.055050004,-0.30600002,10.174951,0.494175,0.194425,-0.9213875
0.075,-0.92805004,11.941051,0.091575,-0.1010625,-0.0606375
-0.53505003,-1.3759501,13.807951,-0.254375,-0.0232375,0.2204125
-1.9930501,-1.4449501,9.523951,-0.3931125,0.1189375,0.0251625
0.003,-0.31995,6.87405,-0.2613875,0.336875,-0.021175
0.13395001,0.59805006,4.62405,0.2168375,-0.1428625,-0.2899875
0.109950006,0.282,8.620951,0.522775,-0.1148125,-0.6468
1.3260001,-0.78195006,11.812051,0.5009125,-0.1777875,-0.68076247
-0.04695,1.914,9.14295,-0.20405,-0.384725,0.5113625
1.3770001,-1.7370001,11.170051,0.0259875,0.072875,-0.313225
-0.04695,-0.34695002,5.8680005,-0.5493125,-0.3405875,1.0649375
0.20895001,0.025950002,7.89795,-0.1599125,-0.041249998,0.0287375
0.35205,-0.51195,10.11495,0.201575,0.059125,-0.6378625
-0.74295,-2.535,13.94505,0.0867625,0.1192125,-0.2607
-1.50705,-1.9980001,9.67395,-0.5495875,0.1263625,1.2491875
0.28005,-0.31305,7.431,-0.4145625,0.3001625,0.8228
0.24405001,0.17895001,8.475,0.4021875,-0.052525,-0.90749997
0.94605005,-1.3810501,11.280001,0.4615875,0.00385,-0.7129375
0.15795001,-2.262,12.208951,-8.25E-4,-0.2399375,0.4107125
0.84105,-0.98100007,8.67405,-0.5534375,-0.23925,1.3842125
0.14895001,-0.23400001,7.0200005,-0.1819125,-0.2602875,0.335225
-0.44895002,0.18105,8.413051,0.32285,0.1956625,-0.7913125
0.0049500004,-0.60795003,10.41195,0.458975,0.407,-1.14675
-0.0010500001,-1.17495,12.8550005,-0.0471625,0.088275,0.1582625
1.7410501,-2.8510501,12.67395,-0.0581625,0.2811875,0.12815
-0.0010500001,-1.17495,9.579,-0.3639625,-0.2231625,0.8056125
0.24000001,0.70095,5.1000004,0.0683375,-0.0688875,0.0759
0.59205,-0.23400001,8.16405,0.5291,-0.0548625,-0.85305
0.11505,-0.08295,11.802001,0.0991375,-0.11495,-0.0363
1.197,-3.1549501,16.149,0.2376,0.118525,-0.7865
1.7740501,-1.8000001,9.31095,-0.3452625,0.036025,0.4395875
-0.094050005,0.040050004,7.281,-0.3430625,-0.4037,0.9592
-0.049050003,0.28695002,8.358001,0.22935,0.1166,-0.4151125
0.537,-0.17205001,10.251,0.3392125,0.1538625,-0.6329125
0.16800001,-2.3070002,13.9800005,0.1733875,-0.047025,-0.0793375
-1.5160501,-1.065,10.354051,-0.4291375,-0.036849998,1.0704376
0.57495004,-0.19800001,7.46295,-0.2096875,0.4596625,0.518925
-0.24300002,1.2940501,7.4550004,0.3073125,0.1040875,-0.6705875
-0.16905001,0.35595003,11.3209505,0.721325,0.0589875,-1.2183875
0.17295001,1.12905,10.44705,0.1813625,-0.1023,-0.011825
0.192,-0.13095,9.564,-0.0473,-0.19373749,0.5966125
-0.35805002,-0.43800002,8.88,-0.3694625,-0.066275,0.945725
-0.513,0.76995003,8.323951,-0.04895,0.109037496,0.129525
-0.537,0.45195,9.825001,0.3188625,0.128975,-0.633875
-0.39600003,2.697,10.825951,-0.0862125,0.047025,0.2514875
-0.44400004,-0.86595005,11.211,-0.1067,0.1720125,0.0023375
-0.91305006,-0.56700003,11.158051,-0.38747498,0.0039875,0.4148375
-0.33105,1.014,6.6540003,-0.089375,-0.033825,0.078925
-0.67605,0.27195,10.17,0.5770875,0.052249998,-1.1889625
-0.27195,0.27495003,10.861951,0.1208625,0.089925,-0.3485625
0.80505,-1.536,15.321001,0.1464375,-0.203225,-0.0902
0.56295,-1.2400501,10.878,-0.3381125,-0.2121625,0.879725
0.33105,0.58095,6.5220003,-0.47547498,-0.064899996,0.943525
-0.19005,0.60495,8.99205,0.2283875,-0.0411125,-0.502975
0.075,-0.26505002,11.689951,0.275275,0.0352,-0.6678375
-0.69000006,-1.48395,13.240951,0.012375,0.0078375,0.048675
-1.026,0.006,8.07495,-0.496925,0.0138875,0.97185
0.558,0.061950002,6.66795,-0.1197625,0.3405875,0.073425
-0.26700002,0.51900005,9.241051,0.2008875,-0.151525,-0.371525
0.003,0.64605004,9.877951,0.37235,-0.0221375,-0.780725
-0.84105,-0.112050004,10.953,0.2552,-0.104499996,-0.4235
1.5589501,1.6489501,5.2440004,-0.3185875,-0.128425,0.8941625
-0.087000005,-0.54105,11.326051,0.0611875,-0.5577,0.5732375
0.48600003,0.873,7.0800004,-0.1274625,-0.069299996,0.539275
0.060000002,0.89505005,8.67405,0.2204125,0.0682,-0.366575
-0.54705,0.15195,14.305951,0.29975,0.1942875,-0.6089875
0.85200006,-0.59295005,10.704,0.07425,0.3312375,-0.2734875
-1.143,-0.55995005,9.64095,-0.2688125,0.1500125,0.5586625
-0.24000001,1.2870001,6.9979506,-0.2770625,0.2360875,0.28655
-0.65505004,0.92100006,9.415951,0.488125,0.0165,-1.1572
0.13005,0.93000007,11.149051,0.17545,-0.001925,-0.3014
0.83595,-2.6179502,17.39895,0.2030875,-0.21835,-0.35255
0.82395005,-0.9480001,9.865951,-0.6670125,-0.092125,1.21165
0.079050004,1.11195,6.3619504,-0.4008125,-0.2046,0.674575
0.15795001,0.45900002,8.752951,0.401225,0.0581625,-0.8570375
0.88395005,0.14505,10.443001,0.1852125,0.0554125,-0.42734998
-1.03995,-1.299,12.859951,0.0350625,-0.0427625,0.0039875
-1.1719501,-0.25305,9.889951,-0.6532625,0.099825,1.1548625
0.28305,0.16695,6.83295,-0.2321,0.22013749,0.2349875
-0.27195,1.179,7.293,0.207625,-0.0495,-0.5823125
0.42900002,0.20505,10.242001,0.4019125,-0.08635,-0.6568375
0.13005,0.59295005,11.689951,0.0792,-0.197725,-0.0275
0.14205001,0.25500003,8.724,-0.1384625,-0.058025,0.24007499
-0.48000002,-0.20595,8.797951,-0.3383875,-0.11825,0.7698625
0.24405001,0.89205,7.21605,0.0562375,-0.0055,0.021724999
0.56295,0.069000006,9.733951,0.3521375,-0.10285,-0.6373125
-0.26700002,0.62895006,12.681001,-0.0768625,-0.056925,-0.028875
-0.04695,-0.87795,10.387951,-0.2492875,0.31239998,0.05115
-1.251,-0.45705003,8.27595,-0.32175,0.448525,0.37345
0.59595,0.69795,7.5340505,-0.0160875,0.1464375,0.158125
-0.52305,0.69600004,10.041,0.452925,-0.469425,-0.5996375
-0.60195005,1.0000501,11.52,0.2715625,0.1076625,-0.6452875
0.65400004,-0.76995003,12.465,0.2255,0.025575,-0.53075
0.59595,-0.89295006,9.97095,-0.348975,-0.23925,0.9145125
-0.21900001,0.11895001,7.4340005,-0.391325,-0.161425,0.93005
-0.96105003,1.8780001,7.5340505,0.1709125,0.0902,-0.37015
-0.33405003,1.1869501,9.98595,0.6430875,0.105325,-1.2672
-0.33405003,0.99705005,13.755001,0.1364,-0.0317625,-0.27445
0.55095005,-0.49500003,10.09095,-0.2740375,0.101475,0.52525
0.18495001,-0.9979501,9.79905,-0.246125,0.3053875,0.32725
0.49605003,0.85905004,6.4090505,-0.1452,-0.0017875,0.2520375
0.20595,1.23,8.43,0.51507497,-0.2193125,-0.8327
0.66105,1.0309501,10.78995,0.4360125,-0.059675,-0.59455
-0.85305005,0.41295,12.57495,0.0540375,-0.146025,-0.0466125
0.762,-1.3660501,11.778001,-0.29273748,0.026675,0.4772625
0.34500003,0.0139500005,7.3879504,-0.556325,-0.014575,0.9791375
-0.39105,0.69600004,9.19305,0.067925,0.0941875,-0.2341625
0.034050003,-0.03795,11.173051,0.31735,0.2041875,-0.7766
-1.3560001,0.43500003,10.488001,-0.1340625,0.028875,0.2404875
-1.7700001,-0.73005,10.909051,-0.0743875,0.1175625,0.1348875
0.31395,-0.91605,9.229051,-0.5049,0.2242625,0.8727125
-0.058050003,0.80805004,7.7400002,-0.093637496,-0.1419,0.1956625
-0.31905,0.55905,10.10805,0.600325,-0.0501875,-1.139325
0.96495,1.7629501,11.6970005,0.264,-0.0163625,-0.440825
-0.07005,-1.6200001,11.47395,0.27445,-0.2363625,-0.3537875
-0.10605001,0.09,7.69995,-0.75955,0.066825,1.3539625
-0.72900003,0.97605,6.8760004,-0.0697125,-0.0526625,-0.1331
0.072000004,0.117000006,9.901951,0.1643125,0.1373625,-0.47547498
-0.16605,0.82800007,11.982,-0.031625,0.00605,0.0999625
0.61605,-1.2709501,9.562051,0.0122375,0.2827,0.1142625
-1.9090501,-0.56205004,9.79395,-0.49995,-0.124437496,0.96415
-0.537,1.35195,5.8999505,-0.078375,0.0661375,0.2088625
-0.70500004,0.66495,8.904,0.7106,0.131725,-1.4488375
-0.62295,1.27995,10.10505,0.1827375,0.0149875,-0.139975
0.156,-1.67295,13.341001,0.15455,-0.0495,-0.48345
0.77295005,-1.33305,11.187,-0.54175,-0.1126125,0.872025
-0.09,0.59505004,6.747,-0.2066625,-0.1511125,0.220825
0.29205,0.78000003,7.6450505,0.3790875,0.1018875,-0.7755
0.26805001,-0.072000004,11.094001,0.44825,-0.0576125,-0.556325
-0.80505,-1.2780001,13.617001,0.0991375,-0.0639375,-0.0631125
-0.28095,-0.87795,9.90705,-0.4929375,-0.0592625,1.3902625
0.50505,0.021000002,7.8220506,-0.259875,0.2451625,0.5149375
0.45000002,0.45195,8.805,0.27445,0.09735,-0.476575
-0.066,0.45405003,10.653001,0.454025,0.054449998,-0.5174125
0.22800002,0.411,9.186001,0.1903,0.0022,-0.3471875
0.711,-0.112050004,8.21895,-0.2402125,-0.1123375,0.4566375
-0.19005,0.006,7.7880006,-0.382525,-0.2415875,0.7018
-0.147,0.564,8.35305,-0.0198,-0.054725,-0.22385
-0.28095,0.82800007,8.820001,0.2344375,0.139425,-0.8157875
0.060000002,0.753,10.60305,0.2270125,0.138875,-0.5677375
-0.34305,-1.299,10.41405,-0.2211,0.0743875,0.3722125
-1.674,-0.59805006,9.684,-0.5566,0.2674375,0.957
-0.93495005,1.3039501,6.5509505,-0.0455125,0.10835,-0.0240625
-0.34305,0.094950005,10.12905,0.5878125,0.0760375,-1.1900625
0.08400001,1.6390501,12.8220005,0.18755,-0.094325,-0.21505
1.0870501,-1.218,10.842001,0.3972375,-0.084975,-0.44055
0.47700003,-1.29495,10.066951,-0.37675,-0.3009875,1.0296
-0.66405004,0.50205004,7.8360004,-0.3185875,-0.04895,0.35915
0.25905,0.25095,9.229051,0.2457125,0.277475,-0.7115625
0.01905,-0.34695002,11.802001,0.123475,-0.0111375,-0.242825
1.09395,-2.8909502,14.284051,0.008525,0.0081124995,0.0627
-1.77495,-1.0170001,9.835051,-0.5372125,-0.0319,1.11375
-0.027,0.43305,6.1720505,-0.1087625,0.4662625,-0.0697125
-0.33600003,0.363,8.158951,0.452925,0.055275,-0.8404
0.24900001,0.04695,10.44705,0.34925,-0.0460625,-0.4494875
-0.11595,-0.57705003,11.5990505,0.154825,-0.20845,-0.0911625
1.1329501,-1.3780501,10.909051,-0.1753125,-0.296725,0.476575
0.37605003,-0.069000006,7.37895,-0.40094998,-0.3042875,0.996875
-0.09,0.10005,8.101951,0.0683375,-0.002475,-0.092125
-0.12795001,0.411,9.95205,0.2123,0.21505,-0.5143875
-0.97305006,0.82305,11.434051,0.2387,0.143275,-0.53295
-0.13005,-1.20105,9.604951,-0.1313125,0.2179375,0.109037496
-0.48705003,-0.82800007,9.049951,-0.4461875,0.229625,0.641575
-0.3,1.12695,6.5509505,-0.1304875,-0.078925,0.3342625
-0.21195,0.36795002,9.483001,0.6205375,-0.00825,-1.078275
-0.252,0.75105006,11.484,0.31955,-0.034375,-0.5163125
0.21300001,0.25800002,14.437951,0.2574,-0.160325,-0.3260125
0.56295,-1.8829501,12.135,-0.080575,-0.1084875,0.3441625
0.63000005,0.95205003,5.20095,-0.49101248,-0.123475,1.2942874
-0.018000001,0.73695004,9.16905,0.2336125,-0.17765,-0.548075
0.112950005,0.08505,11.58405,0.21175,0.099,-0.6230125
-0.95895004,-1.9740001,13.447051,-9.625E-4,0.116875,-0.0792
-0.89595,-1.3470001,10.6699505,-0.7932375,0.0066,1.5516875
0.57705003,0.19995001,7.6849504,-0.2954875,0.208725,0.31405
-0.252,0.51600003,8.511001,0.3656125,-0.092675,-0.9299125
0.04605,-0.13605,10.9140005,0.4445375,0.1604625,-0.9845
-1.03695,-1.3470001,13.156951,0.0743875,-0.0182875,-0.069299996
1.41495,-1.01205,9.7560005,-0.262625,0.056925,0.4079625
0.11505,0.282,7.1899505,-0.3584625,-0.40507498,0.8394375
-0.075,0.48000002,8.367001,0.1684375,-0.017875,-0.3922875
0.07005,-0.016050002,10.194,0.320925,0.1194875,-0.642675
-1.3249501,1.5169501,10.993051,-0.102025,0.1309,0.3535125
-0.13995,-1.2040501,10.95495,0.045649998,0.3845875,-0.068475
-0.77400005,-0.24405001,8.142,-0.6254875,-0.1904375,1.371425
-1.00395,1.0330501,6.984,-0.0232375,-0.0180125,-0.1434125
-0.726,0.66,8.97795,0.476025,0.095975,-1.044175
-0.62100005,1.74195,11.742001,0.1865875,-0.033275,-0.269775
-0.11400001,0.28905,9.35595,0.05335,0.149325,-0.1359875
0.012,-0.105000004,9.555,-0.288475,-0.2602875,0.788975
-0.67800003,1.0530001,7.6450505,-0.0507375,-0.2602875,0.1824625
-0.38205,0.88305,9.411,0.4178625,0.18315,-0.8933375
-0.44595003,1.07595,10.416,0.2762375,0.161425,-0.596475
1.7020501,-1.9939501,13.83705,0.3051125,0.1513875,-0.5286875
-0.92295,-1.2900001,10.677,-0.550825,-0.203775,1.266375
-0.25500003,0.45900002,7.5919504,-0.4769875,0.242275,1.0025125
-0.40095,1.1359501,8.458051,0.3045625,0.0627,-0.78265
0.010050001,0.70305,9.946951,0.5564625,0.0385,-1.192125
-0.76500005,-1.1770501,13.5070505,0.214775,-0.1821875,-0.2838
1.07505,-0.69600004,10.345051,-0.543125,-0.001375,1.00265
0.18195,0.17400001,7.3309503,-0.3804625,-0.284625,0.9097
-0.24300002,0.40095,8.797951,0.086625,-0.0614625,-0.262075
0.14400001,-0.031050002,10.5720005,0.26125,0.1172875,-0.6974
-2.02605,-0.20805001,11.544001,-0.03025,0.066825,0.3293125
-1.3219501,0.20505,7.5700502,-0.312125,0.08745,0.5751625
0.24000001,0.19605,6.73995,-0.2138125,0.3254625,0.256575
-0.80100006,1.4620501,7.17495,0.26427498,0.0119624995,-0.51755
-0.34605002,-0.11505,10.813951,0.661375,0.1865875,-1.2882375
1.0200001,1.7040001,11.778001,-0.0886875,-0.0930875,0.12375
0.015000001,1.7200501,8.535001,-0.0281875,-0.4640625,0.394625
-0.26205,-0.78495,10.5070505,0.0834625,-0.121,0.01925
0.120000005,0.37995002,7.1920505,-0.2184875,0.02915,0.35255
0.16605,0.13095,8.229,0.0501875,-0.00825,-0.2347125
0.21795002,0.57600003,12.279,-0.0727375,-0.0815375,0.0680625
1.422,-1.7520001,13.84605,-0.130075,0.0254375,0.0631125
-1.27005,-0.43305,9.30105,-0.4972,-0.2509375,0.5570125
0.10305001,0.70500004,5.7250504,6.875E-4,0.3212,-0.3205125
-0.38205,0.21000001,8.278951,0.419375,-0.062425,-0.538175
0.16605,0.303,10.75395,0.0715,0.0199375,0.026124999
-1.0849501,-0.22695,10.10295,0.047849998,-0.1480875,-0.017324999
0.70605004,-1.05795,9.8560505,-0.435875,-0.1018875,0.8394375
0.44595003,0.38895002,5.892,-0.3289,-0.21395,0.384725
0.10605001,0.45195,8.868,0.2981,0.0078375,-0.8292625
0.71400005,-0.21300001,10.363951,0.3683625,0.0815375,-0.713075
-0.564,-2.1990001,13.618951,0.058575,-0.034375,-0.0188375
-0.20505,-0.95505005,8.920051,-0.601975,-0.0015125,1.301025
-0.54195005,0.102000006,7.5420003,-0.3529625,0.2044625,0.5159
-0.59895,1.3780501,6.6180005,0.3322,0.227425,-0.6007375
0.079050004,-0.097950004,11.06295,0.791725,0.0946,-1.39755
0.77595,1.74195,12.22605,0.07645,-0.153725,0.0708125
0.28500003,-0.049950004,9.95205,0.15235,-0.22385,-0.0647625
-0.54,-0.84195006,10.1650505,-0.2244,-0.1126125,0.560725
-0.09705,0.57405,7.5510006,-0.1959375,0.1155,0.1384625
-0.003,0.51195,8.808001,0.212025,0.028324999,-0.4912875
0.02205,0.83205,12.034051,0.0859375,-0.038225,-0.0246125
1.36995,-1.28505,11.304001,0.0061875,0.2019875,0.1282875
-0.882,-1.25205,10.584001,-0.5314375,-0.07645,1.0250624
-0.33105,1.1839501,6.23505,-0.231,0.0776875,0.4148375
-0.50895,0.39195,9.36795,0.6100875,0.1183875,-1.0840499
-0.564,0.37695003,10.419001,0.3029125,0.1287,-0.62535
-1.07295,-1.7020501,14.13405,0.2110625,0.0974875,-0.407275
0.63705003,-1.266,10.984051,-0.4552625,-0.2795375,0.9678625
0.36195,0.717,5.9710503,-0.4250125,-0.32835,0.847275
-0.06105,0.44505003,8.736,0.25795,-0.0636625,-0.543125
0.24195,-0.20595,10.548,0.326425,0.0950125,-0.4890875
-2.32005,0.75105006,8.20005,-0.0143,0.0638,0.1060125
-1.1020501,-0.94305,10.58205,-0.1973125,0.2756875,0.388575
0.075,0.15705001,6.3760505,-0.4972,-0.075075,0.891275
0.18900001,1.05495,6.0979505,0.0471625,-0.1596375,-0.0796125
0.393,-0.141,11.874001,0.5819,0.0265375,-0.986425
0.10095,0.50205004,10.665001,0.184525,0.081675,-0.292875
-0.231,1.0170001,7.7689505,-0.339075,0.16665,0.4675
-0.46500003,0.14805001,7.7910004,-0.08965,0.0378125,0.014162499
-0.00795,0.38700002,8.32695,0.1111,0.0952875,-0.3972375
-0.19995001,0.744,9.17895,0.2242625,-0.0803,-0.4885375
0.44805002,0.71505004,12.40995,0.161425,-0.014712499,-0.0917125
1.14195,-2.3380501,12.595051,-0.0198,0.1208625,0.247225
-0.40605003,-1.58895,11.464951,-0.649,-0.0298375,1.3376
0.055050004,1.33305,5.5410004,-0.3202375,0.0545875,0.4615875
0.22095,0.63405,8.56095,0.5456,-0.1079375,-0.95535
-0.37005,0.97800004,10.552951,0.293975,-0.1722875,-0.3587375
-0.71205,0.61200005,10.89,0.1315875,0.0077,-0.39325
0.30900002,-0.76305,10.897051,0.1898875,0.228525,-0.4258375
-0.24300002,0.70095,6.9960003,-0.428175,-0.0083875,0.9433875
-0.441,1.0720501,7.6159506,0.0446875,0.0919875,-0.04455
0.40005,0.294,9.118951,0.1667875,-0.0867625,-0.286275
0.261,0.12900001,12.160951,-0.1392875,-0.2319625,0.4464625
0.28995,0.33405003,8.932051,-0.1945625,0.0867625,0.328075
0.21300001,-1.47195,10.390051,-0.0732875,0.237325,0.048125
0.57705003,0.483,7.03905,-0.39214998,0.0495,0.7717875
-0.25695002,0.31005,9.813001,0.6219125,-0.0207625,-1.3465375
-0.26205,0.09,10.79205,0.121825,0.0485375,-0.252175
-1.9090501,0.36600003,12.463051,-0.0840125,-0.0108624995,0.2586375
0.108,-0.62700003,9.2029505,-0.20735,0.1552375,0.67553747
-0.63105005,0.034950003,7.3690505,-0.450725,-0.1731125,1.5321625
-0.11805001,-0.033,9.247951,-0.041525,-0.0155375,0.6040375
0.07005,-0.39195,9.95205,0.1519375,-0.00715,0.078375
-0.81705004,0.279,12.22605,0.070125,-0.00715,0.4698375
0.522,-0.82305,10.309051,0.0199375,0.2365,0.63414997
-0.90105003,-0.80895007,11.28495,-0.1276,-0.0636625,1.2563375
0.29505002,0.528,7.9819503,-0.0592625,0.1599125,1.302675
0.010050001,0.0,10.012051,0.3458125,-0.0979,-0.09625
-0.042000003,0.54495,10.194,-0.042625,-0.13145,0.44233748
-1.43505,-0.10005,10.737,0.128975,-0.0705375,0.34814999
0.043050002,0.90900004,6.3949504,-0.5009125,0.137775,2.2237875
0.0,-1.83105,12.417001,-0.0743875,-0.2129875,0.742775
-0.06795,0.37005,8.454,-0.1821875,-0.01705,0.845075
0.13905,0.282,8.908051,0.3020875,-0.0059125,0.0011
-0.94395006,0.45405003,9.62895,0.1315875,-0.00605,0.5198875
-1.45905,0.94200003,8.63595,-0.170225,0.3144625,2.1998625
0.17505,-1.02195,10.549951,0.036025,0.429825,2.8021126
-0.32205,-0.60495,8.913,-0.3579125,-0.099,1.1015126
0.13695,0.55905,8.145,-0.22715,-0.2443375,1.4095125
-0.19005,0.16695,9.574051,0.22453749,-0.289575,1.340075
-0.15405001,0.27,11.27595,0.1232,-0.1370875,1.6325375
0.82905006,-1.00995,10.033051,-0.224675,0.25025,2.0389874
-0.72405005,-1.45305,11.701951,-0.1909875,-0.0708125,1.0454125
0.109950006,0.24795002,6.8689504,-0.24475,-0.010175,0.70015
0.34500003,0.09705,8.109,0.1225125,-0.184525,1.435775
0.31395,-1.0860001,10.984051,0.1414875,-0.1706375,1.5492125
-0.80505,0.33705002,11.773951,-0.134475,-0.069299996,0.9999
0.52695,-1.812,11.203951,0.052525,0.2116125,1.63625
-1.5190501,-0.75795,8.80095,-0.3865125,0.129525,-0.28985
-0.40095,0.73395,7.3240504,-0.0669625,0.14973749,1.1543125
-0.57795,0.48495004,9.078,0.307175,-0.1958,1.920875
0.62505,0.112050004,11.886001,0.158675,-0.0671,1.0538
1.16805,-2.62995,14.859001,0.2061125,-0.229075,1.0921625
0.39105,0.30600002,7.5150003,-0.3205125,-0.2825625,-0.4090625
0.62700003,-0.17895001,8.47305,-0.1485,0.0356125,-0.6329125
0.28995,0.56700003,8.154,0.090475,-0.0647625,0.172425
0.24405001,-0.21300001,10.88805,0.33495,0.04455,0.9818875
-0.55200005,1.3279501,10.75395,-0.0540375,0.109037496,0.0886875
1.0390501,-1.764,11.53905,0.00935,0.31845,-0.274175
-1.0900501,-0.47595003,9.48495,-0.3421,-0.104775,-0.2129875
-0.45600003,0.71505004,7.3570504,-0.00825,0.1672,0.3898125
-0.432,0.76005006,8.961,0.3465,-0.0075625,1.17645
-0.39600003,0.66705,11.05095,0.312125,-0.0059125,0.4899125
1.1850001,-4.0279503,17.133001,0.159225,0.0708125,0.22247499
1.6710001,-1.55595,10.689,-0.6524375,-0.2542375,-0.9986625
0.35205,0.17595,7.1509504,-0.3323375,-0.3240875,-0.012925
0.264,0.10695001,8.722051,0.2453,-0.028324999,0.7458
0.24405001,-0.28500003,10.12695,0.3422375,-0.0066,0.49225
-1.023,-0.60300004,11.179951,0.043449998,0.076725,0.1786125
-0.537,-1.83105,10.515,-0.534875,0.03135,-0.6980875
-0.53205,-0.42105,7.34805,-0.610775,0.2385625,-1.04555
-0.537,0.32205,7.5850506,0.1254,0.265375,0.169125
0.37395,-0.186,10.873951,0.470525,0.11605,0.601975
0.46005002,1.30095,10.737,0.2382875,-0.322025,0.7101875
-0.16905001,-0.69900006,12.111001,-0.0235125,-0.0768625,-0.184525
0.393,-1.17495,10.677,-0.1142625,-0.059675,0.044825
-0.135,0.44895002,7.2829504,-0.199375,-0.1208625,-0.4272125
-0.37695003,0.96195006,7.8790503,0.3872,0.12979999,0.284625
0.012,0.52095,10.189051,0.467225,0.1596375,0.21779999
-1.7080501,0.07395,12.823951,0.26235,0.00165,-0.036849998
-0.88905007,-1.0390501,11.22795,-0.2563,0.0405625,-1.0060875
-0.13995,0.68595004,7.83795,-0.45168748,0.1722875,-1.303225
-0.38595003,1.167,8.00805,0.1703625,0.0620125,0.822525
0.156,0.28905,10.359,0.2272875,-0.11605,0.8305
-0.42705002,0.99495006,9.736951,0.0180125,-0.2124375,0.2508
-0.34095,2.22495,6.5200505,-0.19195,-0.12705,-0.875325
-0.10395,-1.18005,12.148951,0.2206875,-0.20487499,0.7038625
0.35205,1.371,6.5080504,-0.3141875,-0.131725,-0.5363875
-0.25005,0.75795,9.736951,0.42295,0.0375375,0.825
-0.51105005,1.4310001,10.687051,0.2019875,0.1475375,0.2259125
-1.9660501,0.25800002,12.331051,0.1441,0.215875,0.2437875
-0.027,-1.299,10.4740505,-0.338525,0.03135,-0.5885
-0.087000005,0.63105005,6.8910003,-0.6056875,0.127875,-1.3717
0.75900006,0.076050006,9.603001,0.2314125,0.134475,0.54821247
0.80505,-0.684,10.864051,0.147125,-0.186175,0.6824125
-0.30495003,1.96905,11.08905,-0.1106875,-0.1931875,0.0116875
0.076950006,-0.74895006,11.56995,0.050875,-0.0325875,-0.2385625
-0.33105,-0.58395004,10.677,-0.0878625,0.0675125,-0.744975
0.86700004,-0.19395001,8.583,-0.13653749,0.3359125,-0.6826875
0.048,0.58095,9.69795,0.13035,-0.0127875,0.6521625
0.47400004,-0.73005,11.967001,0.1639,0.0501875,0.3848625
0.47700003,-2.2429502,14.17695,0.1698125,-0.1057375,0.0363
-1.059,-0.58605003,9.47805,-0.598125,-0.1843875,-1.4463625
0.40005,0.282,6.43095,-0.1991,0.130625,-0.01265
0.16605,0.22200002,8.956051,0.1420375,-0.2217875,1.0132375
0.70905006,-0.26505002,10.94295,0.0952875,-0.2003375,0.506275
-0.492,-1.24395,12.748051,0.1838375,-0.1150875,0.2341625
0.063,0.67200005,8.905951,-0.3697375,-0.0653125,-0.9574125
0.18495001,-0.13395001,8.33895,-0.0221375,-0.003025,-0.181225
0.66300005,0.45900002,8.439,0.0631125,-0.0209,0.28393748
0.81705004,-0.67905,10.809001,0.26345,-0.1291125,0.766425
0.57000005,1.026,9.637951,-0.174625,0.0749375,-0.26565
1.9800001,-1.4650501,11.674951,0.02915,0.18535,-0.245025
-0.96300006,0.15195,7.8769503,-0.3097875,0.0738375,-0.353375
-0.14205001,0.45405003,7.5060005,0.1078,0.3227125,-0.038225
0.109950006,-0.29700002,10.28505,0.263175,0.0826375,0.355025
0.33795002,0.73905003,10.846951,-0.0273625,-0.0257125,-0.0372625
2.193,-2.2069502,12.550951,0.06985,-0.0375375,0.24145
0.726,-1.2730501,9.883051,-0.1387375,-0.590425,0.4536125
0.453,0.68895006,6.7540503,-0.095699996,0.0501875,-0.1175625
-0.23595001,1.194,8.427,0.46475,0.056925,1.0366125
-0.24000001,1.455,9.339001,0.3881625,0.1225125,0.5379
-2.0020502,0.70095,9.580951,0.347875,0.21725,-0.13585
-1.15695,-1.7520001,12.85095,-0.2520375,0.1623875,-1.6660875
1.74495,0.124050006,8.499001,-0.752125,0.13653749,-1.3838
-0.26205,-0.021000002,8.401051,0.29645,-0.4761625,2.063875
0.402,0.41805002,8.80095,0.16005,0.182325,-0.0743875
-0.87000006,0.45195,10.62195,0.2168375,-0.042075,-0.0455125
-0.22395001,0.43995002,8.2879505,-0.2074875,-0.057475,-0.704275
-0.33405003,-0.49800003,9.700951,-0.267575,-0.1742125,-0.2773375
0.11805001,0.12105001,8.712001,-0.0578875,0.01925,0.3122625
0.48600003,0.60705,9.495001,0.1802625,-0.1057375,0.8320125
0.40695003,0.91395,10.593,0.126775,-0.212025,0.54395
-0.039,-1.5820501,10.693951,-0.46667498,0.0862125,-1.3979625
-1.06095,-0.40695003,7.79505,-0.59675,0.2858625,-1.4636875
-0.492,0.342,7.3380003,-0.00275,0.19635,0.0259875
-0.08505,0.31500003,9.3490505,0.3023625,-0.0616,0.6749875
-0.40305,1.62495,11.295,0.30855,-0.128975,0.59015
1.26405,-1.6800001,12.53505,0.002475,0.064625,-0.3180375
0.915,-1.3090501,10.408951,-0.2206875,-0.3251875,-0.046475
0.711,0.31995,6.8190002,-0.2404875,-0.2844875,0.109037496
0.67800003,0.47595003,8.146951,0.3738625,-0.2332,1.012275
0.393,0.0019500001,10.974001,0.390775,-0.0559625,0.6208125
0.76605004,-2.4049501,12.33405,-0.0793375,0.171875,-0.4008125
-1.0849501,-2.1760502,10.665001,-0.930325,0.3488375,-2.2748
-0.13005,0.009000001,7.1659503,-0.4269375,0.5812125,-0.8234875
-0.17295001,0.58305,8.146951,0.409475,0.0224125,0.990825
0.12495001,0.624,9.772051,0.6389625,-0.060775,1.1075625
-0.30705002,0.59295005,9.094951,0.2849,-0.229625,0.758175
0.112950005,0.016050002,7.9800005,-0.4521,-0.18315,-0.697675
-0.48195,-1.5600001,10.663051,-0.3051125,-0.1486375,-0.3249125
0.24000001,0.363,6.6199503,-0.29755,0.1203125,-0.2234375
0.72300005,-0.00705,8.746051,0.36107498,-0.1115125,0.730675
0.35505003,-0.10005,11.950951,0.0848375,-0.1144,0.1057375
-0.15195,-2.1010501,13.966051,-0.062425,0.1684375,-0.330825
-0.64005005,-1.67295,10.368,-0.4494875,0.2759625,-0.97789997
0.22995001,0.33705002,6.201,-0.0424875,0.1530375,0.056649998
0.21300001,-0.01905,9.01395,0.4136,-0.162525,0.8212875
0.83295006,0.13605,10.641001,0.23773749,-0.2057,0.5680125
0.54795,-3.348,15.177001,0.388025,-0.207625,0.6796625
1.95105,-0.41895002,8.63595,-0.51865,0.0119624995,-0.8848125
0.51000005,-0.86595005,8.434051,-0.10945,-0.30085,0.2574
0.46905002,0.70500004,7.4430003,0.0169125,0.1012,0.0820875
0.91995007,-0.59595,11.127001,0.5754375,0.040975,0.94476247
-0.58005005,-0.46395,10.93605,-0.095699996,-0.0642125,-0.300025
-1.0350001,-1.7850001,9.58605,-0.5768125,0.1117875,-1.0476125
-0.042000003,-0.45705003,7.6639504,-0.5278625,0.4800125,-1.056275
-0.24300002,0.54705,6.5530505,0.1483625,0.024475,0.24653749
-0.23805001,0.064050004,9.042001,0.518925,0.0243375,1.2134374
0.08400001,0.16695,12.316951,0.2453,0.0642125,0.4439875
1.3600501,-1.8829501,12.585001,-0.0567875,-0.02365,-0.28985
1.33605,-0.77295005,8.920051,-0.146025,-0.5267625,0.31405
0.09105001,0.22395001,7.6039505,-0.089237496,-0.337425,0.34925
-0.051000003,0.126,8.217,0.3546125,0.1676125,0.4714875
-0.25500003,-0.72300005,10.90005,0.133375,0.2116125,-0.059125
0.59895,-1.7569501,12.760051,-0.050049998,0.1929125,-0.4698375
-0.46500003,-2.29005,11.71605,-0.4032875,-0.1959375,-0.7775625
-0.034950003,-0.32805002,7.31895,-0.5061375,0.39875,-1.714075
0.67995006,0.45900002,7.3840504,0.106837496,0.169675,0.3353625
-0.109050006,-0.10005,11.89605,0.416625,-0.27513748,1.3245375
-0.82395005,-2.4750001,13.624051,0.2800875,-0.0163625,0.8493375
1.6570501,-0.39195,9.327001,-0.5017375,-0.0891,-0.8815125
-0.14895001,-0.90405005,9.078,-0.21573749,-0.3432,-0.160875
0.109950006,-0.025950002,8.74995,0.05555,0.25245,-0.092125
-0.010950001,-0.23205002,9.67395,0.3614875,0.1475375,0.4142875
-0.25500003,0.08505,8.925,0.0517,0.0726,-0.21395
-1.03995,-1.0819501,9.430051,-0.3917375,-0.096525,-0.996875
-0.079950005,-0.50205004,9.033,-0.44027498,0.382525,-1.3468125
-0.31695002,0.966,7.326,0.1335125,0.0083875,0.7833375
0.112950005,-0.033,9.271951,0.600325,-0.0941875,1.430825
-0.231,1.5120001,10.345051,0.088,-0.14465,0.1428625
-0.126,0.66495,8.37705,-0.1252625,-0.0686125,-0.2179375
-0.68805003,-0.36795002,9.14805,-0.2146375,-0.19607499,-0.2475
-0.24495001,0.51405,7.6009502,-0.004125,0.16445,-0.1373625
-0.022950001,0.40605003,9.58605,0.29273748,0.1467125,0.4239125
0.079050004,0.85095006,13.921051,0.039325,-0.11055,0.125125
0.855,-1.9549501,10.57905,-0.0438625,0.1232,-0.27719998
-0.564,-0.64395005,9.33195,-0.593175,-0.013062499,-1.4763374
-0.38895002,1.074,6.3739505,-0.059675,0.1219625,-0.27513748
-0.066,0.76305,8.54205,0.5583875,-0.0174625,1.389025
-0.11100001,1.09305,10.95495,0.2756875,-0.1425875,0.5245625
-1.4490001,1.31595,11.23305,0.1346125,-0.172425,0.60885
-0.513,-1.797,14.368051,0.2828375,0.312125,-0.0804375
-0.252,1.3590001,5.37795,-0.4862,0.0367125,-1.17315
-0.01305,0.43500003,8.7619505,0.252175,-0.022824999,0.808225
-0.042000003,0.74595004,10.744051,0.0823625,5.5E-4,0.3405875
1.3930501,-3.48495,16.575,0.11055,0.01815,0.2938375
-1.9540501,-1.5480001,11.778001,-0.771375,-0.0782375,-1.4553
0.59895,0.16395001,6.0019503,-0.3862375,0.3848625,-0.7880125
0.39495003,0.34605002,8.08005,0.2336125,-0.3986125,1.0385375
0.0,-0.67200005,12.178051,0.335775,-0.23595,0.9601625
-0.20505,-0.68895006,11.503051,-0.0028875,-0.003025,0.0664125
-0.06105,-0.097950004,8.647051,-0.1254,0.140525,-0.5028375
-0.16095,0.030000001,7.017,-0.1428625,0.143825,-0.6397875
-0.13005,-0.012,9.150001,0.1076625,-0.0759,0.3542
0.39795002,-0.54495,11.224951,0.177925,-0.08965,0.6886
-0.74100006,1.58895,11.757001,-0.04455,-0.1533125,4.125E-4
0.52695,-1.524,10.91895,-0.096525,0.0710875,-0.639375
-0.006,-1.0669501,8.391001,-0.472175,0.0276375,-0.97185
-0.372,1.3060501,5.21295,-0.11,-0.03135,0.1329625
0.076950006,-0.19800001,10.90005,0.6061,0.07755,0.9332125
0.30900002,1.8420001,12.961051,0.1249875,-0.0020625,0.203775
0.30405003,-0.33705002,8.65695,-0.0803,0.0705375,-0.3240875
0.08205,-0.79395,10.12005,-0.128975,-0.23925,-0.0375375
0.156,0.61905,6.807,-0.0968,-0.055275,0.02475
0.076950006,0.43695003,8.431951,0.286275,-0.0023375,0.764775
0.28800002,-0.33705002,12.81,0.1417625,-0.01595,0.072875
1.83405,-2.84805,12.958051,0.062975,0.142725,-0.0713625
-0.74295,-1.7569501,10.74705,-0.56374997,0.032725,-1.1974875
0.039,0.59805006,6.2970004,-0.3601125,0.2140875,-0.544775
-0.906,0.28695002,8.655001,0.4879875,-0.0364375,1.170675
-0.906,1.2780001,10.239,0.2926,0.1764125,0.044
0.68295,-0.23205002,9.70995,0.3117125,0.0276375,0.606375
0.32805002,-0.83505005,10.053,-0.0666875,-0.2894375,-0.21573749
0.22095,-0.711,8.146951,-0.34485,0.0022,-1.027125
0.27600002,0.39900002,7.4940004,-0.1804,-0.0331375,-0.121275
0.34005,-0.97395,12.121051,0.26235,-0.034375,0.563475
-1.3609501,-1.24695,11.167951,-0.1984125,0.1192125,-0.5240125
-0.33600003,-1.797,10.668,-0.3075875,0.07865,-0.8512625
0.12495001,0.33705002,7.06995,-0.4068625,0.1137125,-1.0608125
0.41895002,0.47595003,8.181001,0.4291375,-0.1640375,1.6513749
0.112950005,-0.22200002,11.616,0.4241875,-0.1923625,1.1606375
-0.291,1.77495,11.206051,0.039049998,-0.040975,0.297275
-0.13695,-0.84705,8.96595,0.0798875,0.1456125,-0.2739
-0.11805001,-0.43500003,8.34105,-0.4439875,-0.1359875,-1.0030625
-0.34605002,0.89205,6.9859505,0.0342375,-0.0103124995,-0.120037496
-0.15705001,0.08295,9.95895,0.4368375,0.0653125,0.845075
0.12195001,1.3369501,11.094001,-0.0380875,-0.0462,-0.214225
-0.80295,-0.36405003,10.564951,0.045925,0.1232,0.0633875
-0.27195,-0.59805006,7.8910503,-0.353925,0.1472625,-0.8529125
-0.24795002,0.507,6.6889505,-0.0273625,-0.0031625,-0.102575
-0.32895002,0.22005,8.901,0.4126375,0.148225,0.7349375
-0.21900001,1.00695,11.862,0.16499999,-0.058849998,0.1450625
1.06605,-2.01,14.236951,0.3117125,-0.123475,0.59894997
0.08205,-0.37605003,10.179001,-0.27981248,-0.095425,-0.553025
0.37905002,0.91095006,6.3850503,-0.133375,0.0042625,0.18933749
0.15105,0.62595004,9.3820505,0.3507625,-0.1452,1.1341
0.039,-0.33705002,12.83205,0.18259999,-0.0680625,0.5526125
-2.2339501,-0.031050002,9.954,-0.253825,0.0792,-0.326425
-1.0849501,-0.58395004,9.64605,-0.3606625,0.0493625,-1.0329
0.015000001,0.41295,6.72795,-0.243925,0.2091375,-0.7953
-0.09705,0.59295005,8.0779505,0.2074875,-0.0342375,0.58245
0.40995002,0.45195,10.38,0.3821125,-0.10395,0.6518875
-0.882,1.2580501,10.938001,0.2773375,-0.1288375,0.5385875
0.513,0.39405003,8.587951,-0.0895125,0.0809875,-0.56155
-0.11805001,-0.25095,9.009001,-0.245575,-0.1524875,-0.4906
0.097950004,1.04805,7.1350503,-0.1265,0.0251625,-0.15413749
-0.102000006,0.56895,9.387,0.3047,0.010175,0.7062
-0.84405005,1.9909501,10.809001,0.0243375,0.020624999,-0.2410375
-0.20895001,-0.45195,9.448951,0.0094875,0.1871375,-0.5253875
-0.85095006,-0.16005,8.121,-0.5025625,0.16445,-1.2882375
-0.27195,1.1869501,7.1989503,-0.113299996,0.1315875,-0.0099
-0.11595,0.47805002,9.05895,0.3964125,-0.0985875,1.6094375
0.24405001,2.0959501,11.06295,0.04015,-0.148225,0.3788125
0.666,-0.13905,9.804001,0.1018875,-0.092675,0.27995
0.34995002,-1.041,10.476001,-0.3185875,-0.311575,-0.160325
0.17505,1.0639501,6.0430503,-0.32285,-0.0952875,-0.2827
0.096,0.837,8.616,0.3944875,0.073425,0.4475625
-0.252,0.51405,11.65095,0.256025,0.087725,0.1683
0.83295006,-3.18105,13.66005,0.009625,0.2314125,-0.333575
-2.2030501,-0.87600005,8.986951,-0.7990125,0.127875,-1.4333
0.24705002,0.507,6.0739503,-0.399575,0.30827498,-0.6400625
-1.0849501,1.2100501,8.805,0.38005,-0.3482875,1.222375
-0.74805003,0.648,10.60305,0.5812125,0.0473,0.8646
-0.24495001,-1.2250501,13.789051,0.1408,-0.2094125,0.36107498
-0.28605002,-0.8880001,9.583051,-0.44027498,0.0188375,-1.2507
0.24405001,0.24105,5.7559505,-0.307725,0.17613749,-1.071125
-0.087000005,0.31500003,9.045,0.2398,-0.00495,0.67155
0.28305,-0.49305,10.52595,0.2836625,-0.0215875,0.80808747
-0.351,-2.9200501,13.399051,-0.1621125,-0.0199375,-0.3642375
-0.666,-2.223,11.769001,-0.7038625,-0.034375,-1.2632124
0.84105,0.72705,5.7319503,-0.4332625,0.259325,-0.8707875
0.087000005,0.49500003,7.1080503,0.55027497,-0.4459125,1.947
-0.14505,-1.70895,13.02795,0.48785,-0.039049998,0.986975
0.26595002,0.24795002,11.527051,-0.264825,0.12155,-0.3196875
-0.21405001,-0.20595,8.025001,-0.152625,-0.0895125,-0.21285
-0.67395,-0.56505,8.08005,-0.2600125,0.1903,-1.1647625
0.08205,0.41595003,7.03905,0.0347875,0.073975,-0.07205
0.15405001,0.186,9.073951,0.39765,-0.1804,1.0737375
0.010050001,-0.55005,12.90795,0.2121625,-0.135575,0.8955375
1.8199501,-3.4300501,12.37005,-0.0539,0.0647625,0.14575
-1.14795,-2.04405,11.29695,-0.79805,0.15565,-1.928025
0.61305004,0.54495,5.4160504,-0.248325,0.253275,-0.5655375
0.064950004,0.061950002,8.99895,0.5278625,-0.3243625,1.363725
0.522,-0.47400004,10.6390505,0.3663,-0.028324999,0.6617875
-1.33395,-0.87795,12.228001,0.0952875,-0.06655,0.26345
0.0049500004,-1.3450501,9.102,-0.2371875,0.1549625,-0.824725
0.24195,-0.16995001,6.5269504,-0.2992,0.1860375,-1.162975
-0.135,-0.30105,9.658051,0.22055,-0.098175,0.3603875
-0.09705,-0.021000002,10.29705,0.2385625,-0.050325,0.731775
-1.128,-1.3660501,13.771951,0.1698125,0.0026125,0.4173125
-3.14895,-1.9720501,11.118001,-0.532125,0.2325125,-1.16765
0.252,-0.88305,7.0150504,-0.3705625,0.69355,-1.0912
-0.01995,0.693,5.373,-0.051975,-0.2297625,0.2211
0.16995001,0.20805001,8.4199505,0.534325,-0.3944875,1.633225
0.16605,0.78900003,9.4800005,0.306075,-0.302775,1.1383625
0.08400001,-0.08595,7.7500505,-0.247225,-0.1131625,-0.3287625
-0.492,-1.077,10.41195,-0.096525,-0.1577125,-0.0903375
0.24405001,0.33195,6.9340506,-0.086899996,0.195525,-0.6039
1.0540501,1.368,7.8480005,0.533225,-0.20019999,0.9537
0.80700004,-0.26805001,11.071951,0.647075,-0.3048375,1.3506625
1.35,-4.1119504,17.65995,-0.013062499,-0.016224999,-0.189475
1.2210001,-3.01605,16.14705,-1.0830874,0.4675,-2.5260124
2.061,-0.39900002,6.60795,-0.4384875,4.125E-4,-0.2360875
0.32295,-0.72,7.14405,0.1351625,-0.4830375,1.1268125
0.984,-0.768,9.727051,-0.14905,0.0240625,-0.3425125
0.61995006,-2.8579502,15.040951,0.2061125,-0.1354375,0.1722875
0.21795002,-1.2709501,9.82995,-0.284075,0.2635875,-1.054625
-0.32895002,0.77505004,4.6069503,0.0790625,0.236775,-0.252725
0.04605,-0.57405,10.27995,0.690525,0.0295625,1.1072875
-0.15705001,-0.65805006,11.857051,0.0506,0.0955625,-0.133925
0.68295,-2.901,13.47105,-0.2231625,0.3075875,-1.072775
-1.2240001,-1.728,9.436951,-0.562925,0.27775,-1.716825
0.20895001,0.57405,5.2390504,-0.072325,0.1530375,0.2629
0.25905,-0.64395005,9.78705,0.4203375,-0.3689125,1.433575
0.90795004,0.19095,12.817051,0.033825,-0.4312,0.69025
0.771,-1.5510001,10.342051,0.09075,-0.1238875,0.61875
-0.003,-1.4770501,9.729,-0.2050125,-0.0639375,-0.3306875
0.14895001,0.86595005,5.03805,-0.1335125,0.1912625,-0.5784625
0.076950006,-0.44505003,10.78005,0.480975,-0.0559625,1.084325
0.22995001,-1.764,14.859001,0.0785125,0.044,0.2107875
0.264,-4.2049503,15.004951,-0.231825,0.3135,-0.721325
-0.573,-0.94305,7.2499504,-0.6804875,0.3997125,-1.9215624
-0.14895001,0.061950002,6.0019503,-0.090475,-0.152075,0.3702875
0.24705002,-0.462,9.82005,0.4415125,-0.2462625,1.0671375
0.177,0.44895002,10.882951,0.3730375,-0.2776125,0.952325
0.29205,-0.75795,12.67605,0.4742375,-0.179025,0.78155
-1.04505,-0.531,9.847051,-0.018424999,-0.1043625,-0.599225
-0.18795002,0.77205,6.2800503,-0.1307625,0.2894375,-0.77385
0.201,-0.040050004,9.295951,0.4657125,0.05775,0.9042
0.79695004,-0.65295005,12.099001,0.0264,-0.1450625,0.1835625
-0.18795002,-2.8189502,15.919051,-0.122375,-0.1621125,-0.1276
-1.8370501,-1.00995,10.660951,-0.685575,0.37454998,-1.4794999
-0.48495004,1.014,4.32705,-0.17173749,0.031075,0.26125
-0.906,0.57600003,8.299951,0.5154875,-0.0653125,1.212475
0.702,-0.23400001,12.316951,0.1871375,-0.07535,0.24805
0.27600002,-2.2690501,15.490951,0.185625,-0.30085,0.3185875
0.40500003,-0.75405,8.80305,-0.5080625,-0.0592625,-1.3525875
-0.09900001,0.43995002,5.67,-0.2475,-0.1599125,-0.2355375
-0.41505003,0.105000004,9.2029505,0.3449875,0.1555125,0.7161
0.65895003,-1.10595,13.49505,0.0919875,-0.0122375,0.2162875
1.5130501,-2.93895,14.004001,0.0394625,-0.050049998,0.103125
0.052950002,-1.09605,9.62205,-0.5952375,-0.03355,-1.493525
1.0200001,0.025950002,6.07695,-0.1331,-0.005225,0.0452375
-0.36705002,-0.25305,6.8089504,0.2855875,-0.424875,1.5598
0.38295,-1.00995,12.310051,-0.340175,0.125675,-0.820325
1.0129501,-0.94500005,11.344951,0.1332375,-0.018975,0.3029125
0.20895001,-1.2280501,9.942,0.072875,-0.0528,-0.1535875
-0.69795,0.76995003,5.36595,-0.0325875,0.191125,-0.721875
0.45495003,-0.079050004,8.829,0.4140125,0.1948375,0.5677375
0.96300006,-1.2250501,12.487051,0.1387375,-0.292875,0.69575
0.91995007,-2.3860502,15.27795,-0.219175,-0.308825,-0.1214125
-0.18105,-2.02005,10.984051,-0.4170375,0.163075,-0.8295375
0.15405001,0.57105005,4.9999504,-0.2701875,0.106975,-0.6628875
0.064950004,0.010950001,8.154,0.4893625,-0.059125,0.9634625
1.45305,-0.69900006,11.829,0.1964875,-0.08415,0.5845125
0.87600005,-2.8890002,17.26695,0.2385625,-0.27719998,0.672925
1.33395,-0.837,9.732,-0.4466,-0.0303875,-0.5993625
-0.15705001,0.45600003,6.0720005,-0.1579875,-0.2523125,0.0636625
-0.27405003,1.09605,6.0100503,0.3111625,0.0259875,0.65381247
0.094050005,-0.17400001,11.06505,0.4162125,0.1054625,0.2231625
1.6060501,-2.874,14.943001,-0.0721875,0.1425875,-0.1431375
-1.7820001,-1.5169501,10.696051,-0.719675,0.0059125,-1.3294874
-0.09705,0.069000006,6.366,-0.2673,0.614075,-0.968275
0.29205,0.33195,7.1370006,0.412775,0.115225,0.8416375
0.23700002,0.45900002,9.604951,0.3592875,-0.27555,0.7910375
-1.0159501,-0.24405001,11.544001,0.2737625,-0.1342,0.6175125
1.2229501,0.96900004,5.47095,-0.2759625,0.054175,-0.7095
0.096,-1.09095,11.142,-0.0551375,-0.61875,0.532125
0.24195,1.3249501,6.0700502,-0.14093749,-0.01265,-0.224125
0.031050002,0.117000006,9.588,0.5555,0.0352,0.9829875
-0.39405003,0.17400001,11.178,0.050875,0.1219625,-0.23925
-1.2529501,0.12900001,9.01095,-0.4236375,0.192775,-1.4566749
-0.37005,-0.60795003,9.361051,-0.197175,0.4598,-1.15885
-0.69000006,1.5310501,5.71995,-0.0358875,0.1016125,-0.0517
-0.14505,0.26505002,9.583051,0.52854997,0.0671,1.2491875
-0.51105005,1.1050501,11.023951,0.066825,-0.271975,0.6758125
1.281,-1.125,12.634951,0.2652375,-0.069299996,0.6408875
0.77805007,-0.48600003,9.95895,-0.2864125,-0.2525875,-0.291225
0.087000005,0.16695,8.085,-0.1936,-0.06435,-0.32175
0.21795002,0.36795002,9.255,0.185075,0.03355,0.44701248
0.003,0.43995002,9.84405,0.1577125,0.050049998,0.5242875
-1.416,0.87795,9.66705,0.04675,0.1252625,0.0240625
-0.92295,-0.58905005,11.125051,-0.2737625,0.3152875,-1.3486
-0.73605,-0.51405,9.049951,-0.39214998,0.2602875,-1.0998625
0.052950002,0.93495005,5.81295,-0.11605,0.0257125,0.16445
-0.55200005,0.40095,9.246,0.2932875,-0.172975,1.16875
-0.018000001,1.4089501,11.347051,0.2028125,-0.06655,0.6276875
0.71400005,-0.83295006,11.677951,-0.0407,-0.0174625,-0.2706
0.45495003,-0.76095,10.177051,-0.24585,-0.3113,-0.3675375
0.094050005,0.78405005,5.92395,-0.1340625,-0.1513875,-0.135575
-0.23295002,0.31995,9.531,0.2440625,-0.0154,0.3540625
-0.46500003,-0.021000002,12.11295,-0.0169125,-0.0345125,0.1293875
-0.45600003,-1.8829501,13.474951,0.0650375,0.2288,-0.187
-1.1329501,-0.36795002,7.9510503,-0.4554,0.092125,-1.1950125
0.34005,0.588,3.4339502,-0.2189,0.1678875,-0.5204375
0.109950006,-0.0139500005,9.904051,0.2827,-0.09075,0.769725
-0.40995002,0.33195,10.61505,0.2327875,0.0891,0.58575
0.00795,0.49995002,8.79105,0.098725,0.0606375,0.16115
-0.43695003,0.09705,8.889001,-0.1032625,-0.20295,-0.062975
-0.46995002,-0.26805001,8.44905,-0.346225,0.024475,-1.0313874
-0.13995,0.50205004,7.6489506,0.020624999,-0.029424999,-0.064075
0.17295001,-0.13905,9.825001,0.3603875,0.016775,0.4527875
-0.034950003,0.069000006,12.37695,-0.0202125,-0.1034,0.13695
0.108,-2.0650501,12.489,-0.2855875,0.0224125,-0.6026625
-1.02795,-1.0000501,9.574051,-0.388575,0.324225,-0.8182625
-0.13005,0.483,6.1800003,-0.071775,0.271425,-0.11165
-0.39600003,0.0139500005,9.14805,0.3903625,-0.0903375,0.749375
0.052950002,0.45600003,10.087951,0.218625,-0.0518375,0.6226
-0.36195,-1.20105,13.674001,0.192225,-0.0246125,0.7847125
0.75195,0.36105,8.266951,-0.315425,-0.2057,-0.1128875
-0.40095,-0.76305,10.6050005,0.1153625,-0.3276625,0.5999125
0.38295,0.57600003,6.8040004,-0.1029875,0.095837496,-0.4213
0.25905,0.021000002,9.306001,0.25547498,-0.081125,0.5105375
-0.039,0.03795,11.038951,0.0441375,-0.0356125,0.031075
-0.231,-1.197,12.109051,0.099275,0.1164625,-0.328625
-1.24605,-0.78495,9.66195,-0.6246625,0.0540375,-1.4565375
-0.17295001,-1.098,8.262,-0.237325,0.548625,-0.8837125
-0.73800004,0.34395,7.12305,-0.084425,0.18493749,-0.4752
-0.717,0.38895002,9.540001,0.3353625,0.102437496,0.4444
-0.291,0.591,11.023951,0.2748625,-0.037675,0.8536
0.048,0.68895006,9.825001,0.1513875,-0.221925,0.89196247
-0.50595003,0.010950001,10.1650505,0.055,-0.2684,0.5746125
-0.57795,-0.81105006,10.287001,-0.0419375,0.0383625,-0.2385625
-0.49695003,0.65805006,7.6590004,-0.344575,0.0686125,-0.7767375
-0.26895002,0.25995,10.12395,0.1637625,0.075075,0.2531375
-0.56595004,0.23895001,9.898951,0.1329625,0.022824999,0.776875
-0.74505,0.88500005,10.15095,0.0312125,0.1863125,0.29205
-0.20505,-1.7659501,12.08205,-0.015675,0.26427498,-0.0396
-1.6360501,-0.37095,8.98995,-0.533775,-0.16995,-0.0088
-1.3630501,-0.58605003,8.190001,-0.089237496,0.4019125,-0.0853875
-1.32,-0.402,9.732,-0.050875,0.3221625,0.0526625
-0.822,-0.012,9.684,-0.023924999,0.00715,0.667425
0.034050003,-0.93795,12.085051,-0.039875,-0.3438875,1.3052875
-1.42305,-0.79005,11.56095,-0.1714625,-0.4431625,1.4320625
0.01905,-0.53295004,8.53005,-0.2275625,-0.0286,0.6666
-0.12795001,-0.30600002,8.70495,-0.1684375,-0.3267,1.155275
0.39105,-1.09395,10.552951,-0.02915,-0.241175,1.09945
-0.01305,0.37995002,9.247951,-0.056375,-0.3557125,1.507
0.08400001,0.20505,9.942,0.280775,-0.1824625,1.2544125
0.097950004,-0.025950002,9.555,0.2255,-0.038225,1.0844625
0.67995006,-0.61200005,10.254001,0.0501875,-0.0023375,0.9988
0.95505005,-1.1730001,10.26105,-0.1687125,-0.293975,1.82215
-0.015000001,-0.624,10.057051,-0.1551,-0.2256375,1.69675
0.24000001,-0.57405,9.64995,-0.012375,0.1211375,0.943525
-0.53505003,0.13605,9.607051,0.041525,0.0196625,1.0503625
-0.147,0.069000006,9.691051,0.231,0.2264625,0.44275
0.28500003,-0.43800002,10.08405,0.1486375,0.048125,0.4338125
0.17295001,-0.109950006,9.67905,-0.02915,-0.17985,0.792825
-0.15705001,0.29895002,9.19305,0.07645,-0.08635,0.51425
0.36195,-0.12195001,9.612,0.1238875,-0.014575,0.559075
0.60105,-0.22905001,9.981001,-0.007425,-0.1302125,0.5361125
0.522,-0.18195,10.11705,-0.014712499,-0.1302125,0.380325
0.43800002,0.14295001,9.46395,0.006875,-0.023375,0.17173749
0.36195,0.11400001,9.792001,0.115775,0.032175,-0.0341
0.65895003,-0.33705002,10.09305,0.0572,0.0097624995,0.09075
0.79995006,-0.16695,9.69795,-0.059675,-0.060225,0.2704625
0.42600003,-0.85695004,10.996051,0.00385,-0.06765,0.1733875
0.58395004,-0.64395005,9.861,-0.1750375,0.0089375,0.4213
0.37605003,-0.21300001,9.574051,-0.1434125,-0.047575,0.3773
0.76395005,-0.20295002,9.682051,-2.75E-4,-0.0482625,0.2006125
0.30900002,-0.16695,10.275001,0.0433125,-0.0556875,0.06765
0.67800003,0.16905001,9.21195,0.1095875,0.0705375,0.1731125
0.51495004,0.17895001,10.053,0.190025,-0.0331375,-0.1502875
0.24000001,0.47805002,9.739051,0.1159125,0.03135,-0.137775
0.402,0.32205,9.813001,0.143825,0.1142625,-0.1271875
0.18195,0.52095,10.081051,0.117699996,0.0847,-0.1463
0.13395001,0.44700003,10.158001,0.11935,0.113575,-0.1032625
0.120000005,0.70995003,9.67395,0.042625,0.049775,-0.197725
0.19695,0.72495,9.556951,0.0633875,0.0325875,0.052525
0.12195001,0.63405,9.63105,0.0891,0.0127875,0.0655875
0.075,0.591,9.871051,0.0191125,0.021724999,0.2369125
0.15105,0.67200005,9.636001,-0.0385,0.0111375,0.1566125
0.36900002,0.43005002,10.002001,-0.006325,-0.0048125,-0.0364375
0.076950006,0.44700003,9.696,-0.053075,-0.0048125,0.1810875
0.24900001,0.27705002,9.847051,-0.0743875,0.021175,0.099275
0.108,0.37995002,9.61905,-0.0847,-0.0149875,0.10395
0.04095,0.40395,9.658051,-0.0235125,0.01925,-0.0061875
0.087000005,0.38205,9.519,-0.0341,0.012925,0.073699996
0.051000003,0.37995002,9.79905,0.0224125,0.0336875,-0.0638
0.096,0.37005,9.64095,0.0122375,0.0229625,-0.06435
0.09105001,0.291,9.859051,0.008525,-0.0042625,-0.0658625
0.14595,0.31305,9.768001,-0.014162499,-0.0050875,0.1166
0.14400001,0.21495001,9.98595,6.875E-4,-2.75E-4,-0.053625
-0.025050001,0.35805002,9.804001,6.875E-4,0.0097624995,-0.0680625
0.12495001,0.25995,9.727051,-0.0064625,0.0251625,-0.1332375
0.216,-0.0019500001,9.99495,-6.875E-4,9.625E-4,-0.095699996
-0.126,0.14505,9.981001,-0.0561,-0.027775,0.1302125
0.08895,0.21495001,9.837001,-0.02915,0.01595,0.12705
0.16095,0.22695,9.583051,-0.023924999,-0.0490875,-0.0061875
0.25905,0.27495003,9.121051,-0.027224999,-0.0103124995,0.0561
-0.015000001,0.31005,9.670051,0.0529375,0.0155375,-0.0760375
0.015000001,0.231,9.79905,0.0298375,0.0534875,-0.131175
0.034050003,0.26505002,9.732,-0.00935,-0.0105875,0.105325
0.04095,0.162,9.892051,0.006325,0.0171875,0.149325
0.036000002,0.13305001,9.670051,-0.0325875,-0.0180125,-0.0207625
-0.010950001,0.25095,9.564,-0.0297,-0.0048125,-0.1315875
-0.01995,0.141,9.637951,0.013612499,0.0210375,-0.1604625
0.076950006,0.009000001,10.036051,0.0061875,0.03135,-0.1797125
0.094050005,-0.025950002,9.96405,-0.051975,-0.014025,-0.0111375
0.027,-0.045,10.111951,-0.0243375,-0.019524999,-0.015262499
-0.010950001,0.15705001,9.49695,-0.0158125,0.003025,-0.066
0.14400001,0.52605003,8.688001,0.0369875,-0.014162499,-0.15235
0.18195,0.07095,9.82995,0.078925,0.0121,-0.307725
0.22500001,1.0000501,8.48505,-0.0105875,-0.0413875,-0.2756875
0.642,0.126,10.299001,0.203775,-0.0933625,-0.6917625
0.28305,0.59805006,9.66705,-0.026124999,-0.1678875,-0.0462
0.41700003,1.15995,9.16005,0.11385,-0.003575,-0.4789125
0.55095005,0.141,11.392951,0.1480875,-0.099275,-0.4712125
1.269,0.23400001,10.78005,-0.183975,-0.100925,0.0776875
0.30900002,-0.43095002,9.727051,-0.38225,0.1199,0.39545
-0.17595,-1.065,9.66195,-0.350625,0.297825,0.4866125
0.40005,0.31305,7.76205,-0.1480875,0.0716375,0.47134998
0.177,-0.15,9.150001,0.29755,-0.022824999,-0.442475
0.57195,0.61395,10.06005,0.0462,-0.0218625,0.054725
1.7809501,-2.0029502,12.360001,0.1406625,-0.12375,-0.0213125
0.402,-1.623,11.41905,-0.20047499,-0.3213375,0.5861625
0.012,0.49005002,5.775,-0.2921875,-0.1662375,0.59125
0.097950004,0.19095,10.500001,0.43559998,0.20693749,-0.9471
0.57195,-1.35195,13.17405,0.251625,0.234025,-0.66934997
2.29605,-3.729,14.83005,-0.092675,0.1486375,0.0796125
-1.0639501,-1.3230001,10.5379505,-0.507925,0.0254375,1.0868
0.91200006,0.061950002,5.6580005,-0.179575,0.355575,-0.0336875
0.65895003,-0.15300001,8.99505,0.3427875,-0.1032625,-0.730675
0.83100003,-0.67905,11.910001,0.249975,-0.2341625,-0.3639625
2.39595,-0.79395,13.33695,0.08085,-0.2704625,0.2239875
-0.37395,-1.4500501,11.368951,0.01925,-0.259325,0.2943875
-0.23595001,0.08295,6.2850003,-0.232925,0.2391125,0.4310625
0.18,-0.54300004,8.82495,0.1018875,0.2894375,-0.6502375
0.58695,-0.55695003,10.46205,0.0814,0.0468875,-0.4676375
-1.5660001,-0.41595003,11.709001,-0.0119624995,-0.1588125,0.124025
-1.11405,-2.7280502,13.210051,-0.2930125,0.086625,0.6793875
0.31395,0.423,4.617,-0.4367,0.3023625,0.9953625
1.056,-0.41595003,8.001,0.385825,-0.1802625,-0.501875
0.49605003,-0.63195,10.6390505,0.2190375,-0.4926625,-0.0889625
-0.42195,-1.338,14.517001,-0.0064625,-0.2017125,0.2300375
-0.33600003,-1.266,11.59605,0.0273625,0.23265,0.027224999
-0.15705001,-0.18195,7.2660003,-0.2275625,0.091575,0.5897375
0.24900001,0.19800001,7.2739506,0.0768625,-0.042075,-0.2585
0.37605003,-0.90900004,11.805,0.256025,0.0572,-0.472725
-1.353,1.35195,9.141001,-0.115637496,-0.1753125,0.3047
-1.9900501,-0.49995002,11.236951,-0.1150875,0.1560625,-0.10175
1.41495,-0.59805006,6.9220505,-0.0809875,0.471625,-0.077825
0.49095002,0.83205,6.56295,2.75E-4,-0.4651625,0.1062875
0.78105,-2.0029502,13.747951,0.16445,-0.3370125,-0.18493749
-0.786,-0.924,13.614,-0.264,-0.053075,0.2718375
1.28295,-0.33495003,7.0579505,-0.138875,0.0891,-0.152075
0.59400004,-1.0309501,8.20005,-0.1023,-0.3785375,0.2718375
0.33105,0.46395,5.7769504,-0.047849998,-0.1189375,0.0268125
1.0870501,-1.338,12.328951,0.390225,0.0782375,-0.7937875
-0.21405001,0.054,13.521001,-0.0347875,0.1346125,-0.1772375
0.79695004,-1.8400501,10.49295,0.1071125,0.5539875,-0.5333625
0.675,-1.9650002,10.086,-0.3892625,-0.0561,1.0346875
0.048,0.768,5.29605,-0.3196875,-0.1395625,0.7899375
0.72300005,-1.04295,11.95995,0.5421625,0.0969375,-0.818125
0.45795003,-0.049950004,13.006051,0.050325,-0.15895,0.0339625
1.04205,-1.11,10.732051,0.0347875,0.06765,-0.146575
0.522,-0.76605004,9.901951,-0.143825,-0.177925,0.391875
0.22995001,0.109050006,6.7039504,-0.0064625,-0.111375,0.2682625
0.01695,-0.19095,9.291,0.1678875,0.066825,-0.45815
-0.07005,-0.78000003,12.489,0.14533749,0.269775,-0.4387625
-0.48195,-1.5679501,12.40095,0.081675,0.2080375,0.1522125
-0.453,-1.608,9.406051,-0.464475,-0.047025,1.148675
0.036000002,-0.354,7.6849504,-0.4752,-0.1057375,0.9909625
0.20895001,-0.29205,10.32495,0.3185875,0.0548625,-0.7162375
0.12705001,0.069000006,11.56095,0.22055,-0.11275,-0.345675
0.89595,-0.53805,11.994,0.19139999,-0.1793,-0.23045
-0.15405001,-0.93795,9.8539505,-0.15565,-0.220825,0.2498375
-0.21405001,0.22395001,7.2619505,-0.319,0.0257125,0.6639875
0.14595,0.141,8.679001,0.12265,0.07425,-0.3157
0.13905,-0.26805001,10.27995,0.220275,0.0397375,-0.5993625
-0.45795003,-1.0510501,10.996051,0.0422125,0.020075,-0.193875
-1.0330501,-0.77295005,8.67405,-0.5179625,-0.188375,0.9048875
-0.039,-1.077,8.71695,-0.2644125,0.398475,0.291225
-0.066,1.11705,5.8759503,-0.0859375,0.011,0.34485
0.28005,-0.16695,10.596001,0.604725,-0.01265,-0.8738125
1.3219501,0.35595003,12.826951,0.186725,-0.0554125,-0.2690875
0.23505001,-1.13205,11.90505,0.036575,-0.188375,0.192225
0.59205,-1.48395,10.531051,-0.25547498,-0.05115,0.3322
0.15105,0.52395004,6.7519503,-0.328075,-0.126225,0.443025
0.38295,0.24105,8.98305,0.284075,0.088,-0.638
0.26805001,0.006,10.49505,0.25025,0.0034375,-0.5611375
-0.97800004,-0.66300005,11.14605,0.0831875,0.0237875,0.1005125
0.075,-1.28505,10.876051,-0.27981248,0.045649998,0.6238375
0.25605002,-0.56700003,8.67405,-0.339625,0.0859375,0.6479
-0.13005,0.62895006,7.6489506,0.0394625,0.06875,-0.345125
0.38805002,-0.29205,10.71105,0.380875,0.105875,-0.7854
0.711,1.167,11.58405,0.0710875,-0.116875,0.095699996
0.47400004,0.28905,8.941951,0.0807125,-0.061875,-0.1662375
0.18495001,-1.386,10.29705,-0.0793375,-0.217525,0.18053749
0.40500003,0.040050004,7.4029503,-0.3333,0.0605,0.6290625
0.064950004,0.069000006,9.054001,0.1956625,0.073425,-0.3003
0.15795001,-0.045,11.158051,0.0928125,0.0416625,-0.061325
-0.44595003,-1.4260501,12.09195,0.039049998,-0.0149875,0.0743875
0.0049500004,-2.59395,11.998951,-0.44494998,0.009625,0.930325
0.00795,0.804,6.0360003,-0.3163875,0.2347125,0.4235
-0.384,0.11895001,8.938951,0.568425,0.2564375,-1.130525
-0.28605002,0.07095,9.918,0.28187498,0.1255375,-0.388575
-0.20700002,-1.2250501,12.937051,0.1348875,-0.0771375,-0.1728375
0.72300005,0.078,8.06295,-0.3900875,-0.3623125,0.77935
0.055050004,-0.73695004,9.208051,-0.0955625,-0.3031875,0.2046
-0.066,0.24795002,8.158951,0.0149875,0.106425,-0.409475
0.24705002,-0.10005,9.97605,0.1898875,0.137225,-0.686125
-0.21195,0.63405,11.87205,0.050875,0.0314875,-0.185075
0.91005003,-2.6230502,12.540001,-4.125E-4,0.194425,0.0968
-0.40605003,-1.0699501,10.467001,-0.622875,-0.090475,1.19405
-0.19995001,1.182,5.7180004,1.375E-4,0.0572,0.0086624995
0.32295,-1.2420001,10.902,0.6571125,0.1892,-1.0065
-0.78405005,0.34395,11.512951,-0.179575,-0.076725,0.421575
1.0680001,-1.9960501,13.861051,0.2523125,-0.0078375,-0.5251125
0.097950004,-0.69405,8.083051,-0.22893749,-0.2336125,0.41525
0.42195,-0.75600004,8.767051,-0.2594625,-0.06215,0.3925625
0.096,0.483,7.7910004,0.1159125,0.0017875,-0.4648875
0.44595003,-0.30105,11.11095,0.4343625,0.0391875,-0.847
0.08400001,1.0500001,11.503051,0.0831875,-0.0572,-0.0422125
0.177,-1.04805,10.41195,0.179575,0.3034625,-0.5163125
-1.08105,-1.48905,9.423,-0.57928747,-0.0999625,1.1649
-0.54405004,1.15995,6.0720005,-0.2459875,-0.0363,0.6972625
-1.15995,0.30105,9.258,0.6263125,0.16499999,-1.1523875
-0.14505,-0.42105,11.034,0.1186625,0.18727499,-0.4065875
0.14595,-2.022,14.194051,0.042075,-0.10725,-0.0196625
0.321,-2.2090502,11.07495,-0.24419999,-0.063525,0.5465625
-0.09,0.39195,6.3090005,-0.44275,-0.1095875,0.7535
0.312,-0.294,10.597951,0.341275,0.0862125,-0.8124875
-0.27195,-0.33,11.541,0.1568875,-0.1496,-0.251075
-0.09195001,-2.1349502,13.581,0.033275,0.169125,-0.131175
-0.453,-1.5169501,9.682051,-0.4404125,0.093225,0.77288747
-1.2940501,-0.38700002,7.6830006,-0.3179,0.12979999,0.662475
-0.50595003,0.282,7.3500004,0.052249998,0.232375,0.06655
0.01695,-0.15300001,9.67395,0.4109875,-0.03575,-0.478225
0.23505001,1.2940501,9.847051,0.208725,-0.3312375,0.0182875
0.69195,-0.77805007,11.014951,0.2630375,-0.25959998,-0.215875
0.39495003,-1.0860001,10.323001,0.0143,-0.19373749,0.1181125
0.052950002,0.282,7.8310504,-0.1533125,-0.036849998,0.3047
0.63000005,0.90405005,7.9990506,0.295625,0.0411125,-0.7792125
0.29700002,1.1359501,8.82195,0.3927,-0.1720125,-0.8782125
0.93600005,0.97395,13.552051,0.1753125,-0.0253,-0.31405
0.094050005,-2.12505,14.727,0.026675,0.2138125,0.083325
-0.40995002,0.042000003,7.9870505,-0.795025,0.124437496,1.5378
0.20895001,0.60705,7.2180004,-0.0578875,0.110825,-0.1276
-0.20895001,0.44505003,8.65005,0.4698375,0.01705,-0.7788
1.05795,0.91605,12.967951,0.1568875,0.026675,-0.206525
0.47700003,0.31995,9.732,0.0496375,-0.0968,0.1879625
0.01695,-0.804,10.986,-0.1771,-0.18315,0.4288625
-0.14505,1.1389501,7.49595,-0.251075,0.0573375,0.2569875
0.076950006,0.66495,9.282001,0.3344,0.0919875,-0.8996625
-0.657,0.52395004,10.46895,0.0727375,-0.051975,-0.3212
1.269,-2.4390001,14.0119505,0.026124999,0.15785,0.00385
-1.3990501,-1.098,11.521951,-0.6029375,-0.0897875,1.3839375
0.39495003,0.933,6.189,-0.2671625,0.3727625,0.4346375
-0.054,0.39195,9.35595,0.4481125,-0.128975,-0.6364875
-0.102000006,1.24905,9.19305,0.246675,-0.0749375,-0.3840375
0.53205,0.91395,9.435,0.3389375,-0.0570625,-0.5897375
0.024,0.030000001,9.117001,-0.09185,-0.014025,0.334125
-0.43395,-0.045,7.518,-0.55825,-0.033,0.949025
-0.26700002,0.064050004,8.88195,-0.076175,0.0792,-0.19635
-0.34305,0.43005002,9.8869505,0.1689875,0.1335125,-0.7715125
0.043050002,0.813,12.669001,0.2066625,0.1115125,-0.4019125
0.9670501,-1.2400501,9.792001,0.053075,0.0774125,-0.0053625
-1.47105,-1.2780001,11.302051,-0.3810125,-0.2715625,0.856075
-0.41805002,1.00695,7.0200005,-0.25547498,0.25135,0.38747498
-0.28095,0.282,10.239,0.5803875,0.207075,-0.9607125
-0.291,0.021000002,11.27595,0.2723875,0.021175,-0.5863
0.38595003,-2.0059502,13.830001,0.01925,-0.0444125,0.070125
0.53400004,-0.17205001,8.281051,-0.3179,-0.1216875,0.7547375
0.14895001,-0.093,8.52105,-0.1997875,-0.1331,0.7214625
-0.252,0.75105006,8.406,0.054175,-0.09075,-0.2453
0.11805001,0.0139500005,10.97595,0.319825,0.0017875,-0.7392
-0.47700003,1.9480501,9.50895,-0.0081124995,-0.1065625,-0.134475
-0.33105,-0.36600003,8.98995,-0.2146375,0.151525,0.6098125
-0.55905,-0.624,10.074,-0.31075,0.108625,0.7181625
-0.73395,1.3420501,7.04895,0.0144375,0.058849998,0.0094875
-0.28395,0.141,10.26105,0.6543625,0.159775,-1.2837
-0.231,1.3420501,11.11095,-0.033825,-0.09955,0.028324999
0.56505,-1.8049501,13.629001,0.2292125,-0.14973749,-0.2079
0.41700003,-1.1029501,9.97395,-0.47134998,-0.19745,0.8776625
0.37095,0.48795003,6.3520503,-0.297275,-0.12155,0.4477
0.02205,0.588,8.89395,0.2459875,-0.0246125,-0.6677
-0.06795,0.45900002,10.359,0.18865,0.0466125,-0.2849
-0.69795,-1.6110001,12.925051,0.132,0.14533749,-0.1654125
-0.38895002,-1.21605,9.741,-0.4954125,0.024475,0.94215
-0.25695002,0.18405001,7.7239504,-0.4637875,0.15125,0.7077125
-0.60705,1.194,8.095051,0.3355,0.173525,-0.417175
-0.01305,0.081,10.632001,0.6656375,0.107525,-1.1154
-0.39405003,-0.63600004,11.971951,0.1351625,-0.085525,-0.0735625
0.68505,1.1869501,5.8950005,-0.496925,-0.0451,1.0338625
-0.40095,-1.3450501,12.310051,-0.06325,-0.489225,0.43147498
-0.48195,1.4140501,5.98605,-0.220275,-0.0521125,0.264
-0.16905001,0.31995,9.495001,0.54395,0.2008875,-1.2947
0.19905001,0.44505003,12.111001,0.1348875,0.0202125,-0.4675
0.53205,-2.6260502,13.758,-0.014575,0.020624999,0.048675
-2.028,-0.141,8.178,-0.7313625,0.032175,1.336775
-0.30705002,0.55695003,7.1470504,0.045375,0.4756125,0.038775
0.07005,0.124050006,9.241051,0.4615875,-0.0955625,-0.8034125
-0.48705003,0.86100006,10.347,0.142725,-0.258225,-0.13585
-0.11805001,-1.58895,12.814951,0.339625,-0.1197625,-0.4092
1.3219501,0.14505,7.209,-0.4984375,-0.35365,1.2310375
-0.003,0.069000006,8.157001,-0.2068,-0.3064875,0.512325
0.14595,0.18105,9.121051,0.2030875,0.1992375,-0.728475
0.15105,0.33195,9.50205,0.2327875,0.1810875,-0.7330125
-0.72195005,-1.12905,11.757001,0.070675,0.0253,-0.41387498
-0.46995002,-1.0510501,9.342,-0.656975,-0.0677875,1.213575
0.22305001,-0.79005,8.54205,-0.429275,0.23375,0.7596875
-0.23595001,0.97605,6.7369504,0.158675,-0.0213125,-0.2288
-0.58995,0.109050006,9.889951,0.6274125,0.048125,-1.26665
0.24900001,1.0170001,11.72805,0.234575,0.0594,-0.395175
0.88395005,-1.3620001,11.830951,0.018424999,-0.22275,0.106837496
0.24900001,-1.1509501,11.07705,-0.2520375,-0.2539625,0.5152125
0.14205001,0.33705002,6.0139503,-0.21505,0.013062499,0.1995125
0.11805001,-0.30105,9.33705,0.1486375,0.0763125,-0.447425
-0.35295,-0.09105001,11.326051,0.038225,0.0380875,-0.381425
-1.2049501,-1.881,13.087951,-0.039325,0.1522125,-0.1584
-1.19295,-1.0720501,9.162001,-0.59455,-0.0055,1.0208
0.46500003,-0.54495,6.84705,-0.176825,0.41593748,0.4101625
-0.528,0.51600003,7.2400503,0.2132625,-0.0661375,-0.2101
0.55995005,-0.43500003,9.8560505,0.473825,0.0636625,-0.9255125
1.5439501,0.44895002,12.882001,0.0710875,-0.4032875,-0.0642125
1.2040501,-1.2870001,10.488001,0.0231,-0.43285,0.092125
0.36195,-2.22105,10.99995,-0.28765,-0.2426875,0.516175
0.30405003,0.504,6.18195,-0.3614875,0.166925,0.5080625
0.058050003,0.18795002,9.516001,0.3526875,0.2619375,-1.2656875
0.20595,-0.27495003,10.893001,0.2077625,0.148225,-0.52965
0.68295,-2.9149501,13.794001,0.0055,-0.0108624995,0.125125
-1.5589501,-1.8739501,10.4740505,-0.611875,-0.2198625,1.39205
0.78795004,-1.845,9.1380005,-0.41181248,0.40865,1.0351
-0.58500004,0.88995004,6.8160005,0.11825,0.0812625,-0.204325
0.12195001,-0.024,10.251,0.729575,0.18493749,-1.153075
0.13905,-0.39900002,13.308001,0.2825625,-0.2451625,-0.2673
0.59205,-1.6150501,10.186951,-0.4706625,-0.153175,0.8518125
-0.29505002,-1.386,9.7560005,-0.2655125,-0.278575,0.296725
-0.58695,0.21705002,5.7390003,-0.12815,0.1827375,0.0367125
-0.216,-0.14595,8.93505,0.3592875,0.3526875,-0.8888
-0.171,-0.75405,10.309051,0.2332,0.126775,-0.7068875
-1.1380501,0.30600002,9.16395,0.1230625,0.0677875,-0.37454998
-0.528,-1.21305,9.543,-0.0884125,0.031625,0.11605
-0.23295002,-1.0669501,8.169001,-0.3922875,0.013475,0.714175
-0.87495005,0.49995002,7.7449503,4.125E-4,-0.0526625,0.124575
-0.13305001,-0.99105006,11.08905,0.38747498,0.1123375,-0.669075
0.12495001,-0.21000001,11.853001,0.011,-0.1618375,0.111925
1.149,-1.692,12.805051,0.209825,-0.1527625,-0.2586375
0.23700002,-2.19195,12.18795,-0.0462,-0.1568875,-0.016224999
-0.38895002,0.47100002,5.9209504,-0.4725875,-0.1381875,0.811525
0.49800003,-0.63900006,8.941951,0.272525,0.29273748,-0.837925
-0.30495003,0.33900002,9.43995,0.17173749,0.02915,-0.314875
-0.54405004,-1.5870001,13.144951,0.3212,0.0389125,-0.4552625
-1.1740501,-0.32805002,9.849001,-0.4499,-0.2140875,1.017225
1.044,-1.1920501,9.17205,-0.1120625,0.26895,0.295625
-0.109050006,0.74595004,6.9739504,-0.0628375,-0.1929125,0.3958625
0.28305,-1.1770501,11.20905,0.41387498,0.1507,-0.41387498
1.0489501,0.83205,10.455001,-0.017875,0.0020625,0.4712125
-0.65205,0.21495001,8.47305,0.187,-0.0969375,-0.2270125
-0.55200005,-0.84000003,11.11995,-0.138325,0.046475,0.2805
-0.09,0.95895004,7.93905,-0.1656875,0.0226875,0.2996125
-1.09695,1.45905,8.974951,0.52965,0.0815375,-0.8657
-1.6669501,3.489,9.588,0.527175,0.100099996,-0.74181247
-1.248,-2.058,13.408051,0.5357,0.77701247,-0.82362497
-2.66295,-0.98295003,9.816001,-0.3749625,0.27995,1.4205124
0.25395,-0.28905,7.9030504,-0.363,0.5578375,0.506275
-1.03005,0.84195006,8.578051,0.392975,-0.050325,-0.6155875
-1.2859501,1.098,10.11705,0.39435,-0.0273625,-0.506
1.4440501,0.84195006,9.16005,0.4530625,-0.091437496,-0.392975
1.45305,0.48795003,6.6270003,-0.16775,-0.489775,0.6391
-0.28395,-1.5840001,11.73795,-0.242825,-0.511775,0.412225
-0.11595,0.66705,7.34805,-0.31515,-0.0235125,0.0312125
-0.19995001,0.21000001,9.28905,0.269775,0.0859375,-0.9238625
-1.55505,0.26295,9.80805,-0.0416625,-0.0125124995,-0.1648625
0.15795001,-1.5960001,10.000051,-0.3705625,-0.057475,0.5231875
0.65595,0.08505,7.24695,-0.344025,0.1786125,0.897325
-0.27405003,0.91800004,7.977,0.2267375,-0.0952875,-0.259325
0.01905,0.009000001,10.431001,0.5867125,0.0468875,-0.9788625
0.12705001,1.4470501,11.776051,0.1725625,0.0246125,-0.427625
-0.39105,0.246,9.604951,-0.0793375,-0.161425,0.2520375
-0.48195,-0.91905004,10.407001,-0.156475,0.0352,0.2891625
0.33105,0.74895006,6.2779503,-0.34485,0.0581625,0.40507498
-0.25695002,0.46800002,9.232051,0.2259125,-0.0895125,-0.4310625
0.12495001,0.56895,12.066001,0.0270875,0.009075,0.069025
0.97695005,-3.6360002,15.948001,0.1104125,0.0633875,-0.15675
-1.4470501,-1.3740001,11.14395,-0.637725,0.0413875,0.970475
0.10605001,0.64095,6.3810005,-0.25465,0.2985125,0.289575
-0.46095002,0.53805,8.599951,0.3928375,-0.115637496,-0.5819
-0.027,0.14805001,9.978001,0.29947498,0.05115,-0.64033747
-0.69000006,-0.91200006,12.4459505,0.2325125,-0.1948375,-0.207075
1.14495,-0.85395,10.479,-0.3579125,-0.094325,0.7354875
0.48600003,-0.58095,9.102,-0.2338875,-0.2985125,0.494175
0.08895,0.59805006,8.04705,-0.0336875,-0.084425,0.19167499
-0.094050005,0.65805006,10.431001,0.3447125,0.088275,-0.47547498
-0.384,0.813,9.45195,0.2105125,0.0694375,-0.207075
-0.03195,-1.5150001,11.350051,-0.1615625,0.203225,0.6007375
-0.64305,-0.18405001,8.58495,-0.6116,0.127325,1.165725
-0.38205,1.0380001,6.38805,0.150425,0.059125,-0.3174875
-0.50895,0.53805,9.693001,0.621775,0.0939125,-1.10935
-0.29505002,0.87105006,11.75205,0.275275,0.0281875,-0.44165
0.333,-0.98100007,13.083,0.21395,-0.132275,-0.4164875
0.031050002,-0.83505005,10.339951,-0.216425,-0.1709125,0.6147625
0.34695002,0.65505004,6.6780005,-0.3587375,-0.044275,0.7745375
-0.24795002,0.55005,9.222,0.1837,-0.0757625,-0.4461875
