@ HyperIMU - ianovir
@ Date:Mon Aug 21 08:10:01 GMT+03:00 2023, Sampling Rate:25ms

timestamp,bma4xy_accelerometer.x,bma4xy_accelerometer.y,bma4xy_accelerometer.z,oem_pseudo_gyro.x,oem_pseudo_gyro.y,oem_pseudo_gyro.z
1692594601931,-0.07005,-0.37995002,10.041,-0.2066625,0.1615625,-0.3221625
1692594601967,-0.09900001,-0.31995,9.94995,-0.559075,0.301675,1.0258875
1692594602000,-0.11400001,-0.32505003,9.885,-0.8382,0.465025,2.591325
1692594602032,-0.058050003,-0.31605002,9.7890005,-1.2104125,0.920425,7.3552876
1692594602058,-0.087000005,-0.34905002,9.703051,-1.2887875,1.1044,9.985525
1692594602081,-0.147,-0.32295,9.80595,-1.292775,1.1521125,11.717338
1692594602110,-0.079950005,-0.39900002,9.753,-1.1254375,0.88989997,11.421575
1692594602133,-0.12105001,-0.36105,9.741,-1.0044374,0.7041375,10.171425
1692594602167,-0.13305001,-0.37800002,9.816001,-0.77275,0.3889875,7.229475
1692594602196,-0.15405001,-0.31800002,9.918,-0.6771875,0.27335,6.1727877
1692594602221,-0.063,-0.342,9.82995,-0.59345,0.184525,4.9691124
1692594602254,-0.06105,-0.29205,9.772051,-0.4437125,0.0721875,3.2014124
1692594602282,-0.12795001,-0.29700002,9.82005,-0.3782625,0.0385,2.5449874
1692594602308,-0.12795001,-0.294,9.772051,-0.322575,0.01375,2.03005
1692594602337,-0.10605001,-0.30600002,9.696,-0.236225,-0.014575,1.34365
1692594602366,-0.11100001,-0.28695002,9.7890005,-0.2022625,-0.02035,1.136575
1692594602393,-0.109050006,-0.24105,9.873,-0.1736625,-0.0235125,1.001275
1692594602424,-0.066,-0.38295,9.87495,-0.1288375,-0.0246125,0.7973625
1692594602455,-0.13305001,-0.31605002,9.84195,-0.092125,-0.0202125,0.5335
1692594602485,-0.13995,-0.20295002,9.691051,-0.07535,-0.018975,0.3375625
1692594602516,-0.09900001,-0.22500001,9.825001,-0.0704,-0.0176,0.3059375
1692594602539,-0.09195001,-0.26295,9.78195,-0.0603625,-0.014162499,0.2996125
1692594602571,-0.11595,-0.31305,9.79905,-0.045649998,-0.0097624995,0.2858625
1692594602606,-0.13305001,-0.23205002,9.945001,-0.01815,-0.0022,0.122099996
1692594602630,-0.094050005,-0.201,9.784051,-0.018424999,0.0012375,0.0474375
1692594602655,-0.058050003,-0.26805001,9.74895,-0.0163625,0.005225,-0.0259875
1692594602684,-0.10605001,-0.26505002,9.753,-0.0105875,0.0070125,-0.073975
1692594602716,-0.15405001,-0.20595,9.83205,-0.003575,0.00165,-0.0391875
1692594602746,-0.12105001,-0.24105,9.76095,-6.875E-4,-0.0039875,0.004675
1692594602775,-0.05595,-0.32295,9.87495,0.002475,-0.0026125,0.0158125
1692594602803,-0.09705,-0.26505002,9.77505,0.0067375,-0.00165,0.0386375
1692594602837,-0.20700002,-0.24900001,9.672001,0.003025,-0.00165,-0.0218625
1692594602863,-0.15195,-0.23700002,9.684,-6.875E-4,-0.0,-0.1062875
1692594602894,-0.16605,-0.246,9.613951,-5.5E-4,0.011825,-0.2030875
1692594602925,-0.22395001,-0.22005,9.8539505,0.0011,0.0174625,-0.1797125
1692594602954,-0.26895002,-0.23205002,9.75105,-8.25E-4,0.0198,-0.048675
1692594602985,-0.33405003,-0.29700002,9.8230505,-0.0017875,0.023375,-0.0182875
1692594603025,-0.40305,-0.28005,9.47805,0.001375,0.042625,-0.0501875
1692594603056,-0.57795,-0.13095,9.58605,-0.0023375,0.070125,-0.069025
1692594603084,-0.726,-0.12195001,9.691051,-0.00495,0.0889625,-0.073699996
1692594603117,-0.96300006,-0.061950002,9.637951,0.0092124995,0.132825,-0.12815
1692594603147,-1.215,0.0019500001,9.049951,0.0427625,0.190575,-0.15235
1692594603174,-1.4989501,0.069000006,9.28905,0.05775,0.2286625,-0.1379125
1692594603203,-1.8060001,0.018000001,9.306001,0.0727375,0.2721125,-0.1522125
1692594603235,-1.3969501,-0.24405001,9.153001,0.1013375,0.379775,-0.2432375
1692594603268,-1.5330001,-0.24900001,8.78205,0.0803,0.452375,-0.13475
1692594603299,-1.5160501,-0.37095,8.841001,0.04235,0.44825,-0.0213125
1692594603330,-1.45905,-0.50505,8.88195,-0.03575,0.3999875,0.1401125
1692594603363,-1.5780001,-0.36105,8.83395,-0.0683375,0.3713875,0.1835625
1692594603397,-1.6170001,-0.21495001,7.9270506,-0.1197625,0.3133625,0.2132625
1692594603426,-1.6360501,-0.41400003,7.0800004,-0.1065625,0.278025,0.114675
1692594603458,-2.5840502,-0.342,7.24695,-0.082775,0.276375,0.043175
1692594603490,-2.538,-0.68205005,8.06595,-0.0587125,0.3388,-0.0803
1692594603514,-2.12205,-0.711,7.458,-0.0628375,0.42267498,-0.13145
1692594603548,-1.6099501,-0.82605004,6.63705,-0.0867625,0.570625,-0.25135
1692594603576,-0.68805003,-1.371,7.9150505,-0.09735,0.563475,-0.33275
1692594603610,-0.72405005,-1.371,9.715051,-0.2041875,0.33605,-0.1879625
1692594603640,-0.051000003,-1.18005,9.19995,-0.34141248,0.114675,0.1280125
1692594603666,-0.52995,-0.60105,9.366,-0.5124625,-0.36905,0.51205
1692594603702,-0.31005,-0.62700003,11.55105,-0.462825,-0.53061247,0.4081
1692594603730,0.666,-1.074,11.04405,-0.2198625,-0.6543625,0.0097624995
1692594603762,-1.3800001,-0.273,10.644,-0.1007875,-0.681725,-0.1364
1692594603793,-2.02605,0.16005,10.713,0.038775,-0.6892875,-0.309925
1692594603829,-0.28605002,-1.3780501,11.866951,0.2179375,-0.3169375,-0.63827497
1692594603862,0.30195,-1.218,9.378,0.2971375,-0.0972125,-0.7830625
1692594603891,0.216,-0.53595,9.550051,0.1744875,-0.08855,-0.5196125
1692594603921,1.149,-0.69405,9.579,0.044275,-0.229075,-0.2327875
1692594603944,1.3579501,-1.4770501,11.565001,-0.0361625,-0.3565375,-0.024475
1692594603974,1.23105,-0.97905004,10.5070505,-0.0422125,-0.5361125,0.14739999
1692594604006,1.34595,-1.55805,10.321051,-0.0372625,-0.627275,0.2347125
1692594604035,0.81705004,-0.76605004,10.555051,-0.099275,-0.75295,0.4596625
1692594604071,1.4080501,-1.00695,10.42395,-0.155925,-0.720775,0.4846875
1692594604094,0.771,-1.1029501,10.840051,-0.1535875,-0.653125,0.386925
1692594604130,0.54405004,-1.07895,9.97605,-0.123475,-0.480975,0.166925
1692594604163,0.771,-1.2709501,10.222051,-0.10615,-0.3862375,0.1247125
1692594604193,0.75000006,-1.0510501,10.177051,-0.086075,-0.2189,0.1683
1692594604220,0.606,-0.91905004,10.15095,-0.08635,-0.1683,0.19855
1692594604249,-0.051000003,-0.58605003,10.321051,-0.059675,-0.1144,0.2369125
1692594604271,-0.71895003,0.22005,11.005051,-0.0196625,-0.087037496,0.250525
1692594604295,-0.027,-0.069000006,10.785001,0.034925,-0.0374,0.247225
1692594604322,0.642,0.076050006,9.75105,0.1056,0.0485375,0.193325
1692594604350,0.642,0.076050006,9.75105,0.1056,0.0485375,0.193325
1692594604380,-0.171,0.51600003,9.92595,0.267025,0.2017125,-0.0638
1692594604413,-0.171,0.51600003,9.92595,0.267025,0.2017125,-0.0638
1692594604440,-0.171,0.51600003,9.92595,0.267025,0.2017125,-0.0638
1692594604465,-0.171,0.51600003,9.92595,0.267025,0.2017125,-0.0638
1692594604493,0.29505002,-0.20295002,11.509951,0.3840375,0.1170125,-0.0418
1692594604528,0.29505002,-0.20295002,11.509951,0.3840375,0.1170125,-0.0418
1692594604575,1.2930001,-1.09605,10.524,0.025575,-0.17407499,0.38555
1692594604600,1.28805,-1.1010001,10.45695,-0.0702625,-0.258775,0.5768125
1692594604627,0.73005,-0.71505004,9.85095,-0.155375,-0.346775,0.7643625
1692594604662,-0.36495003,0.26700002,9.150001,-0.203225,-0.3713875,0.8954
1692594604691,-0.80805004,0.43305,9.9210005,-0.15853749,-0.2855875,0.815375
1692594604715,-0.76905006,0.13605,10.48305,-0.0741125,-0.1442375,0.6468
1692594604750,-0.52305,0.34605002,9.8230505,0.13213749,0.1992375,0.2127125
1692594604777,-0.89100003,0.60705,10.207951,0.2017125,0.34553748,0.058025
1692594604810,-0.66405004,0.85395,10.033051,0.2915,0.5121875,-0.320375
1692594604838,-0.47505003,1.251,9.118951,0.3315125,0.5209875,-0.5363875
1692594604866,-0.47700003,1.24395,10.08405,0.3757875,0.512325,-0.748
1692594604892,-0.27405003,1.1029501,9.97605,0.45374998,0.3997125,-1.0506375
1692594604924,0.112950005,0.33195,9.705001,0.5016,0.2369125,-1.1892375
1692594604953,-0.078,0.076050006,10.254001,0.4736875,0.160325,-1.1055
1692594604976,-0.50595003,0.081,11.149051,0.3928375,0.085525,-0.90695
1692594605003,0.192,-0.23205002,10.88805,0.13365,-0.0209,-0.4021875
1692594605032,0.95100003,-0.246,9.5140505,0.0114124995,-0.03795,-0.177925
1692594605063,0.69705003,-0.064050004,9.777,-0.0853875,-0.054175,0.0253
1692594605093,-0.075,0.17595,10.519051,-0.199375,-0.1736625,0.31239998
1692594605120,0.039,0.09705,10.597951,-0.2123,-0.23815,0.3680875
1692594605145,0.42405003,-0.10005,10.11495,-0.1991,-0.2514875,0.372625
1692594605172,0.22305001,0.018000001,9.591001,-0.143,-0.1604625,0.256575
1692594605198,-0.06105,-0.109950006,9.79395,-0.1232,-0.1263625,0.164175
1692594605227,0.34305,-0.09105001,9.38895,-0.10835,-0.0969375,0.013475
1692594605255,0.537,-0.21000001,9.418051,-0.10505,-0.0726,-0.029424999
1692594605285,-0.022950001,0.076050006,8.7619505,-0.1054625,-0.055825,-0.0534875
1692594605313,0.15795001,-0.56700003,10.207951,-0.1111,-0.0694375,-0.04015
1692594605340,0.52695,-0.77295005,10.231951,-0.11825,-0.0677875,-0.019524999
1692594605369,0.37095,-0.60300004,9.84195,-0.15015,-0.0207625,0.0851125
1692594605396,0.07005,-0.15495001,9.495001,-0.1766875,-0.0144375,0.1689875
1692594605425,0.50505,-0.49995002,9.79905,-0.194425,-0.022275,0.21133749
1692594605453,0.513,-0.42795002,9.574051,-0.16499999,-0.0290125,0.0666875
1692594605482,0.06705,-0.261,9.612,-0.1417625,-0.0374,-0.009075
1692594605510,0.36705002,-0.51405,10.14795,-0.121825,-0.069025,0.026124999
1692594605538,0.59895,-0.54105,9.913951,-0.1084875,-0.0682,0.0672375
1692594605565,0.66300005,-0.63600004,9.96405,-0.093225,-0.0611875,0.1111
1692594605592,0.50295,-0.17400001,9.61695,-0.0853875,-0.081675,0.240625
1692594605621,0.72300005,-0.46395,10.029,-0.0859375,-0.100925,0.2413125
1692594605648,0.65595,-0.42600003,10.057051,-0.057475,-0.1271875,0.041525
1692594605679,0.60105,0.010950001,9.883051,-0.0400125,-0.13653749,-0.044
1692594605705,0.333,0.24105,9.880051,-0.02365,-0.1354375,-0.083875
1692594605731,0.9979501,-0.19800001,9.97095,2.75E-4,-0.121275,-0.0999625
1692594605762,1.0819501,-0.12705001,9.80805,0.039325,-0.103125,-0.1291125
1692594605787,1.3260001,-0.483,9.378,0.0999625,-0.1027125,-0.1590875
1692594605814,0.24405001,0.0,10.191001,0.0977625,-0.1313125,-0.130075
1692594605842,0.92700005,-0.33705002,10.543051,0.0697125,-0.1621125,-0.06655
1692594605870,0.80700004,0.061950002,10.528951,-0.0097624995,-0.1607375,0.045375
1692594605900,0.86895007,0.19095,10.342051,-0.0125124995,-0.13255,0.0215875
1692594605927,0.69195,0.14805001,9.883051,0.0636625,-0.079475,-0.109175
1692594605955,0.89595,-0.117000006,9.910951,0.106975,-0.058025,-0.1403875
1692594605983,1.53495,-0.75795,12.118051,0.133925,-0.0418,-0.1302125
1692594606016,0.76395005,-0.46605003,10.699051,0.1101375,-0.036849998,-0.0323125
1692594606045,0.312,0.29595003,10.378051,0.0672375,-0.039875,0.022
1692594606070,1.4820001,-0.261,10.737,8.25E-4,9.625E-4,0.0479875
1692594606100,2.2480502,-0.84195006,10.825951,0.0039875,0.0429,-0.014712499
1692594606128,1.8100501,-0.60105,11.71395,0.020075,0.0576125,-0.1126125
1692594606156,-0.36,0.71295005,12.207001,-0.0149875,-0.0804375,-0.2443375
1692594606183,2.29305,0.00405,10.371,-0.0620125,-0.169125,-0.2649625
1692594606210,1.6020001,0.102000006,9.84195,-0.069575,-0.1887875,-0.3576375
1692594606239,1.21605,-0.30795002,10.58205,-0.034375,-0.185075,-0.3839
1692594606270,1.52505,-0.54105,9.04695,0.0053625,-0.2413125,-0.2695
1692594606297,0.62700003,0.13095,7.7310004,-0.0045375,-0.229625,-0.1865875
1692594606323,1.56105,-0.079050004,8.31,-0.0380875,-0.1579875,-0.11165
1692594606355,0.9979501,-0.31800002,8.568001,-0.037125,-0.14355,-0.1233375
1692594606380,0.33105,-0.49500003,8.52105,-0.0275,-0.146025,-0.1211375
1692594606409,1.3069501,-0.15495001,7.77405,-0.036575,-0.1258125,0.0169125
1692594606434,1.4820001,-0.28905,7.9150505,-0.055,-0.0705375,0.1018875
1692594606464,1.386,-0.87105006,8.69295,-0.0638,-0.028324999,0.1612875
1692594606499,0.35205,-1.3740001,9.97095,-0.0638,-0.092125,0.156475
1692594606527,0.915,-2.2759502,10.60095,-0.086625,-0.1442375,0.1632125
1692594606555,0.90000004,-2.3100002,10.833,-0.2248125,9.625E-4,0.2410375
1692594606582,0.30900002,-1.58895,9.354,-0.326425,0.1188,0.3218875
1692594606610,-0.20205002,-1.3740001,8.587951,-0.4323,0.18259999,0.416625
1692594606635,-0.41505003,-1.24395,7.6399503,-0.5314375,0.2195875,0.49555
1692594606665,0.65595,-1.26405,6.9600005,-0.4274875,0.33467498,0.4422
1692594606692,0.53895,-1.1509501,7.5199504,-0.3617625,0.3771625,0.429
1692594606721,0.59400004,-1.386,8.016001,-0.3075875,0.3609375,0.426525
1692594606748,0.42600003,-1.31595,6.1390505,-0.2299,0.1892,0.4246
1692594606778,0.192,-1.4500501,7.293,-0.207075,0.09955,0.429825
1692594606803,-0.90300006,-1.48905,9.399,-0.199925,0.031625,0.4580125
1692594606833,-0.21195,-1.9390501,9.89505,-0.2105125,-0.0081124995,0.5619625
1692594606862,-0.26895002,-1.6800001,9.99705,-0.2028125,0.06215,0.579425
1692594606890,-1.713,-0.88305,9.418051,-0.1860375,0.2619375,0.5784625
1692594606918,-2.7610502,-0.39195,10.026,-0.1623875,0.3268375,0.555225
1692594606944,-2.9670002,-0.35205,9.957001,-0.0895125,0.42955,0.448525
1692594606977,-2.40405,0.08505,11.13,0.199375,0.86913747,-0.06435
1692594607008,-1.8180001,0.21705002,11.008051,0.36135,1.09175,-0.406725
1692594607037,-1.3219501,-0.016050002,10.761001,0.6601375,1.233925,-1.19955
1692594607066,-1.4280001,-0.36795002,11.641951,0.77165,1.128875,-1.529
1692594607094,-1.164,-0.85200006,13.144951,0.78429997,0.7183,-1.5195125
1692594607121,-0.09900001,-1.18005,12.56595,0.6763625,0.503525,-1.1796125
1692594607152,-0.54195005,-0.63900006,10.816051,0.3334375,0.13805,-0.21505
1692594607179,-0.95100003,-0.64605004,10.174951,0.1683,-0.0237875,0.2476375
1692594607212,-0.57600003,-0.75795,9.898951,-0.026675,-0.24035,0.80795
1692594607238,-0.279,-0.82800007,11.12205,-0.064625,-0.2550625,0.90433747
1692594607268,-0.45600003,-0.37800002,10.938001,-0.1205875,-0.2222,1.034825
1692594607298,0.14205001,-0.89505005,10.3279505,-0.1527625,-0.24475,1.1171875
1692594607325,0.30705002,-0.85395,10.464001,-0.176,-0.2849,1.1655875
1692594607355,0.41700003,-0.60795003,9.81105,-0.162525,-0.353375,1.0060875
1692594607384,-0.003,0.0019500001,9.63105,-0.1364,-0.3894,0.8273375
1692594607412,-0.81495005,0.16695,9.543,-0.0565125,-0.4233625,0.3730375
1692594607440,-0.68595004,0.19605,9.733951,0.0209,-0.3799125,0.0716375
1692594607470,0.15405001,-0.90195006,9.889951,0.19965,-0.1727,-0.498025
1692594607501,-0.81195,-0.273,10.31595,0.2435125,-0.07095,-0.648725
1692594607527,0.93405,-1.06005,8.535001,0.23925,-0.0127875,-0.6765
1692594607559,0.41205,-0.82605004,7.8460503,0.14973749,-0.0089375,-0.4857875
1692594607586,0.67800003,-1.2919501,10.191001,0.085525,-0.0600875,-0.31405
1692594607613,-0.85095006,-1.86195,12.09195,-0.115637496,-0.26785,0.2237125
1692594607641,-1.9060501,-0.29700002,10.062,-0.217525,-0.3586,0.496375
1692594607671,-1.83,-0.49005002,8.99205,-0.2624875,-0.2374625,0.64405
1692594607703,-0.89895004,-1.2760501,10.98795,-0.2129875,-0.0033,0.5163125
1692594607732,0.12705001,-1.74495,10.1320505,-0.1142625,0.42075,0.2454375
1692594607761,-0.11400001,-1.3260001,9.351001,-0.125675,0.4444,0.2495625
1692594607790,-0.19005,-1.146,9.267,-0.2655125,0.1617,0.5597625
1692594607819,-0.52500004,-0.84900004,8.84595,-0.3155625,8.25E-4,0.7470375
1692594607848,-0.18105,-0.80595005,9.7890005,-0.268125,-0.14575,0.8545625
1692594607876,-0.20505,-0.70305,11.035951,-0.1923625,-0.14465,0.74593747
1692594607907,0.012,-0.53595,9.21,-0.11165,-0.1219625,0.5841
1692594607936,-0.43395,-0.36405003,9.84405,0.0320375,-0.07535,0.24653749
1692594607964,-0.65505004,-0.49005002,9.580951,0.099825,-0.0512875,0.09955
1692594607994,-1.1329501,-0.531,8.86995,0.1926375,0.0094875,-0.1241625
1692594608029,-0.48195,-1.029,8.80095,0.1975875,0.0999625,-0.284075
1692594608058,-0.71895003,-1.0530001,9.114,0.167475,0.1511125,-0.3444375
1692594608088,-1.0210501,-1.20105,10.062,0.112475,0.1780625,-0.3674
1692594608117,-1.2600001,-1.7020501,9.19305,-0.038225,0.1601875,-0.212025
1692594608147,-1.6140001,-1.00995,8.941951,-0.098037496,0.160325,-0.0801625
1692594608176,-0.91800004,-1.3429501,10.774951,-0.14245,0.2385625,0.0174625
1692594608205,-1.4640001,-1.06005,9.909,-0.137225,0.2971375,-0.0174625
1692594608232,-1.77495,-0.69600004,10.042951,-0.12815,0.293975,-0.0254375
1692594608260,-1.9300501,-0.23205002,10.12695,-0.113025,0.252175,-0.0031625
1692594608290,-1.6309501,-0.648,12.042001,-0.005225,0.26235,-0.12375
1692594608316,-1.5780001,-0.66,11.785951,0.0705375,0.2838,-0.27719998
1692594608348,-1.6500001,-1.10595,11.781,0.18865,0.2553375,-0.489225
1692594608370,-1.7820001,-1.1179501,11.776051,0.18865,0.2553375,-0.489225
1692594608402,-1.2790501,-1.3450501,10.9480505,0.179025,0.1896125,-0.35585
1692594608433,-2.52195,-1.3399501,10.962001,0.0543125,0.1181125,-0.1296625
1692594608461,-1.7149501,-1.81605,11.161051,-0.014575,0.085525,-0.0284625
1692594608489,-0.38895002,-1.9699501,10.728001,-0.0785125,0.0902,0.0864875
1692594608520,-0.62295,-1.2760501,9.81795,-0.220825,0.128425,0.43147498
1692594608548,-1.0020001,-0.85200006,9.09,-0.3333,-0.09955,0.703725
1692594608576,-0.303,-1.005,9.078,-0.31955,-0.2234375,0.676225
1692594608608,-0.72900003,-1.065,8.614051,-0.180675,-0.287375,0.36135
1692594608636,-1.3770001,-1.041,8.53005,-0.10835,-0.269225,0.14025
1692594608671,-1.4440501,-1.25205,9.64095,-0.0578875,-0.23485,-0.0598125
1692594608695,-0.69000006,-1.5409501,9.01395,-0.0198,-0.077825,-0.2517625
1692594608723,-1.0330501,-1.4809501,8.70495,-0.0242,0.013062499,-0.25547498
1692594608754,-1.8780001,-1.2280501,8.938951,-0.0842875,0.0422125,-0.1892
1692594608783,-2.1000001,-0.95205003,8.743051,-0.11605,0.03025,-0.17105
1692594608812,-1.485,-0.62895006,8.6640005,-0.078925,0.190575,-0.330825
1692594608839,-1.26495,-0.44505003,9.588,-0.00385,0.3207875,-0.51301247
1692594608869,-1.11195,-0.22500001,10.43295,0.2033625,0.4213,-0.881375
1692594608896,-0.73800004,-0.024,9.373051,0.3155625,0.3774375,-1.0126874
1692594608927,-0.85605,0.20505,8.547,0.511775,0.2080375,-1.1834625
1692594608951,-0.88695,-0.093,8.83695,0.568975,0.1095875,-1.211375
1692594608984,-1.04205,-0.73005,9.80805,0.592075,0.0231,-1.1985875
1692594609011,-1.179,-0.55695003,8.226001,0.5303375,-0.0628375,-1.0588875
1692594609041,-1.4250001,-1.098,7.83795,0.43945,-0.067375,-0.9106625
1692594609068,-1.77495,-1.2420001,8.37195,0.186175,-0.017875,-0.48633748
1692594609099,-0.549,-0.96000004,6.6390004,0.050049998,0.029424999,-0.2536875
1692594609128,0.20895001,-0.39705002,6.8239503,-0.1824625,0.0242,0.1676125
1692594609157,0.44805002,-0.17895001,7.42395,-0.240625,-0.0757625,0.31239998
1692594609185,-0.05595,-0.54300004,9.535951,-0.2360875,-0.2171125,0.3887125
1692594609216,1.02705,-1.1730001,10.1650505,-0.076725,-0.4778125,0.3834875
1692594609240,1.743,-1.26795,10.6699505,-0.005225,-0.5682875,0.371525
1692594609272,1.9750501,-1.5169501,11.58405,-0.0345125,-0.7332875,0.4588375
1692594609300,1.49205,-1.4599501,12.18795,-0.088275,-0.835175,0.5201625
1692594609330,1.19505,-1.4670001,11.874001,-0.14465,-0.9469625,0.5445
1692594609360,1.6660501,-1.197,11.37405,-0.1502875,-0.8822,0.5215375
1692594609388,0.65895003,-0.873,10.593,-0.13255,-0.64845,0.4862
1692594609416,0.048,-0.90000004,11.070001,-0.1056,-0.5691125,0.4514125
1692594609447,-0.025050001,-1.10595,11.163,-0.029424999,-0.370425,0.3001625
1692594609476,0.15405001,-1.5460501,11.54895,6.875E-4,-0.2112,0.203225
1692594609512,-0.85605,-0.60105,9.234,0.0066,0.0939125,0.0202125
1692594609526,-0.549,-1.26405,10.95705,-0.011275,0.2030875,-0.050049998
1692594609562,-0.81000006,-3.08505,14.161951,-0.0298375,0.3584625,-0.1296625
1692594609593,-0.09900001,-2.8549502,10.57905,-0.0551375,0.4046625,-0.0873125
1692594609621,0.20400001,-2.8549502,9.22395,-0.136675,0.4104375,0.0468875
1692594609648,1.2349501,-3.3649502,9.49995,-0.26675,0.3628625,0.2349875
1692594609679,-1.8679501,-2.98005,13.003951,-0.50875,0.14465,0.5317125
1692594609707,-0.06105,-2.8240502,9.354,-0.60307497,-0.049225,0.622875
1692594609738,0.75705004,-0.9480001,7.3090506,-0.5955125,-0.0653125,0.6208125
1692594609766,0.69900006,-0.402,6.3469505,-0.556875,-0.0460625,0.60115
1692594609794,0.252,-0.49305,6.84705,-0.3312375,-0.06985,0.3916
1692594609823,0.558,-0.076050006,7.4890504,-0.1442375,-0.113299996,0.1771
1692594609853,-1.27695,0.078,8.158951,0.18975,-0.1486375,-0.2080375
1692594609880,-1.473,-0.44700003,9.33195,0.315425,-0.122237496,-0.3400375
1692594609911,0.12705001,-1.539,10.72305,0.5278625,0.135025,-0.5559125
1692594609939,0.73995006,-1.98195,11.316001,0.5545375,0.308,-0.5682875
1692594609969,0.13395001,-1.46895,9.993,0.3375625,0.280225,-0.2490125
1692594609996,0.51000005,-1.44105,9.753,0.1777875,0.1049125,-0.0671
1692594610027,-0.049050003,-1.11,9.255,0.055275,-0.047575,0.0292875
1692594610055,-0.18795002,-0.90000004,8.98005,-0.0317625,-0.1571625,0.0741125
1692594610086,0.35700002,-1.3620001,9.073951,-0.018975,-0.1398375,0.074525
1692594610111,-0.49905002,-1.5679501,8.98005,0.0325875,-0.0435875,0.032725
1692594610142,-0.279,-2.33295,10.182,0.0308,-0.011825,0.053075
1692594610170,-0.18105,-2.42205,11.7300005,-0.01045,-9.625E-4,0.1392875
1692594610201,0.29700002,-2.33295,10.92105,-0.1716,0.013612499,0.3889875
1692594610229,-0.42495003,-1.074,9.729,-0.2418625,0.020624999,0.4505875
1692594610258,-0.61395,-0.76305,9.19995,-0.252725,0.0165,0.3218875
1692594610286,-0.51795,-0.9670501,9.427951,-0.1771,0.0438625,0.1428625
1692594610318,-0.20895001,-1.55595,10.64595,0.0567875,0.170225,-0.2028125
1692594610345,-0.43395,-1.3930501,10.368,0.138875,0.21133749,-0.2641375
1692594610372,-0.102000006,-1.2559501,9.85095,0.147675,0.1854875,-0.2008875
1692594610404,0.41700003,-1.43805,9.459001,0.117837496,0.1475375,-0.1896125
1692594610433,0.61305004,-1.6660501,9.757951,0.0746625,0.0518375,-0.2358125
1692594610461,0.58395004,-1.6320001,9.688951,0.049775,-0.0259875,-0.1904375
1692594610491,0.441,-1.4479501,9.67395,-0.0251625,-0.1969,0.0050875
1692594610520,0.55095005,-1.6510501,9.076051,-0.05775,-0.25135,0.0768625
1692594610548,1.0030501,-1.7730001,9.069,-0.080025,-0.284075,0.124575
1692594610576,1.2040501,-2.04405,9.92805,-0.088,-0.2960375,0.1607375
1692594610607,0.47205,-1.8240001,9.579,-0.129525,-0.3744125,0.323675
1692594610635,1.125,-1.9459502,9.5449505,-0.1450625,-0.4015,0.3861
1692594610663,1.4389501,-2.1660001,10.396951,-0.150975,-0.39985,0.40301248
1692594610694,0.95100003,-1.8910501,9.913951,-0.1557875,-0.3859625,0.32945
1692594610723,1.14195,-1.24695,9.6,-0.159225,-0.3905,0.279125
1692594610757,1.7500501,-0.14805001,9.18795,-0.1318625,-0.35255,0.187825
1692594610785,0.39795002,0.0,10.10295,-0.065725,-0.3117125,0.0991375
1692594610808,0.22095,-0.38295,11.5990505,0.2050125,-0.2475,-0.22935
1692594610838,1.4320501,-0.483,11.908051,0.356125,-0.1736625,-0.4057625
1692594610865,1.24695,0.042000003,10.882951,0.463925,-0.056375,-0.53955
1692594610896,-0.58005005,0.411,9.58605,0.51315,0.0859375,-0.65999997
1692594610925,0.028950002,-1.23,11.685,0.4987125,0.087037496,-0.6906625
1692594610953,0.058050003,-1.3980001,12.183001,0.440825,0.217525,-0.7181625
1692594610983,0.22500001,-0.71805006,10.074,0.3562625,0.31515,-0.636075
1692594611010,1.18305,-1.4980501,10.45905,0.1255375,0.3661625,-0.3102
1692594611041,0.93900007,-1.7569501,11.512951,0.0504625,0.3260125,-0.1744875
1692594611068,0.78495,-1.6320001,11.029051,-0.072875,0.138325,0.0240625
1692594611099,0.44295,-1.5460501,9.715051,-0.1489125,0.034375,0.099825
1692594611126,0.65595,-1.8790501,10.54605,-0.241175,-0.065175,0.13695
1692594611157,1.02195,-1.125,9.942,-0.2558875,-0.062975,0.12485
1692594611184,0.25905,-0.97605,8.22105,-0.262625,-0.0444125,0.1122
1692594611215,-0.03705,-1.67295,9.64305,-0.2528625,-0.0231,0.07095
1692594611243,0.77295005,-2.0080502,10.201051,-0.1695375,0.03355,-0.1461625
1692594611273,0.84495,-0.73695004,7.6759505,-0.1612875,0.12595,-0.2000625
1692594611301,0.42405003,-0.744,7.635,-0.19525,0.119075,-0.1346125
1692594611332,0.0049500004,-1.1370001,8.42205,-0.2014375,0.0570625,-0.0922625
1692594611360,0.726,-1.539,9.49695,-0.092125,-0.058849998,-0.150975
1692594611389,0.076950006,-1.25205,8.86305,-0.026675,-0.038775,-0.17173749
1692594611417,-0.65505004,-0.84000003,8.431951,-0.0422125,-0.02365,-0.1342
1692594611448,-0.34095,-1.1340001,8.86095,-0.0556875,0.00715,-0.1137125
1692594611477,-0.52500004,-1.3930501,8.93505,-0.0243375,0.1791625,-0.17173749
1692594611505,0.04605,-1.7230501,9.054001,-0.0044,0.2759625,-0.20075
1692594611533,-1.30305,-1.419,9.241051,-0.025024999,0.3584625,-0.179025
1692594611563,-2.091,-1.39005,9.250951,-0.0565125,0.3542,-0.120725
1692594611589,-1.88205,-1.1920501,9.1380005,-0.0952875,0.4338125,0.036575
1692594611620,-2.0400002,-0.80895007,8.868,-0.0867625,0.550825,0.0881375
1692594611655,-2.5429502,-0.42600003,9.519,-0.005775,0.7601,0.0749375
1692594611682,-2.3419502,-0.354,9.53295,0.072875,0.819775,-0.021724999
1692594611710,-2.388,-0.261,7.83405,0.2781625,0.9024125,-0.3861
1692594611739,-3.7180502,-0.141,8.097,0.3760625,0.9134125,-0.594
1692594611767,-3.76395,-0.78495,10.07205,0.50765,0.94435,-0.9029625
1692594611795,-3.486,-1.146,10.311001,0.541475,1.0192875,-0.99935
1692594611823,-3.2950501,-1.041,10.053,0.52854997,1.0869375,-1.0099375
1692594611855,-2.76795,-0.711,10.68,0.24887499,0.9618125,-0.441925
1692594611881,-2.124,-0.93600005,10.749001,0.06325,0.8006625,0.0108624995
1692594611912,-2.8639503,-0.81405,10.692,-0.0704,0.6282375,0.395725
1692594611940,-1.9759501,-1.125,11.817,-0.2299,0.2426875,0.98945
1692594611969,-1.9710001,-1.4170501,12.59895,-0.33261248,-0.091025,1.3371875
1692594611998,-2.12205,-1.05795,11.259001,-0.3705625,-0.2173875,1.4191375
1692594612027,-1.5160501,-0.531,11.03205,-0.4244625,-0.4145625,1.4753749
1692594612053,-1.54305,-0.12195001,11.23305,-0.4024625,-0.455125,1.3903999
1692594612082,-1.6170001,0.15195,10.88595,-0.32175,-0.46035,1.2021625
1692594612113,-1.64505,0.14505,9.765,-0.013062499,-0.4217125,0.5861625
1692594612136,-1.32,-0.45000002,9.97605,0.152075,-0.38005,0.2508
1692594612168,-0.64305,-0.51900005,8.80305,0.328075,-0.28187498,-0.17215
1692594612199,-0.78105,0.10005,6.9310503,0.2987875,-0.269225,-0.1782
1692594612224,-1.3579501,0.17595,7.0750504,0.2187625,-0.28985,-0.0919875
1692594612260,-0.18495001,-0.80205005,8.736,0.1230625,-0.31295,0.0364375
1692594612292,-0.96795005,-0.744,9.066,0.0950125,-0.2718375,0.24475
1692594612317,-1.34895,-0.99300003,9.80595,0.0185625,-0.2842125,0.4368375
1692594612348,-1.215,-1.1220001,10.9140005,-0.1683,-0.29947498,0.7029
1692594612372,-1.014,-0.67005,10.938001,-0.23333749,-0.2638625,0.772475
1692594612397,-1.2600001,-0.060000002,10.24905,-0.27555,-0.2217875,0.825
1692594612429,-1.26495,0.33405003,9.670051,-0.2341625,-0.1769625,0.7497875
1692594612455,-1.296,0.35805002,9.48495,-0.126775,-0.1513875,0.5819
1692594612484,-0.77400005,0.058950003,9.637951,0.015675,-0.1104125,0.372075
1692594612511,-0.666,-0.23400001,10.08405,0.2547875,-0.0303875,0.0177375
1692594612538,-0.90105003,-0.38295,10.012051,0.3007125,-0.0301125,-0.0974875
1692594612566,-1.014,-0.34905002,9.727051,0.2877875,-0.0614625,-0.15413749
1692594612599,-0.504,-0.56505,9.526051,0.15125,-0.12595,-0.047849998
1692594612629,-0.93705004,-0.294,8.89605,0.027224999,-0.1181125,0.1299375
1692594612654,-1.1719501,-0.13095,8.99205,-0.0075625,-0.109037496,0.165275
1692594612680,-0.74505,-0.45405003,9.62205,-0.02475,-0.09515,0.161975
1692594612713,-0.264,-0.55995005,9.70995,-0.018424999,-0.0361625,0.096525
1692594612737,-0.11595,-0.46905002,9.538051,-0.0213125,-0.029424999,0.089237496
1692594612766,-0.49695003,-0.38505003,9.79905,-0.0683375,-0.138875,0.150975
1692594612794,-0.31695002,-0.41895002,10.10805,-0.08305,-0.2096875,0.154825
1692594612821,-0.312,-0.36795002,9.954,-0.0807125,-0.2525875,0.1258125
1692594612853,-0.51105005,-0.15300001,9.916051,-0.0534875,-0.257125,0.078925
1692594612881,-1.07595,-0.00405,9.918,-0.033275,-0.24213749,0.0658625
1692594612907,-0.95400006,-0.162,9.813001,0.0347875,-0.1654125,-0.049225
1692594612931,-1.2550501,-0.12195001,9.543,0.072875,-0.0908875,-0.1269125
1692594612962,-1.47105,-0.109950006,9.255,0.0994125,-0.0034375,-0.182325
1692594612987,-1.5469501,-0.201,9.36795,0.11055,0.080575,-0.2077625
1692594613013,-1.81095,-0.24105,9.198001,0.095975,0.21395,-0.1368125
1692594613043,-1.6810501,-0.34695002,9.403951,0.07425,0.267025,-0.036849998
1692594613073,-1.4470501,-0.38700002,9.637951,0.0171875,0.3432,0.104775
1692594613099,-1.5880501,-0.25095,9.246,-0.0044,0.355575,0.0724625
1692594613126,-1.1520001,-0.35595003,9.34395,-0.0143,0.342375,-0.0089375
1692594613154,-0.99705005,-0.26295,9.604951,-0.0034375,0.26125,-0.14973749
1692594613181,-0.93900007,-0.15495001,9.588,0.0031625,0.2057,-0.1535875
1692594613208,-1.7200501,0.27,9.901951,0.00715,0.07865,-0.0771375
1692594613236,-1.8270001,0.56205004,10.15995,0.0218625,0.034925,-0.0567875
1692594613262,-1.9380001,0.84705,10.086,0.0583,0.0320375,-0.0600875
1692594613289,-0.70995003,-0.28500003,13.15005,0.2171125,0.120725,-0.2567125
1692594613317,-0.966,-0.112050004,12.949051,0.30305,0.1384625,-0.4533375
1692594613346,-1.6650001,0.00405,11.64,0.25905,-0.0231,-0.4725875
1692594613373,-0.85605,-0.48105,11.829,0.163625,-0.11715,-0.280225
1692594613400,-0.77400005,-0.44295,11.26605,0.0837375,-0.15619999,-0.0748
1692594613432,-1.42305,-0.105000004,10.255951,-0.0416625,-0.1678875,0.2156
1692594613461,-1.32,-0.62205005,10.213051,-0.0862125,-0.1819125,0.2135375
1692594613491,-0.528,-1.02705,10.290001,-0.102025,-0.17435,0.1189375
1692594613520,-0.72195005,-0.81405,9.50205,-0.115225,-0.08305,-0.0169125
1692594613548,-1.00605,-0.91200006,10.045051,-0.2311375,-0.095837496,0.132
1692594613578,-0.68805003,-0.59595,9.085951,-0.278575,-0.1249875,0.1706375
1692594613608,-0.609,-0.78000003,8.820001,-0.272525,-0.1161875,0.038775
1692594613637,-1.2529501,-0.92805004,9.6,-0.24653749,-0.1078,-0.0451
1692594613667,-1.27695,-1.02195,10.09605,-0.2204125,-0.10065,-0.1181125
1692594613699,-1.07595,-0.66495,8.557051,-0.1942875,-0.0259875,-0.2344375
1692594613727,-1.3750501,-0.66,8.908051,-0.1753125,0.0803,-0.289025
1692594613757,-1.4110501,-0.51000005,8.470051,-0.1408,0.1098625,-0.3350875
1692594613786,-1.45905,-0.342,8.425051,-0.0946,0.1362625,-0.4046625
1692594613817,-1.0999501,-0.55695003,9.507001,0.0119624995,0.2195875,-0.608575
1692594613841,-0.88395005,-0.282,9.094951,0.0688875,0.25685,-0.7233875
1692594613874,-1.06095,0.59505004,8.248051,0.1535875,0.2182125,-0.8668
1692594613907,-0.81000006,0.591,8.583,0.20845,0.1530375,-0.96195
1692594613939,-0.51600003,0.62895006,8.166,0.4208875,0.0567875,-1.3765125
1692594613965,-0.123,0.342,8.499001,0.539275,0.032449998,-1.60105
1692594613993,0.04605,-0.20295002,8.755051,0.6450125,-0.0460625,-1.7193
1692594614020,0.10095,-0.79200006,9.625951,0.608575,-0.1247125,-1.5624125
1692594614047,-0.18495001,-0.93795,9.837001,0.348975,-0.306075,-0.897875
1692594614077,0.060000002,-0.68895006,7.97205,0.1425875,-0.3694625,-0.47905
1692594614104,0.36705002,-0.83295006,7.5130506,-0.0559625,-0.399025,-0.1214125
1692594614136,0.39105,-1.23195,8.470051,-0.268125,-0.3873375,0.2248125
1692594614164,0.67800003,-1.3470001,10.17195,-0.31185,-0.400125,0.33935
1692594614192,0.58905005,-0.44295,10.428,-0.4092,-0.491425,0.67485
1692594614224,1.1370001,0.22905001,9.082951,-0.4323,-0.5275875,0.7800375
1692594614254,1.4749501,0.13605,8.99505,-0.269225,-0.524975,0.595925
1692594614283,1.4599501,-0.60105,11.541,-0.100099996,-0.517275,0.3790875
1692594614312,1.2589501,-0.43095002,12.505951,0.164175,-0.5625125,0.100237496
1692594614341,1.6210501,-0.55995005,11.223001,0.19085,-0.5801125,0.096525
1692594614371,1.95105,-0.9480001,11.53695,0.1153625,-0.540375,0.1835625
1692594614404,1.00605,-0.75795,12.087001,0.07095,-0.5099875,0.2058375
1692594614424,0.43605003,-0.73005,12.247951,0.0325875,-0.482075,0.2156
1692594614458,0.735,-0.73905003,11.509951,-0.020624999,-0.3529625,0.2451625
1692594614486,0.462,-0.26505002,11.248951,-0.0341,-0.0972125,0.20955
1692594614517,0.10305001,0.291,10.687051,-0.034375,0.0097624995,0.1357125
1692594614549,-0.36195,0.48000002,10.536,-0.01815,0.087175,0.038225
1692594614579,-0.42000002,-0.033,10.62705,0.098175,0.220275,-0.1923625
1692594614607,-0.29805002,-0.56505,11.400001,0.21395,0.3579125,-0.3537875
1692594614635,-0.57600003,-0.58905005,11.27595,0.21807499,0.40315,-0.3487
1692594614666,-0.57600003,-0.68205005,9.772051,0.1813625,0.4241875,-0.31295
1692594614693,-0.59505004,-0.651,9.427951,0.039325,0.4181375,-0.1970375
1692594614723,0.78795004,-0.91200006,10.08405,-0.0292875,0.406725,-0.10395
1692594614752,0.21300001,-0.34005,8.929951,-0.08305,0.383625,-0.0226875
1692594614781,0.45795003,0.010950001,7.5660005,-0.1560625,0.242275,0.0512875
1692594614810,0.41205,-0.20595,8.254951,-0.1062875,0.0627,0.003025
1692594614839,0.12495001,-0.46605003,8.974951,-0.0369875,-0.0055,-0.0724625
1692594614869,0.076950006,-0.36405003,8.78895,0.041525,-0.0999625,-0.1150875
1692594614893,0.20895001,-0.35205,8.81295,0.0380875,-0.09295,-0.0845625
1692594614925,0.381,-0.69105005,9.93795,0.026675,-0.0603625,-0.06985
1692594614957,0.076950006,-0.57705003,10.177051,0.008525,-0.028875,-0.006325
1692594614987,-0.58305,-0.15300001,9.471001,-0.0094875,-0.0328625,0.1062875
1692594615014,-0.68805003,-0.14805001,10.504951,-0.0389125,-0.0166375,0.2838
1692594615046,-0.27195,-0.17205001,10.785001,-0.0210375,0.047849998,0.2475
1692594615077,0.02205,-0.031050002,10.12005,0.0581625,0.2105125,0.0488125
1692594615104,0.052950002,-0.21495001,10.28505,0.0878625,0.237875,-0.056375
1692594615132,0.12705001,-0.39705002,10.43805,0.11495,0.1651375,-0.1907125
1692594615162,0.20400001,-0.42105,10.11705,0.1095875,0.1029875,-0.17379999
1692594615196,0.56295,-0.49800003,9.708,0.05335,-0.0037125,-0.0572
1692594615225,0.72105,-0.53295004,9.531,0.01815,-0.0471625,-0.0281875
1692594615254,0.81405,-0.43305,9.150001,-0.0111375,-0.0935,0.0012375
1692594615287,1.1040001,-0.47595003,8.88195,-0.060775,-0.2523125,0.16555
1692594615307,0.91695005,-0.62895006,9.267,-0.063525,-0.29947498,0.2022625
1692594615342,1.19505,-0.87105006,9.744,-0.064075,-0.33935,0.2550625
1692594615370,1.695,-1.13205,10.012051,-0.087725,-0.3757875,0.356125
1692594615398,1.0009501,-0.69105005,9.933001,-0.1166,-0.3795,0.3587375
1692594615429,0.80700004,-0.60495,10.12695,-0.147125,-0.3872,0.33467498
1692594615461,1.11105,-0.864,10.323001,-0.1667875,-0.3598375,0.2189
1692594615490,0.69705003,-0.46905002,10.498051,-0.1329625,-0.2259125,0.040975
1692594615519,0.84795004,-0.58095,11.07495,-0.1093125,-0.16555,-0.025575
1692594615548,0.37095,0.028050002,10.938001,-0.0807125,-0.115637496,-0.0748
1692594615576,0.582,0.19995001,11.034,0.0015125,-0.017324999,-0.168575
1692594615603,0.735,0.105000004,10.6699505,0.0600875,0.0394625,-0.2387
1692594615636,0.30405003,-0.117000006,10.696051,0.18259999,0.129525,-0.402875
1692594615665,0.37605003,-0.531,11.30895,0.219175,0.134475,-0.442475
1692594615694,0.61995006,-0.72300005,11.236951,0.21367499,0.126225,-0.3751
1692594615722,0.582,-0.73005,10.43295,0.165275,0.1348875,-0.2858625
1692594615751,0.57495004,-1.0339501,10.858951,0.0119624995,0.122925,-0.113299996
1692594615778,0.80700004,-1.13205,10.816051,-0.0573375,0.097625,-0.0523875
1692594615810,0.55995005,-0.67695004,10.057051,-0.160875,0.0446875,0.083325
1692594615839,0.57495004,-0.43095002,9.84405,-0.1920875,0.0242,0.128975
1692594615867,0.795,-0.591,9.303,-0.1769625,0.0022,0.0446875
1692594615902,0.393,-0.708,8.868,-0.1412125,-0.00385,-0.060225
1692594615927,0.33795002,-1.0030501,9.739051,-0.105875,-0.0108624995,-0.1571625
1692594615955,0.98205006,-1.2610501,10.354051,-0.076175,-0.006875,-0.2102375
1692594615984,1.0129501,-1.1149501,9.612,-0.0919875,0.00715,-0.1467125
1692594616012,0.735,-0.804,8.51295,-0.1606,-0.00385,0.0385
1692594616043,1.9699501,-1.1179501,10.098001,-0.182325,-0.0323125,0.07315
1692594616071,1.8769501,-0.98295003,10.243951,-0.1771,-0.137775,0.0836
1692594616100,1.9660501,-0.8880001,9.784051,-0.16445,-0.2409,0.1216875
1692594616128,1.8550501,-0.11505,8.604,-0.1483625,-0.3529625,0.155925
1692594616158,1.51995,-0.33705002,7.93905,-0.064075,-0.469975,0.0787875
1692594616184,1.8270001,-1.0339501,8.511001,0.0144375,-0.47547498,-0.004675
1692594616213,1.33605,-1.3470001,8.557051,0.128425,-0.434225,-0.066825
1692594616246,0.67095006,-1.55295,9.262951,0.1084875,-0.396,0.0023375
1692594616275,0.35205,-1.335,8.78895,-0.0394625,-0.2605625,0.3018125
1692594616303,-0.003,-0.76305,7.386,-0.1615625,0.011825,0.5174125
1692594616332,-0.66405004,-0.27705002,7.458,-0.1772375,0.1494625,0.5545375
1692594616367,-1.059,-0.411,8.80095,-0.093775,0.3730375,0.4701125
1692594616395,-1.66005,-0.37995002,9.604951,-0.0077,0.50655,0.30827498
1692594616423,-1.38495,-0.483,10.359,0.077825,0.6589,0.1040875
1692594616452,-0.84105,-0.73200005,10.9480505,0.1846625,0.934175,-0.2574
1692594616480,-0.78405005,-0.94305,10.641001,0.207625,0.9978375,-0.3799125
1692594616511,-0.78105,-0.90900004,9.744,0.1736625,0.863225,-0.3218875
1692594616539,-1.0690501,-0.67905,8.83905,0.1192125,0.71885,-0.1764125
1692594616567,-1.605,-0.531,8.69505,0.0188375,0.47465,0.111925
1692594616599,-1.41795,-0.47595003,8.82495,-0.0039875,0.4136,0.2541
1692594616627,-0.09195001,-0.77505004,9.94995,-0.0011,0.40535,0.4877125
1692594616657,-0.669,-0.33705002,9.62205,0.0097624995,0.3793625,0.5751625
1692594616685,-0.79605,-0.31605002,10.234051,0.030524999,0.148775,0.6868125
1692594616715,-0.762,-0.28695002,10.375951,0.030524999,0.148775,0.6868125
1692594616743,-0.58305,-0.27,10.866,0.070125,-0.010725,0.7154125
1692594616770,-0.61095005,-0.54795,11.269051,0.091437496,-0.0213125,0.7627125
1692594616804,-0.27195,-1.0860001,13.023001,0.0836,-0.088,0.9714375
1692594616832,-0.693,-0.48600003,12.148951,0.0836,-0.088,0.9714375
1692594616861,-1.3249501,0.37500003,11.055,-0.01595,-0.158675,1.048025
1692594616889,-0.88905007,0.32700002,10.561951,0.015125,-0.1051875,0.5902875
1692594616917,-0.39405003,-0.043050002,10.07205,0.1170125,-0.017875,0.1606
1692594616947,-0.48000002,-0.282,9.847051,0.2858625,0.089375,-0.4741
1692594616974,0.010050001,-0.61005,10.143001,0.284625,0.0680625,-0.4893625
1692594617004,0.25605002,-0.49305,8.89395,0.1442375,-0.0477125,-0.093775
1692594617035,0.177,-0.22005,8.158951,0.0495,-0.1227875,0.1313125
1692594617059,0.45000002,-0.48795003,8.82495,-0.030524999,-0.2022625,0.2850375
1692594617092,-0.31695002,-0.402,9.20505,-0.092675,-0.3155625,0.32615
1692594617120,-0.50595003,-0.49005002,9.394051,-0.0897875,-0.333025,0.2902625
1692594617149,0.64695,-1.18005,10.870951,-0.0796125,-0.267025,0.270325
1692594617177,0.57495004,-1.06005,10.818001,-0.0889625,-0.2066625,0.2959
1692594617207,-0.27195,-0.462,10.13595,-0.1230625,-0.1813625,0.3606625
1692594617235,-0.597,-0.22500001,9.889951,-0.193325,-0.22055,0.4928
1692594617264,-0.21900001,-0.46395,10.179001,-0.113025,-0.133375,0.3757875
1692594617295,-0.55605,-0.28500003,10.3279505,-0.0479875,-0.061875,0.25547498
1692594617324,-0.53505003,-0.30600002,10.321051,0.0042625,-0.0042625,0.1401125
1692594617353,-0.21900001,-0.40695003,10.041,0.0589875,0.0803,-0.0556875
1692594617381,0.052950002,-0.58395004,9.816001,0.06985,0.108625,-0.16665
1692594617410,-0.17805001,-0.50205004,9.030001,0.0551375,0.095837496,-0.3658875
1692594617439,-0.25995,-0.75405,8.99205,0.0262625,0.054175,-0.36574998
1692594617471,-0.36195,-0.87600005,9.258,-0.0408375,-0.0177375,-0.15895
1692594617499,-0.23805001,-0.87600005,9.222,-0.0730125,-0.017324999,-0.026675
1692594617527,-0.91800004,-0.39495003,8.65695,-0.1324125,0.013475,0.1903
1692594617555,-1.0830001,-0.186,8.406,-0.1450625,0.029424999,0.2679875
1692594617584,-0.90105003,-0.39900002,9.021001,-0.0873125,0.1287,0.328075
1692594617615,-0.74505,-0.73005,9.64995,-0.03025,0.2013,0.270325
1692594617639,-0.62805,-0.78000003,10.081051,0.0133375,0.2534125,0.1661
1692594617672,-0.91800004,-0.45405003,10.042951,0.0160875,0.243375,-0.028324999
1692594617701,-0.633,-0.48795003,9.74895,-0.0028875,0.20075,-0.0779625
1692594617729,-0.32895002,-0.79005,10.158001,-0.005775,0.142175,-0.109725
1692594617757,-0.69795,-0.79200006,10.91895,0.008525,0.12375,-0.1332375
1692594617788,-1.2529501,-0.35205,10.78695,0.005775,0.0567875,-0.207625
1692594617819,-0.51795,-0.48105,10.840051,-0.0081124995,0.03575,-0.1904375
1692594617845,0.25395,-0.96900004,11.97,-0.009625,0.0462,-0.12773749
1692594617869,-0.135,-0.84495,12.255,0.0154,0.055275,-0.0254375
1692594617898,-0.93195003,-0.684,11.722951,0.0103124995,-0.0169125,-0.0314875
1692594617926,-0.81195,-0.84705,11.139001,-0.006875,-0.10835,-0.0704
1692594617955,-0.63795,-1.74195,12.453001,-0.022275,-0.1291125,-0.1161875
1692594617985,-1.8420001,-1.4599501,12.405001,-0.0347875,-0.0735625,-0.036849998
1692594618013,-1.5310501,-0.81600004,10.26795,-0.144925,0.0264,0.2468125
1692594618044,-1.0210501,-0.82995003,9.246,-0.1947,0.098037496,0.2715625
1692594618075,-1.12605,-0.90405005,9.094951,-0.15785,0.25685,-0.033275
1692594618102,-0.61605,-1.21305,9.28695,-0.108625,0.28187498,-0.2088625
1692594618131,0.60795003,-1.3230001,9.436951,-0.0631125,0.23333749,-0.3548875
1692594618159,0.666,-1.113,8.58495,-0.075075,0.1670625,-0.337975
1692594618188,-0.86805004,-0.76605004,8.04705,-0.100237496,0.049775,-0.310475
1692594618217,-0.65895003,-0.89295006,7.5319505,-0.1139875,-0.1931875,-0.458425
1692594618245,-0.85995007,-1.09605,7.7910004,-0.0873125,-0.193875,-0.6114625
1692594618277,-1.2600001,-1.3230001,9.265051,-0.0466125,-0.02145,-0.6741625
1692594618309,-0.62295,-1.35,9.696,-0.0570625,0.056375,-0.56581247
1692594618335,-1.2390001,-0.34695002,7.8100505,-0.090475,0.171875,-0.3964125
1692594618364,-0.16905001,-0.81405,9.196051,-0.0829125,0.2074875,-0.4244625
1692594618391,-0.08505,-0.73695004,9.828,0.0254375,0.2297625,-0.720225
1692594618418,-0.312,-0.24105,9.27495,0.0930875,0.187825,-0.8674875
1692594618448,-0.61605,0.117000006,8.43,0.18755,-0.005225,-0.9656625
1692594618479,0.058050003,-0.45195,8.973001,0.25575,-0.0595375,-1.056275
1692594618503,0.156,-0.88095003,9.95895,0.3433375,-0.0561,-1.2079375
1692594618535,-0.28095,-0.61200005,9.3490505,0.42075,-0.047575,-1.2681625
1692594618563,0.09105001,-0.43500003,8.37495,0.3565375,-0.099,-1.0591625
1692594618593,0.87405,-1.17495,9.064051,0.177925,-0.18287499,-0.605275
1692594618622,0.38595003,-1.29495,9.19305,0.12595,-0.199925,-0.47341248
1692594618651,1.542,-1.70595,8.832001,-0.003025,-0.30745,-0.1414875
1692594618679,1.17795,-1.4959501,8.887051,-0.1071125,-0.3903625,0.106837496
1692594618709,0.47205,-1.67505,10.275001,-0.29645,-0.58355,0.6389625
1692594618737,0.34995002,-1.4500501,10.43805,-0.34155,-0.6502375,0.8133125
1692594618768,0.71595,-0.73695004,9.088051,-0.34485,-0.6386875,0.8655625
1692594618792,1.2709501,-0.50205004,9.31095,-0.25025,-0.4230875,0.6815875
1692594618821,0.795,-0.55305004,11.09595,-0.16293749,-0.3210625,0.50325
1692594618851,0.83295006,-0.89295006,11.953051,0.0411125,-0.2366375,0.0873125
1692594618881,1.365,-1.0360501,12.133051,0.121,-0.206525,-0.071775
1692594618911,1.1230501,-0.94500005,11.500951,0.1797125,-0.146025,-0.1062875
1692594618939,1.03695,-1.1370001,10.818001,0.1662375,-0.1469875,-0.016224999
1692594618970,1.008,-1.21095,11.07495,0.1662375,-0.1469875,-0.016224999
1692594618999,0.16305001,-1.3620001,11.43105,0.0759,-0.1648625,0.202675
1692594619024,0.076950006,-0.97200006,10.31805,0.036575,-0.122237496,0.259325
1692594619055,-0.24495001,-0.39900002,9.45705,-0.029975,0.0394625,0.371525
1692594619079,-0.051000003,-0.73905003,10.440001,-0.033275,0.1131625,0.3898125
1692594619111,0.30195,-0.88305,11.22795,0.0407,0.2220625,0.2476375
1692594619138,0.48600003,-0.62895006,10.677,0.081125,0.252175,0.1335125
1692594619169,0.48405004,-0.18405001,9.507001,0.1007875,0.2479125,0.038225
1692594619196,0.58395004,-0.25095,8.764951,0.1197625,0.1519375,-0.11605
1692594619225,0.34695002,-0.65295005,8.736,0.145475,0.09515,-0.197175
1692594619254,0.177,-0.85395,8.6980505,0.1854875,0.009075,-0.2957625
1692594619283,-0.16905001,-1.2199501,8.746051,0.1648625,-0.014025,-0.26785
1692594619313,0.028950002,-1.36905,8.691,0.0396,0.0143,-0.076725
1692594619344,0.075,-1.302,9.52095,-0.045375,0.0551375,0.0507375
1692594619366,-0.36195,-1.074,10.038,-0.195525,0.0985875,0.3029125
1692594619396,-0.3,-1.04295,10.837951,-0.2303125,0.0999625,0.37015
1692594619427,0.04605,-0.99105006,10.833,-0.193325,0.1408,0.2806375
1692594619454,-0.102000006,-0.83505005,10.74195,-0.1417625,0.1700875,0.15895
1692594619481,-0.25995,-0.74205005,10.58205,-0.089237496,0.181225,0.027775
1692594619508,-0.32895002,-0.59805006,10.76805,-0.001375,0.1617,-0.1882375
1692594619538,-0.147,-0.86100006,10.428,0.037675,0.157575,-0.251625
1692594619565,-0.094050005,-0.615,9.76095,0.068475,0.16005,-0.2828375
1692594619591,-0.25005,-0.531,9.049951,0.08525,0.1563375,-0.3504875
1692594619624,-0.42000002,-0.675,9.220051,0.086075,0.1475375,-0.427625
1692594619642,-0.34605002,-0.92805004,9.604951,0.093775,0.138325,-0.4978875
1692594619676,-0.231,-1.074,9.592951,0.100099996,0.1269125,-0.4156625
1692594619705,-0.23295002,-0.97905004,9.315001,0.0738375,0.1205875,-0.247225
1692594619733,-0.22800002,-0.90705,9.27,-0.0226875,0.09075,0.0985875
1692594619761,0.031050002,-0.97395,9.32505,-0.0594,0.0719125,0.17173749
1692594619788,0.072000004,-0.89505005,8.99895,-0.075625,0.056649998,0.169675
1692594619817,0.40695003,-1.041,9.672001,-0.0680625,0.02035,0.0666875
1692594619847,0.66795003,-1.09605,9.83205,-0.0559625,-0.0155375,0.0224125
1692594619875,0.48900002,-1.00695,9.571051,-0.0435875,-0.1315875,0.064899996
1692594619902,0.61305004,-1.0890001,9.8560505,-0.0510125,-0.1969,0.1387375
1692594619931,1.11105,-1.0390501,10.242001,-0.0697125,-0.2721125,0.1783375
1692594619961,0.864,-0.87105006,10.34895,-0.07205,-0.2827,0.1166
1692594619990,0.67800003,-0.91905004,10.510051,-0.0661375,-0.2971375,0.040425
1692594620019,0.06705,-1.0510501,10.81095,-0.0226875,-0.3267,-0.0374
1692594620049,0.46500003,-1.51005,11.72595,-4.125E-4,-0.2960375,-0.0532125
1692594620076,1.164,-0.94005007,12.481951,-0.00385,-0.127875,-0.0576125
1692594620105,1.176,0.26295,10.219951,-0.0207625,-0.0658625,-0.0077
1692594620133,1.71405,0.76500005,7.7190003,0.0176,-0.1027125,0.0452375
1692594620162,1.0540501,0.11400001,7.8910503,0.1082125,-0.1610125,-0.04675
1692594620192,0.0,-0.87795,10.201051,0.3287625,-0.3100625,-0.290125
1692594620217,-0.15405001,-1.3590001,11.59605,0.375375,-0.3458125,-0.3339875
1692594620249,0.10305001,-1.2870001,11.335951,0.34375,-0.2864125,-0.3029125
1692594620275,0.74205005,-1.11,10.72305,0.104499996,0.027224999,-0.0444125
1692594620303,0.82605004,-1.2540001,11.509951,-0.1029875,0.160325,0.1887875
1692594620331,0.68700004,-0.98295003,11.665951,-0.1486375,0.125675,0.2138125
1692594620360,0.91695005,-0.66,10.512,-0.16225,0.0715,0.19305
1692594620388,0.8880001,-0.51000005,10.1629505,-0.11605,-0.0066,0.073425
1692594620418,0.97695005,-0.94995004,10.717951,-0.0680625,-0.0312125,-0.016775
1692594620450,0.81195,-1.04595,10.404,-0.020624999,-0.0529375,-0.106975
1692594620484,0.23295002,-0.43995002,8.134951,1.375E-4,-0.081675,-0.1887875
1692594620503,0.54795,-0.81795,8.02995,-0.023375,-0.07865,-0.1808125
1692594620534,0.56805,-1.24395,9.217051,-0.0479875,-0.0389125,-0.12815
1692594620569,-0.20205002,-1.1080501,10.275001,-0.0688875,-0.0034375,-0.0237875
1692594620594,-0.30705002,-0.96000004,9.99705,-0.0939125,0.0191125,0.0248875
1692594620621,0.43095002,-0.615,9.700951,-0.1137125,0.067925,0.051975
1692594620651,0.67800003,-0.34005,9.073951,-0.081675,0.2275625,-5.5E-4
1692594620679,0.54105,-0.201,7.5919504,-0.0308,0.2586375,-0.07755
1692594620709,0.522,-0.49800003,6.8689504,0.080575,0.1505625,-0.248325
1692594620740,0.16095,-0.97905004,7.6780505,0.119075,0.08415,-0.3064875
1692594620768,0.201,-1.422,8.101951,0.1167375,0.0218625,-0.2237125
1692594620798,0.38295,-1.7209501,8.76,0.0565125,0.0144375,-0.012925
1692594620826,0.120000005,-1.58895,8.571,-0.1511125,-0.0031625,0.6120125
1692594620857,-0.18495001,-1.52205,8.817,-0.2459875,-0.0221375,0.8732625
1692594620885,-0.17805001,-1.491,9.196051,-0.306625,-0.0306625,1.03565
1692594620913,-0.015000001,-1.6009501,9.571051,-0.3245,0.0163625,1.1171875
1692594620943,0.40695003,-1.69395,10.14105,-0.29947498,0.0452375,1.115125
1692594620972,0.393,-1.26405,9.98295,-0.22247499,0.05555,1.0412875
1692594621001,0.132,-1.0000501,9.595051,-0.17985,0.039049998,0.8837125
1692594621030,-0.84795004,-0.58395004,8.93505,-0.07645,-0.0033,0.4093375
1692594621059,-0.78405005,-1.005,9.073951,-0.013475,0.011275,0.239525
1692594621088,-0.90105003,-1.3039501,9.739051,0.106975,0.174625,0.1263625
1692594621117,-0.92295,-1.3230001,10.194,0.1342,0.2701875,0.17215
1692594621145,-1.0690501,-0.85395,9.693001,0.12595,0.3315125,0.2817375
1692594621176,0.036000002,-1.02705,10.3279505,0.0680625,0.35901248,0.5160375
1692594621206,-0.54705,-0.43800002,10.48305,0.0605,0.33673748,0.5638875
1692594621233,-0.753,-0.15495001,11.19705,0.1016125,0.198,0.5066875
1692594621259,-0.39795002,-0.21495001,11.75895,0.154825,0.127875,0.383075
1692594621294,-0.17295001,-0.031050002,12.373951,0.3201,0.0853875,0.0127875
1692594621320,-0.03195,0.081,11.470051,0.3878875,0.07205,-0.092675
1692594621349,0.120000005,-0.24900001,10.194,0.44,-0.006325,-0.1199
1692594621377,-0.19695,-0.97200006,11.802001,0.4312,-0.061875,-0.14685
1692594621408,-0.16905001,-1.2250501,12.39105,0.3938,-0.112475,-0.148775
1692594621436,-0.537,-0.097950004,9.04695,0.20295,-0.1648625,0.20625
1692594621465,-0.3,-0.028050002,8.590051,0.0853875,-0.16225,0.4632375
1692594621493,-0.43005002,-0.35895002,9.696,0.01155,-0.0862125,0.5231875
1692594621525,-0.40800002,-0.63600004,9.8869505,0.0504625,-0.033825,0.3804625
1692594621559,0.23295002,-0.69405,9.327001,0.0831875,0.025024999,0.2784375
1692594621588,0.10305001,-0.62700003,8.85795,0.0050875,-0.0042625,0.3727625
1692594621616,-0.24000001,-0.48795003,8.776951,-0.038225,-0.05555,0.4016375
1692594621645,-0.18300001,-0.69405,9.52095,-0.0671,-0.107525,0.42295
1692594621673,-0.72195005,-0.57195,9.745951,-0.073975,-0.12815,0.4648875
1692594621704,-1.15995,-0.165,8.875051,-0.07095,-0.061325,0.5011875
1692594621739,-1.0639501,-0.47100002,9.933001,-0.0642125,0.0050875,0.445225
1692594621766,-0.66405004,-0.591,10.49295,-0.036025,0.0968,0.3309625
1692594621791,-0.50100005,-0.58095,10.36095,0.0350625,0.2542375,0.2085875
1692594621820,-0.68295,-0.28005,9.79605,0.0385,0.26427498,0.2112
1692594621847,-0.37005,-0.43305,9.76095,0.0253,0.177375,0.0556875
1692594621877,-0.32205,-0.57900006,10.045051,0.0350625,0.1282875,-0.053625
1692594621906,-0.53205,-0.684,10.290001,0.04675,0.088275,-0.111375
1692594621933,-0.87195003,-0.39195,9.30795,0.0358875,0.026124999,-0.130075
1692594621964,-0.57795,-0.45405003,9.0709505,0.0207625,0.0125124995,-0.1714625
1692594621992,-0.78105,-0.41595003,8.953951,0.0108624995,0.0160875,-0.2347125
1692594622021,-0.94905007,-0.43095002,8.767051,0.0061875,0.0490875,-0.2668875
1692594622051,-0.87705004,-0.66495,8.829,0.0059125,0.089237496,-0.103675
1692594622080,-0.95595,-0.89295006,9.31305,0.00385,0.11385,-0.006875
1692594622109,-1.2739501,-0.72705,9.934951,-0.03355,0.1529,0.1414875
1692594622138,-1.368,-0.555,9.34605,-0.0704,0.168025,0.180125
1692594622167,-1.3080001,-0.39900002,9.19995,-0.105325,0.1885125,0.2011625
1692594622197,-0.76905006,-0.63195,9.700951,-0.1175625,0.2341625,0.26895
1692594622227,-0.74295,-0.42795002,10.191001,-0.0946,0.2338875,0.3180375
1692594622254,-0.71895003,-0.19395001,9.934951,-0.037125,0.1376375,0.2935625
1692594622281,-0.72405005,-0.052050002,10.222051,-0.003575,0.0661375,0.1815
1692594622306,-0.49395,-0.24405001,10.807051,0.037675,0.007425,0.053625
1692594622338,-0.41505003,-0.060000002,10.321051,0.1287,-0.0614625,-0.1274625
1692594622369,-0.17295001,-0.112050004,10.231951,0.17407499,-0.126225,-0.264825
1692594622398,-0.18105,-0.79200006,11.497951,0.1799875,-0.16335,-0.3345375
1692594622427,-0.55395,-0.99105006,12.139951,0.1606,-0.2118875,-0.456775
1692594622457,-1.1329501,-0.93600005,11.628,0.102575,-0.2193125,-0.4092
1692594622486,-1.365,-0.87600005,11.002951,-0.061325,-0.1637625,-0.121
1692594622518,-1.81095,-1.194,11.979001,-0.116875,-0.0911625,0.0070125
1692594622539,-1.7910001,-1.4170501,12.243001,-0.15015,-2.75E-4,0.10175
1692594622574,-2.11695,-0.591,9.966001,-0.2006125,0.186175,0.2655125
1692594622602,-1.3060501,-0.59295005,8.928,-0.2211,0.2585,0.3070375
1692594622629,-1.1359501,-0.87600005,9.354,-0.163625,0.3702875,0.0518375
1692594622657,-1.5589501,-0.76605004,9.351001,-0.089375,0.3953125,-0.22013749
1692594622688,-1.3410001,-1.1580001,8.50905,0.0207625,0.3422375,-0.72627497
1692594622718,-1.31505,-1.797,9.387,0.0358875,0.307725,-0.8707875
1692594622747,-1.34595,-1.4310001,9.613951,-0.055825,0.243925,-0.73865
1692594622775,-1.1329501,-0.9979501,8.97795,-0.1529,0.1934625,-0.5159
1692594622803,-1.42005,-0.342,8.293051,-0.2223375,0.142725,-0.374275
1692594622833,-1.06095,-0.66495,9.069,-0.1392875,0.113575,-0.6138
1692594622863,-1.5469501,-0.53805,9.097051,-0.025575,0.1313125,-0.86075
1692594622889,-2.0740502,-0.35595003,8.71695,0.0895125,0.1516625,-1.1042625
1692594622918,-1.7029501,-0.591,9.837001,0.2938375,0.2432375,-1.63185
1692594622950,-1.32,-0.37305,8.923051,0.4343625,0.3971,-1.9955375
1692594622978,-1.1839501,-0.23700002,8.571,0.4508625,0.408925,-1.9925125
1692594623005,-0.81000006,-0.46395,8.52795,0.4486625,0.3685,-1.9184
1692594623035,-1.3609501,-0.81600004,7.9440002,0.4426125,0.2211,-1.708575
1692594623066,-0.19995001,-1.70895,8.929951,0.3223,0.0567875,-1.2621125
1692594623094,-0.48195,-1.43295,8.51595,0.181225,-0.0154,-0.891275
1692594623125,-0.039,-1.1869501,7.89795,-1.375E-4,-0.09515,-0.44
1692594623152,0.44595003,-1.10595,8.260051,-0.3141875,-0.3188625,0.3883
1692594623182,0.651,-1.182,9.892051,-0.3751,-0.4334,0.5973
1692594623211,1.17795,-0.96000004,8.916,-0.3733125,-0.5322625,0.6595875
1692594623240,1.116,-0.744,9.53295,-0.2776125,-0.7055125,0.5856125
1692594623269,1.1010001,-0.92595005,11.10105,-0.1485,-0.8666625,0.4830375
1692594623297,0.9979501,-0.88995004,11.541,-0.0814,-0.9092875,0.425425
1692594623327,1.5949501,-1.2420001,11.90505,-0.0176,-0.903925,0.3625875
1692594623356,1.8750001,-1.0309501,10.299001,0.0716375,-0.780175,0.2299
1692594623385,1.6639501,-1.18005,10.926001,0.088275,-0.7217375,0.1772375
1692594623413,0.975,-1.13205,11.173051,0.0752125,-0.686125,0.1777875
1692594623441,0.89100003,-1.5600001,11.199,0.060225,-0.6573875,0.211475
1692594623470,0.80895007,-1.845,12.0390005,0.043725,-0.583,0.2611125
1692594623500,-0.022950001,-0.84195006,11.800051,-0.014025,-0.346225,0.4123625
1692594623530,-0.453,-0.13605,11.038951,-0.0609125,-0.10505,0.3928375
1692594623558,-0.30705002,-0.34905002,10.99995,-0.0350625,0.031075,0.2638625
1692594623587,-0.42705002,-0.40695003,11.13195,0.032449998,0.17379999,0.088275
1692594623616,-0.44400004,-0.48795003,11.13405,0.1958,0.38073748,-0.18535
1692594623650,0.08400001,-0.65805006,10.194,0.249425,0.4285875,-0.1903
1692594623679,0.27105,-0.60795003,9.342,0.2343,0.4129125,-0.1458875
1692594623706,0.23505001,-0.71295005,9.32205,0.201575,0.36987498,-0.104225
1692594623736,0.28995,-0.924,9.540001,0.159775,0.3001625,-0.0749375
1692594623765,0.08205,-0.72300005,9.196051,0.0704,0.1428625,-0.0622875
1692594623796,-0.10395,-0.66495,8.84595,-0.00385,0.056649998,-0.0518375
1692594623825,-0.11805001,-0.65295005,8.76,-0.0235125,0.04235,-0.0341
1692594623853,-0.291,-0.66,8.797951,-0.02695,0.053625,-0.0438625
1692594623882,-0.32700002,-0.87795,9.11205,-0.01925,0.0759,-0.066275
1692594623911,-0.384,-0.85695004,9.612,-0.013612499,0.13035,-0.0386375
1692594623940,-0.19305001,-0.91905004,9.75105,-0.025575,0.1511125,0.0083875
1692594623968,-0.15705001,-0.76095,9.5140505,-0.0435875,0.1623875,0.055
1692594623998,-0.23805001,-0.61695004,9.27705,-0.060775,0.1445125,0.120037496
1692594624025,-0.24795002,-0.62205005,9.460951,-0.050875,0.12485,0.1175625
1692594624055,-0.29805002,-0.82800007,9.97095,-0.0028875,0.0969375,0.007425
1692594624084,-0.058050003,-1.0309501,10.830001,0.019524999,0.0884125,-0.04455
1692594624115,-0.06105,-0.76095,10.258051,0.0127875,0.0507375,-0.01705
1692594624143,0.33795002,-0.70305,10.36095,-0.003025,0.0309375,0.0286
1692594624171,0.65400004,-0.67005,10.27995,-0.0191125,-0.022824999,0.0451
1692594624200,0.62295,-0.42795002,9.768001,-0.010175,-0.0647625,0.0270875
1692594624230,0.83295006,-0.06705,9.946951,0.03025,-0.18535,0.0055
1692594624259,0.93600005,-0.43995002,9.106951,0.0614625,-0.23485,-0.0284625
1692594624288,1.64205,-0.69105005,9.15705,0.1335125,-0.278575,-0.171875
1692594624316,1.09695,-1.2559501,11.058001,0.146575,-0.3026375,-0.2079
1692594624347,1.4080501,-1.2780001,11.44095,0.1252625,-0.348425,-0.1736625
1692594624376,0.86895007,-0.31095,9.946951,-0.0070125,-0.44494998,0.092675
1692594624404,0.82095003,-0.10695001,9.330001,-0.0680625,-0.43821248,0.2244
1692594624431,0.68700004,-0.261,9.555,-0.038775,-0.3168,0.19607499
1692594624457,0.24900001,-0.36405003,10.42395,0.03355,-0.2407625,0.0710875
1692594624488,0.18705001,-0.49305,11.71905,0.098037496,-0.1643125,-0.0562375
1692594624518,0.47400004,-0.10305001,11.0119505,0.13653749,0.0092124995,-0.2360875
1692594624546,0.48600003,-0.15795001,11.07495,0.128975,0.152625,-0.3378375
1692594624575,0.25605002,-0.22200002,11.331,0.13859999,0.17105,-0.36685
1692594624603,0.81195,-0.648,11.173051,0.150425,0.1274625,-0.4063125
1692594624632,0.51495004,-0.78195006,11.127001,0.1337875,0.0988625,-0.3958625
1692594624666,1.00605,-1.1029501,11.60805,0.095837496,0.0699875,-0.325325
1692594624701,1.3429501,-0.51705,9.753,-0.0259875,8.25E-4,-0.058849998
1692594624728,0.96495,-0.40905002,9.186001,-0.110825,-0.0752125,0.0284625
1692594624755,1.09695,-0.76995003,10.536,-0.1087625,-0.1109625,-0.0042625
1692594624781,1.077,-0.69900006,10.6390505,-0.08415,-0.13805,-0.0358875
1692594624813,1.0030501,-0.21795002,8.67105,-0.04235,-0.1519375,-0.0507375
1692594624845,0.78300005,-0.064050004,8.487,-0.032175,-0.14025,-0.0609125
1692594624874,1.56105,-0.342,8.07495,0.0180125,-0.106975,-0.1428625
1692594624904,1.9270501,-0.78705,8.710051,0.0677875,-0.1233375,-0.213125
1692594624930,1.8000001,-1.1580001,9.691051,0.060775,-0.186175,-0.1879625
1692594624959,0.29205,-0.58605003,9.531,0.022824999,-0.2773375,-0.114675
1692594624990,-0.09,-0.177,8.608951,-0.105325,-0.344575,0.0768625
1692594625019,-0.28605002,-0.14805001,8.27595,-0.138325,-0.234025,0.0939125
1692594625048,-0.786,-0.70605004,9.523951,-0.1266375,-0.0507375,0.023375
1692594625076,-1.4250001,-1.0189501,10.18395,-0.0468875,0.314875,-0.186725
1692594625105,-1.1359501,-1.11,9.40905,-0.0358875,0.4670875,-0.2226125
1692594625134,-0.28095,-1.01205,6.8929505,-0.10505,0.7187125,-0.1260875
1692594625161,-0.88395005,-0.56505,5.57595,-0.155375,0.7558375,0.00495
1692594625192,-0.16605,-1.32105,6.8760004,-0.2099625,0.6545,0.3551625
1692594625219,0.060000002,-1.55595,7.293,-0.2063875,0.5869875,0.505725
1692594625249,-0.57795,-0.95205003,6.9649506,-0.2146375,0.5009125,0.67141247
1692594625280,-0.85800004,-1.3090501,9.35595,-0.3245,0.227975,1.134925
1692594625309,-1.74405,-1.5289501,12.030001,-0.34141248,0.0999625,1.3662
1692594625337,-2.09505,-0.69405,10.960051,-0.2990625,0.1266375,1.3690875
1692594625364,-2.05695,0.042000003,9.90705,-0.2454375,0.1909875,1.3107874
1692594625394,-1.9110001,-0.59595,11.115001,-0.0639375,0.4008125,0.8861875
1692594625425,-1.9950001,-1.5460501,12.931951,0.0763125,0.5000875,0.5273125
1692594625450,-2.1360002,-1.5700501,14.3539505,0.2022625,0.550825,0.212575
1692594625479,-2.35605,-0.76095,13.18095,0.1874125,0.472725,0.1832875
1692594625510,-1.6860001,0.03795,10.905001,0.0209,0.31185,0.3884375
1692594625538,-1.38195,0.04695,10.488001,0.043449998,0.2732125,0.2784375
1692594625570,-1.4470501,-0.201,10.846951,0.131725,0.2567125,0.0658625
1692594625598,-1.3410001,-0.78705,11.218051,0.319,0.2046,-0.3185875
1692594625626,-1.30095,-0.70095,10.984051,0.3460875,0.1535875,-0.3884375
1692594625655,-0.702,-0.84195006,10.251,0.2332,0.0301125,-0.22935
1692594625684,-0.97800004,-0.67905,9.579,0.0367125,-0.08635,0.1975875
1692594625713,-1.2910501,-0.43305,9.77505,-0.0418,-0.1390125,0.4037
1692594625741,-1.6189501,0.045,8.56095,-0.092125,-0.1733875,0.540925
1692594625771,-1.23405,0.010950001,8.865001,-0.061325,-0.1238875,0.4912875
1692594625797,-0.9990001,-0.26805001,9.85095,0.016224999,-0.048125,0.32725
1692594625829,-0.87195003,-0.31995,9.79395,0.10065,0.0174625,0.145475
1692594625857,-0.99405,-0.22005,8.75805,0.1698125,0.0099,-0.0449625
1692594625888,-1.0540501,-0.42600003,8.889001,0.1307625,-0.073425,-0.040975
1692594625916,-1.011,-0.88500005,9.70995,0.1109625,-0.0858,-0.0317625
1692594625944,-1.2100501,-0.91905004,10.062,0.08305,-0.0804375,6.875E-4
1692594625974,-1.176,-0.79005,10.189051,-0.04675,-0.0677875,0.194975
1692594626004,-1.215,-0.522,9.495001,-0.1260875,-0.0671,0.3029125
1692594626029,-1.15995,-0.37095,9.253051,-0.2014375,-0.056649998,0.407275
1692594626062,-0.91800004,-0.624,10.27005,-0.185625,-0.0441375,0.424875
1692594626091,-1.023,-0.51000005,10.43295,-0.0930875,-0.031075,0.3980625
1692594626119,-1.0879501,-0.124050006,9.804001,-0.048675,-0.0463375,0.3278
1692594626154,-0.633,-0.21495001,10.14795,0.01705,-0.076175,0.116325
1692594626189,-0.63105005,-0.13395001,9.67695,0.0983125,-0.0774125,-0.0342375
1692594626220,-0.89400005,-0.10695001,9.607051,0.1326875,-0.097625,-0.0682
1692594626248,-0.97800004,0.04695,9.129001,0.157025,-0.154275,-0.0526625
1692594626275,-1.0330501,-0.03795,9.09,0.1552375,-0.1496,-0.0207625
1692594626302,-1.1910001,-0.26505002,9.366,0.1552375,-0.1150875,-0.006875
1692594626336,-1.30305,-0.39195,9.865951,0.154,-0.0180125,-0.043175
1692594626363,-1.131,-0.41895002,9.79395,0.1293875,0.0237875,-0.0320375
1692594626394,-1.54005,-0.057000004,9.106951,0.02585,0.079475,0.1472625
1692594626423,-1.6339501,-0.11895001,9.283951,-0.0188375,0.0941875,0.232925
1692594626452,-1.3990501,-0.10005,9.50205,-0.0196625,0.1436875,0.1881
1692594626481,-1.27695,-0.14805001,9.693001,0.007975,0.1771,0.1051875
1692594626510,-1.2270001,-0.201,10.182,0.0323125,0.1958,0.0309375
1692594626539,-0.81000006,-0.061950002,10.40205,0.050875,0.15895,-0.0405625
1692594626566,-0.65505004,0.231,10.323001,0.045649998,0.1150875,-0.0182875
1692594626593,-0.77400005,0.624,9.745951,0.0386375,-0.014575,0.0741125
1692594626626,-0.64305,0.53295004,10.275001,0.067375,-0.0862125,0.06435
1692594626653,-0.76500005,0.68595004,10.4740505,0.1973125,-0.1623875,-0.0985875
1692594626680,-0.55905,0.57405,10.08405,0.254375,-0.1720125,-0.18493749
1692594626711,-1.0210501,0.18405001,10.225051,0.29425,-0.1786125,-0.295625
1692594626746,-1.02795,-0.42795002,10.972051,0.2877875,-0.17325,-0.3243625
1692594626772,-0.96105003,-0.81105006,11.833051,0.1816375,-0.1241625,-0.17765
1692594626797,-1.15995,-0.67695004,11.629951,0.0642125,-0.0895125,0.02585
1692594626824,-1.50405,-0.342,11.022,-0.0726,-0.063525,0.2435125
1692594626852,-1.5259501,-0.45705003,10.455001,-0.260425,-0.0251625,0.4230875
1692594626882,-1.57605,-0.67005,10.174951,-0.2806375,0.01485,0.3788125
1692594626907,-1.3630501,-0.873,10.795051,-0.26895,0.0697125,0.3086875
1692594626940,-1.83,-0.21495001,9.861,-0.235125,0.164725,0.177375
1692594626968,-1.26705,-0.36795002,8.86305,-0.2063875,0.2039125,-0.0259875
1692594626995,-1.284,-0.46395,9.109051,-0.16225,0.214225,-0.186725
1692594627025,-0.87705004,-0.62700003,9.3820505,-0.102437496,0.21615,-0.3587375
1692594627055,-1.2859501,-0.55305004,9.093,-0.0301125,0.1571625,-0.5809375
1692594627084,-0.92295,-0.66300005,9.33195,-0.0452375,0.0506,-0.5962
1692594627111,-0.66195005,-0.483,9.129001,-0.0479875,0.0191125,-0.6040375
1692594627141,-0.17295001,-0.75105006,8.767051,-0.041249998,9.625E-4,-0.6375875
1692594627170,0.04605,-1.24395,9.904051,-0.0385,-0.0842875,-0.6722375
1692594627199,0.16995001,-1.3780501,10.069051,-0.0385,-0.0842875,-0.6722375
1692594627226,-0.93495005,-0.46905002,7.7790003,-0.154825,-0.3499375,-0.39655
1692594627256,-0.73095006,-0.31095,7.5660005,-0.1925,-0.3729,-0.332475
1692594627286,-1.27695,-0.021000002,7.5319505,-0.1832875,-0.3234,-0.3774375
1692594627314,-1.404,0.25995,6.8910003,-0.0290125,-0.0831875,-0.7115625
1692594627346,-0.81000006,-0.09105001,7.2829504,0.0815375,0.052525,-0.950675
1692594627375,-1.1839501,-0.71805006,8.3220005,0.303875,0.27665,-1.4751
1692594627405,-0.68100005,-1.3069501,9.538051,0.3546125,0.3257375,-1.5893625
1692594627440,0.606,-0.65295005,7.4550004,0.199375,0.2842125,-1.2271875
1692594627468,0.58005005,-0.51195,7.5340505,-0.081125,0.0287375,-0.5203
1692594627499,0.558,-0.85905004,8.53995,-0.144925,-0.175725,-0.30621248
1692594627528,0.98205006,-0.924,9.448951,-0.147125,-0.37345,-0.2149125
1692594627559,1.2430501,-0.63195,9.897,-0.106425,-0.6072,-0.055
1692594627589,1.48905,-0.46395,10.725,-0.0897875,-0.708125,0.1984125
1692594627617,2.049,-0.58605003,11.094001,-0.0548625,-0.7429125,0.2288
1692594627647,2.56605,-1.09095,13.023001,0.0446875,-0.7788,0.1546875
1692594627674,1.8550501,-0.69405,12.658951,0.075625,-0.797225,0.1359875
1692594627702,1.2739501,-0.49305,11.962951,0.0820875,-0.8119375,0.1538625
1692594627731,1.6639501,-0.99495006,12.163951,0.07535,-0.7093625,0.220825
1692594627763,0.88605005,-0.80595005,12.12495,0.0837375,-0.576675,0.226325
1692594627785,0.18900001,-0.63405,12.396001,0.0829125,-0.4332625,0.2281125
1692594627822,0.47895002,-0.49500003,11.005051,0.0389125,-0.184525,0.253275
1692594627849,1.03695,-0.837,10.774951,0.0314875,0.073425,0.1612875
1692594627878,1.33095,-1.09605,10.479,0.0383625,0.1502875,0.0924
1692594627907,0.48900002,-1.05795,11.436001,0.0056375,0.09295,0.085525
1692594627934,-0.26895002,-0.81405,11.721001,-0.031625,0.0207625,0.1467125
1692594627961,-0.15195,-0.53805,10.861951,-0.0644875,-0.0077,0.1991
1692594627990,0.38295,0.105000004,8.746051,-0.072875,0.1247125,0.1208625
1692594628019,0.68700004,-0.079050004,8.75805,-0.038225,0.203775,-0.002475
1692594628049,0.711,-0.591,9.580951,0.083875,0.20899999,-0.2344375
1692594628077,0.63705003,-0.77805007,9.877951,0.12979999,0.15413749,-0.2784375
1692594628106,0.522,-0.60795003,9.078,0.1390125,0.0922625,-0.245575
1692594628134,0.55305004,-0.51195,8.76,0.06435,0.014025,-0.056375
1692594628164,0.31605002,-0.46905002,8.793,0.022,0.0028875,0.001925
1692594628192,0.42195,-0.63195,9.081,-0.0116875,0.010175,0.0226875
1692594628224,0.75705004,-0.81105006,9.081,-0.013612499,0.0268125,0.0199375
1692594628253,0.58395004,-0.77295005,9.33405,-0.0320375,0.0455125,0.043449998
1692594628282,0.51000005,-0.73005,9.5449505,-0.0495,0.0262625,0.1199
1692594628308,0.43395,-0.71805006,10.033051,-0.0631125,-8.25E-4,0.22687499
1692594628337,0.54105,-0.66495,10.215,-0.0644875,-0.0158125,0.313225
1692594628362,0.67995006,-0.68700004,9.99705,-0.055825,-9.625E-4,0.2673
1692594628395,0.60795003,-0.591,9.65295,-0.0295625,0.02365,0.13585
1692594628423,0.71805006,-0.69900006,10.086,-0.0177375,0.0180125,0.0760375
1692594628455,0.70395005,-0.77505004,10.33695,-0.005775,-0.0089375,-0.0264
1692594628483,0.97905004,-0.81105006,10.10295,-0.0064625,-0.0221375,-0.0785125
1692594628512,1.1230501,-0.68895006,9.591001,-0.020624999,-0.052249998,-0.1254
1692594628549,1.1710501,-0.624,9.777,-0.0339625,-0.1049125,-0.088
1692594628575,1.3429501,-0.81105006,9.777,-0.034649998,-0.1387375,-0.08525
1692594628605,0.97200006,-0.684,9.34395,-0.031075,-0.1703625,-0.0803
1692594628632,1.1880001,-0.79395,9.607051,-0.0221375,-0.21945,9.625E-4
1692594628664,0.91695005,-0.67200005,10.036051,-0.0143,-0.21505,0.09075
1692594628692,0.9289501,-0.63600004,10.254001,-0.0143,-0.21505,0.09075
1692594628721,0.59595,-0.63195,10.773001,0.004675,-0.137775,0.0578875
1692594628748,0.84795004,-0.735,11.42895,0.0240625,-0.042075,0.0391875
1692594628777,1.0540501,-0.57195,11.508,0.027224999,0.0094875,0.0455125
1692594628807,0.83295006,-0.16995001,10.323001,0.030524999,0.0941875,-0.027775
1692594628837,1.05795,-0.25605002,10.17195,0.0482625,0.1117875,-0.107525
1692594628865,0.61095005,-0.58905005,11.083951,0.0803,0.112475,-0.1956625
1692594628894,0.87195003,-1.10595,11.908051,0.12773749,0.0823625,-0.3158375
1692594628925,0.15405001,-0.59595,11.07495,0.1131625,0.069575,-0.3125375
1692594628949,0.48600003,-0.483,9.94995,0.038775,0.0862125,-0.157575
1692594628982,0.8880001,-0.01905,8.985001,0.014025,0.11165,-0.0605
1692594629011,0.44295,-0.55695003,10.416,0.0132,0.149875,-0.0526625
1692594629038,0.98205006,-0.69105005,9.933001,0.01925,0.1397,-0.1247125
1692594629069,0.13905,-0.03795,9.049951,-0.008525,0.0713625,-0.1923625
1692594629099,0.65400004,-0.342,10.12905,-0.02365,0.045649998,-0.1890625
1692594629123,1.23105,-0.81405,10.345051,-0.0132,0.0451,-0.20185
1692594629152,0.85695004,-0.74205005,9.92805,0.03355,0.0534875,-0.2369125
1692594629182,1.1850001,-0.63405,8.94705,0.02365,0.0165,-0.198
1692594629212,2.1070502,-0.72300005,8.817,-0.0328625,-0.097075,-0.051975
1692594629243,1.8769501,-0.84000003,9.054001,-0.052249998,-0.152625,0.0114124995
1692594629269,1.6330501,-0.94005007,9.049951,-0.06655,-0.22385,0.0792
1692594629298,0.62700003,-0.98595005,8.82495,-0.0925375,-0.39421248,0.263725
1692594629325,0.71400005,-1.125,8.64,-0.122925,-0.3818375,0.3331625
1692594629355,0.37095,-0.81795,7.86705,-0.1406625,-0.2717,0.29095
1692594629386,-0.61905,-0.19800001,7.15395,-0.1518,-0.14135,0.25685
1692594629416,-0.31500003,-0.72705,9.042001,-0.1167375,0.0903375,0.2514875
1692594629449,0.063,-1.1730001,10.1650505,-0.017324999,0.3779875,0.0968
1692594629477,-0.58500004,-0.75105006,8.181001,0.007975,0.4813875,0.0196625
1692594629504,0.20595,-1.194,7.0939503,-0.00165,0.5113625,0.029975
1692594629536,0.21795002,-1.692,7.6590004,-0.0743875,0.4565,0.276925
1692594629563,-0.14205001,-1.69395,7.8499503,-0.1260875,0.3920125,0.4626875
1692594629593,-1.32,-0.87795,7.05105,-0.2820125,0.1731125,0.992475
1692594629621,-1.8030001,-0.675,8.487,-0.3436125,0.101475,1.253725
1692594629651,-2.1460502,-0.23700002,11.079,-0.28435,0.2512125,1.40525
1692594629680,-2.06205,0.15705001,11.806951,-0.161425,0.438075,1.2747625
1692594629709,-2.301,0.72,11.271001,0.1813625,0.7557,0.690525
1692594629742,-3.0340502,0.78705,11.434051,0.3686375,0.8265125,0.2817375
1692594629771,-2.8639503,0.31800002,12.942,0.54835,0.848925,-0.142725
1692594629800,-2.66805,-0.08805001,13.14795,0.795025,0.8361375,-0.7805875
1692594629829,-3.5719502,0.53805,11.503051,0.694925,0.7425,-0.65065
1692594629858,-2.9980502,0.6,10.701,0.5410625,0.6694875,-0.32835
1692594629888,-2.3419502,0.47100002,11.08905,0.41181248,0.6153125,-0.0625625
1692594629918,-1.1050501,-0.29895002,12.007951,0.364925,0.556875,-0.1117875
1692594629947,-1.5139501,0.13605,9.01095,0.2842125,0.31845,-0.1777875
1692594629978,-1.54005,0.17205001,8.956051,0.139975,0.15619999,0.083875
1692594630002,-0.73605,-0.34395,10.02105,-0.004675,0.04235,0.4351875
1692594630027,-0.87000006,0.00405,9.942,-0.132,-0.047025,0.8861875
1692594630053,-1.22895,0.363,9.603001,-0.1412125,-0.113025,0.90585
1692594630078,-1.2889501,0.73200005,8.65005,-0.1375,-0.2052875,0.8317375
1692594630110,-0.68100005,0.60495,8.961,-0.051425,-0.29273748,0.5467
1692594630135,-0.56805,0.591,9.363001,0.0345125,-0.2699125,0.37015
1692594630164,-1.116,0.82500005,8.950951,0.1211375,-0.2490125,0.19195
1692594630191,-1.5450001,0.78000003,8.30805,0.232925,-0.2586375,-0.07205
1692594630218,-0.98505,0.32700002,8.37495,0.26427498,-0.24585,-0.13475
1692594630246,-1.011,0.093,9.32205,0.282425,-0.1991,-0.168025
1692594630277,-0.882,-0.42795002,10.158001,0.2030875,-0.0881375,-0.0471625
1692594630307,-1.04505,-0.25305,9.688951,0.0886875,-0.0726,0.172425
1692594630336,-0.9799501,-0.09105001,9.580951,-0.161975,-0.1032625,0.6054125
1692594630365,-0.80505,0.12105001,9.604951,-0.2413125,-0.1131625,0.665775
1692594630393,-1.2,0.411,9.990001,-0.2756875,-0.113575,0.6089875
1692594630423,-1.5330001,0.57600003,9.80805,-0.2398,-0.121275,0.5358375
1692594630449,-1.437,0.53505003,9.861,-0.177375,-0.1214125,0.41745
1692594630478,-1.2430501,0.22905001,10.203,-0.01375,-0.036849998,0.0881375
1692594630508,-1.047,0.34395,9.65295,0.1076625,0.0543125,-0.1901625
1692594630538,-1.026,0.27195,9.35805,0.1167375,0.0598125,-0.1959375
1692594630569,-1.143,0.069000006,9.291,0.0961125,0.0462,-0.12485
1692594630597,-1.4610001,0.126,9.066,0.045925,0.01485,-0.0319
1692594630626,-1.31295,0.03795,9.17595,0.0242,0.0182875,-0.0122375
1692594630654,-1.4250001,0.064050004,9.700951,-0.03025,0.071775,0.0559625
1692594630685,-1.713,0.20295002,9.861,-0.04895,0.0952875,0.0515625
1692594630714,-1.7029501,0.507,9.47595,-0.0721875,0.1005125,0.0402875
1692594630743,-1.2720001,0.70305,9.09,-0.0686125,0.1117875,0.065725
1692594630776,-1.4250001,0.63105005,9.265051,0.0226875,0.146025,0.036575
1692594630803,-1.3750501,0.67905,9.423,0.102437496,0.1354375,-0.0688875
1692594630831,-1.365,0.79905003,9.693001,0.1750375,0.1054625,-0.199375
1692594630859,-1.4440501,0.89505005,9.724951,0.2338875,0.0444125,-0.30635
1692594630887,-1.5139501,0.91800004,9.753,0.227975,0.012925,-0.265375
1692594630913,-1.6570501,1.0210501,10.134001,0.23265,0.005225,-0.2822875
1692594630943,-1.58595,0.75795,10.266001,0.242,0.00385,-0.318725
1692594630967,-1.3729501,0.55695003,10.785001,0.2286625,0.013475,-0.3243625
1692594630998,-1.8270001,0.057000004,11.635051,0.19139999,0.0160875,-0.2662
1692594631027,-2.18595,-0.186,11.857051,0.0394625,0.0114124995,-0.0240625
1692594631055,-1.7560501,-0.37605003,11.649,-0.073975,0.024475,0.1530375
1692594631086,-1.8420001,-0.36105,11.326051,-0.2904,0.076175,0.4591125
1692594631115,-1.8780001,-0.15795001,10.596001,-0.3595625,0.0837375,0.5182375
1692594631145,-1.3729501,-0.52605003,10.49505,-0.39655,0.079475,0.5157625
1692594631173,-1.49205,-0.44505003,10.431001,-0.3773,0.071225,0.3620375
1692594631203,-1.50705,-0.177,9.46605,-0.3260125,0.0218625,0.1417625
1692594631232,-1.31805,-0.23700002,9.021001,-0.3260125,0.0218625,0.1417625
1692594631260,-1.4989501,-0.462,8.99895,-0.2558875,-0.0287375,-0.0576125
1692594631291,-1.4280001,-0.35895002,8.82195,-0.1480875,-0.0270875,-0.32945
1692594631319,-1.3729501,-0.26295,8.38395,-0.120037496,-0.014162499,-0.4059
1692594631346,-1.1400001,-0.43800002,8.65905,-0.102437496,0.0039875,-0.446325
1692594631377,-0.73605,-0.74700004,8.743051,-0.0543125,0.0209,-0.5149375
1692594631404,-0.63105005,-0.88500005,8.84895,-0.047025,0.00165,-0.49513748
1692594631431,-1.03695,-0.98805004,9.50205,-0.1227875,-0.108899996,-0.276375
1692594631461,-1.023,-1.2040501,10.242001,-0.179025,-0.1753125,-0.1727
1692594631489,-1.64505,-0.34005,9.415951,-0.2561625,-0.2121625,-0.1142625
1692594631518,-1.2720001,-0.06705,8.51805,-0.2624875,-0.172425,-0.1436875
1692594631545,-1.96395,0.23595001,8.67405,-0.2206875,-0.099275,-0.231
1692594631575,-1.0849501,0.08295,9.303,0.01375,0.091299996,-0.5740625
1692594631605,-1.1380501,0.04695,9.238951,0.1524875,0.15125,-0.7761875
1692594631633,-1.059,0.112050004,9.47295,0.2693625,0.1634875,-0.9681375
1692594631662,-0.60705,0.093,8.7310505,0.391875,0.084425,-1.2177
1692594631695,-0.85095006,0.112050004,7.635,0.3859625,-0.0191125,-1.155
1692594631724,-0.47295,-0.124050006,7.6180506,0.3603875,-0.066,-1.0465125
1692594631752,0.08205,-0.55995005,8.776951,0.2850375,-0.1434125,-0.792275
1692594631780,0.216,-0.60795003,8.87205,0.223025,-0.18095,-0.62755
1692594631809,0.33105,-0.08805001,7.9750504,0.022824999,-0.3375625,-0.1628
1692594631838,1.6350001,-0.684,8.54895,-0.0625625,-0.4225375,0.0163625
1692594631866,1.09395,-0.36105,9.117001,-0.122099996,-0.5614125,0.1122
1692594631894,0.85995007,-0.01905,10.074,-0.125675,-0.670175,0.14355
1692594631923,1.2379501,0.16695,10.504951,-0.1159125,-0.776325,0.18095
1692594631953,1.5469501,0.23895001,10.617001,-0.0171875,-0.7803125,0.0298375
1692594631982,1.7479501,0.30105,10.519051,0.0523875,-0.7205,-0.144375
1692594632011,2.3100002,-0.21795002,10.857,0.14739999,-0.6763625,-0.368775
1692594632041,2.4160502,-0.675,11.866951,0.170225,-0.678975,-0.3746875
1692594632069,1.35,-0.45000002,12.175951,0.1296625,-0.7008375,-0.1472625
1692594632100,1.6300501,-0.39900002,11.23305,0.06325,-0.6975375,0.034649998
1692594632124,1.6999501,-0.30795002,10.45905,-0.04675,-0.540925,0.2303125
1692594632157,1.31895,0.006,10.110001,-0.0638,-0.425425,0.238975
1692594632187,0.90000004,-0.048,10.486051,-0.0364375,-0.2633125,0.266475
1692594632215,0.65400004,-0.411,11.56095,-0.0364375,-0.2633125,0.266475
1692594632244,0.333,-0.58605003,11.44095,0.0155375,-0.1071125,0.1645875
1692594632273,0.37095,-0.37800002,10.894951,0.01375,-4.125E-4,0.080025
1692594632301,0.35895002,0.022950001,10.552951,-0.0427625,0.20735,0.0290125
1692594632329,0.59205,0.0,10.510051,-0.0539,0.301675,-0.014575
1692594632358,0.156,0.006,10.2630005,-0.02805,0.3089625,-0.0933625
1692594632388,0.14895001,-0.246,10.993051,0.0268125,0.293425,-0.3212
1692594632413,0.19395001,-0.24900001,11.179951,0.0268125,0.293425,-0.3212
1692594632443,0.9480001,0.054,9.69795,0.0407,0.2935625,-0.4378
1692594632473,1.314,0.30105,8.511001,0.0235125,0.262075,-0.459525
1692594632501,1.0129501,0.22905001,7.9579506,0.0270875,0.1915375,-0.43614998
1692594632530,0.67995006,-0.09105001,8.46105,0.07975,-0.0319,-0.2586375
1692594632559,0.46905002,-0.45195,9.109051,0.1051875,-0.1186625,-0.1661
1692594632589,0.402,-0.34695002,8.889001,0.082499996,-0.141075,5.5E-4
1692594632619,0.33495003,-0.17205001,8.736,0.036849998,-0.0961125,0.128975
1692594632648,0.39795002,-0.13905,8.7960005,-0.0103124995,-0.04015,0.27101249
1692594632677,0.54795,-0.29700002,9.427951,-0.0551375,0.0485375,0.3881625
1692594632706,0.43395,-0.29895002,9.67905,-0.0523875,0.07095,0.3562625
1692594632735,0.49095002,-0.20595,9.835051,-0.0408375,0.0771375,0.3392125
1692594632765,0.43095002,-0.18405001,9.96405,-0.0424875,0.0738375,0.3639625
1692594632794,0.55995005,0.076050006,9.61005,-0.0419375,0.07645,0.2567125
1692594632824,0.79305005,0.22005,9.98295,-0.0286,0.0746625,0.117699996
1692594632852,0.9670501,0.057000004,10.57905,0.0336875,0.0407,-0.141075
1692594632880,1.1179501,0.049950004,10.500001,0.0704,0.005775,-0.2118875
1692594632913,1.8360001,-0.040050004,10.45695,0.0935,-0.036025,-0.2321
1692594632947,1.7910001,-0.105000004,10.345051,0.088275,-0.1362625,-0.193325
1692594632976,1.8390001,-0.30600002,11.047951,0.0600875,-0.2809125,-0.082225
1692594633006,1.6519501,0.006,11.03205,0.04235,-0.3389375,0.01375
1692594633037,1.03005,0.53295004,11.05095,0.0020625,-0.363,0.16499999
1692594633064,1.0699501,0.60705,10.93095,-0.001375,-0.331925,0.1621125
1692594633093,1.41495,0.38895002,10.42605,0.070125,-0.1892,-0.028324999
1692594633123,1.6810501,-0.08805001,11.48595,0.12265,-0.1120625,-0.133375
1692594633152,0.915,0.08805001,12.148951,0.153175,-0.056925,-0.155925
1692594633181,1.04205,0.21000001,11.047951,0.1199,-0.060225,-0.10065
1692594633209,1.539,0.010950001,9.733951,0.032175,-0.003575,-0.0583
1692594633236,1.57305,-0.24900001,9.21,0.0053625,0.0331375,-0.0922625
1692594633267,1.11105,-0.27,9.424951,-0.029424999,-0.010175,-0.088825
1692594633291,1.0489501,-0.57405,10.363951,-0.0517,-0.05995,-0.0374
1692594633323,1.0129501,-0.35895002,10.210951,-0.0814,-0.08305,-0.002475
1692594633353,1.3120501,0.31500003,9.05895,-0.1551,-0.034925,0.0050875
1692594633381,1.45305,0.49695003,8.655001,-0.1739375,6.875E-4,-0.013062499
1692594633414,0.80505,0.30600002,8.784,-0.104775,0.005775,-0.203225
1692594633443,0.13395001,0.069000006,9.15705,-0.031625,-0.0273625,-0.33605
1692594633472,1.2379501,-0.64095,9.262951,0.0600875,-0.0125124995,-0.5009125
1692594633501,1.281,-0.76605004,9.271951,0.034375,0.058849998,-0.508475
1692594633532,0.82395005,-0.67695004,9.222,-0.034649998,0.1145375,-0.43559998
1692594633561,0.82905006,-0.651,8.563951,-0.185625,0.0818125,-0.1082125
1692594633588,0.36405003,-1.02195,9.2029505,-0.22605,0.0567875,0.0350625
1692594633619,-0.34800002,-1.2589501,10.05,-0.2514875,0.084425,0.2195875
1692594633653,0.46005002,-1.2540001,9.94005,-0.2855875,0.1948375,0.36313748
1692594633680,0.76905006,-0.57900006,8.89395,-0.3128125,0.2842125,0.38555
1692594633709,0.63705003,-0.14805001,8.125951,-0.33385,0.346225,0.37785
1692594633737,0.13695,-0.11505,7.4029503,-0.2817375,0.277475,0.26427498
1692594633766,-0.14895001,-0.73905003,9.093,-0.19139999,0.2000625,0.144925
1692594633793,-0.61095005,-0.91605,8.434051,-0.0031625,0.14973749,-0.0510125
1692594633820,-0.93900007,-0.615,7.3360505,0.0317625,0.1907125,-0.0276375
1692594633849,-1.43505,-0.37095,7.1040006,-0.0048125,0.3312375,0.24447499
1692594633877,-1.296,-0.70605004,7.2690005,-0.02805,0.4272125,0.3232625
1692594633906,-0.68100005,-1.13205,7.3290005,-0.0339625,0.6303,0.199925
1692594633936,-0.786,-1.5799501,9.02805,-0.0510125,0.67705,0.16293749
1692594633963,-1.5190501,-1.6129501,11.26095,-0.2036375,0.57035,0.425425
1692594633994,-1.9900501,-0.342,10.363951,-0.31033748,0.4642,0.6873625
1692594634022,-1.7010001,0.282,9.397051,-0.3795,0.3905,0.9262
1692594634052,-1.6650001,0.27495003,10.158001,-0.2190375,0.4318875,0.8402625
1692594634081,-1.53495,-0.70095,12.961051,0.0086624995,0.495825,0.4764375
1692594634110,-1.8679501,-0.87795,13.899001,0.238975,0.52442497,0.106837496
1692594634139,-1.713,-0.66,13.096951,0.37345,0.4921125,-0.067925
1692594634168,-1.71,0.07395,10.12395,0.1632125,0.21615,0.4544375
1692594634197,-1.45395,-0.246,11.03205,0.113299996,0.1714625,0.506275
1692594634225,-0.96795005,-1.00695,12.571051,0.1189375,0.1593625,0.445775
1692594634256,-1.1839501,-0.651,11.689951,0.121,0.114125,0.481525
1692594634284,-1.1020501,0.10695001,9.097051,-0.017324999,-0.0303875,0.7929625
1692594634313,-1.19505,0.162,9.00195,-0.0561,-0.0840125,0.7981875
1692594634340,-1.09305,-0.162,10.287001,-0.0347875,-0.0972125,0.6606875
1692594634371,-1.2550501,-0.14595,10.255951,0.095699996,-0.0490875,0.22605
1692594634400,-1.1190001,0.066,9.571051,0.1348875,-0.0281875,0.06435
1692594634429,-0.915,0.10005,9.50205,0.1408,-0.010175,-0.083325
1692594634458,-0.513,0.033,9.531,0.14093749,-0.010175,-0.1067
1692594634487,-0.86805004,0.040050004,9.418051,0.1502875,-0.0226875,-0.1307625
1692594634515,-0.87705004,-0.10695001,9.495001,0.173525,-0.079475,-0.2619375
1692594634547,-0.87705004,-0.10695001,9.495001,0.173525,-0.079475,-0.2619375
1692594634576,-0.669,-0.36600003,9.399,0.1013375,-0.1098625,-0.1604625
1692594634604,-0.95895004,-0.22200002,9.418051,0.051425,-0.1095875,-0.0059125
1692594634634,-1.0180501,-0.22695,9.86295,-0.0356125,-0.104225,0.2380125
1692594634663,-1.0999501,-0.049950004,9.595051,-0.0589875,-0.0889625,0.2952125
1692594634693,-0.86805004,0.0019500001,9.637951,-0.0617375,-0.0408375,0.32505
1692594634722,-0.78405005,-0.15,9.79395,-0.0463375,-0.016775,0.3111625
1692594634757,-0.56100005,-0.31095,9.916051,-0.0127875,0.0011,0.2528625
1692594634780,-0.79605,-0.19605,10.09605,-0.00825,-0.0202125,0.208175
1692594634808,-0.966,-0.06705,9.745951,-0.0235125,-0.091575,0.09405
1692594634838,-1.1329501,0.018000001,9.47805,-0.0276375,-0.106975,0.0462
1692594634865,-1.26705,-0.049950004,9.45705,-0.018424999,-0.0946,0.0121
1692594634894,-1.24605,-0.15300001,9.559051,0.0235125,-0.001925,-0.0067375
1692594634925,-1.04205,-0.08805001,9.40095,0.0380875,0.0539,-0.011825
1692594634953,-0.95895004,-0.00405,9.282001,0.0419375,0.120175,-0.0790625
1692594634982,-1.04205,0.081,9.196051,0.037675,0.117425,-0.10395
1692594635013,-1.0570501,0.126,9.033,0.0385,0.0694375,-0.0606375
1692594635036,-1.03005,0.054,9.471001,0.0455125,0.047849998,-0.02035
1692594635068,-1.215,0.20505,9.637951,0.0688875,0.032449998,-0.036025
1692594635099,-1.296,0.27705002,9.969001,0.0807125,0.0314875,-0.0730125
1692594635128,-1.251,0.045,11.592001,0.1093125,0.0463375,-0.120037496
1692594635157,-1.3270501,0.21705002,12.02295,0.12265,0.0625625,-0.13805
1692594635191,-0.91995007,0.39705002,11.865001,0.101475,0.0598125,-0.07205
1692594635220,-0.52005005,0.31800002,12.130051,0.0881375,0.030524999,-0.038225
1692594635249,-0.61395,0.38700002,11.464951,0.111375,-0.07095,-0.1203125
1692594635279,-1.2550501,0.65295005,10.93605,0.124437496,-0.136675,-0.1709125
1692594635307,0.051000003,0.07395,11.338051,0.1302125,-0.2014375,-0.172425
1692594635339,-0.46500003,-0.12705001,11.350051,0.1236125,-0.1821875,-0.09405
1692594635367,-1.1209501,-0.18405001,10.56,0.0928125,-0.1706375,0.0790625
1692594635396,-0.23295002,-0.74895006,10.40205,-0.0427625,-0.1958,0.5449125
1692594635424,-1.047,-0.16005,9.957001,-0.1122,-0.1766875,0.69795
1692594635452,-1.6650001,0.58305,8.343,-0.2234375,-0.093225,0.900625
1692594635482,-1.02795,0.81795,7.6009502,-0.23773749,-0.0394625,0.9266125
1692594635511,-1.45605,0.89505005,7.4119506,-0.072875,0.1511125,0.5445
1692594635540,-1.3630501,0.14805001,9.0070505,0.0675125,0.24145,0.212575
1692594635568,-0.88395005,-0.00705,9.339001,0.1882375,0.288475,-0.096525
1692594635599,-0.69795,0.30600002,8.34105,0.245575,0.2712875,-0.3711125
1692594635624,-1.60695,0.54705,8.253,0.1813625,0.2160125,-0.314875
1692594635655,-1.0849501,0.21495001,8.98005,0.1104125,0.1340625,-0.2585
1692594635685,-1.2600001,0.51900005,8.272051,0.0856625,0.00495,-0.5075125
1692594635714,-1.3630501,0.64605004,8.281051,0.1060125,0.007425,-0.7352125
1692594635743,-1.6140001,1.062,8.793,0.146025,0.0639375,-0.71115
1692594635773,-0.53505003,0.98100007,8.772,0.209825,0.11275,-0.79873747
1692594635802,-0.62100005,1.074,8.55405,0.2938375,0.15235,-0.9702
1692594635831,-0.70005006,1.14795,8.04705,0.443025,0.06325,-1.306525
1692594635857,-0.71205,0.933,8.20695,0.4816625,-0.048125,-1.3875124
1692594635883,-0.55605,0.55695003,8.44905,0.5003625,-0.141625,-1.4301375
1692594635914,-0.55905,-0.14295001,9.769951,0.4521,-0.2294875,-1.3849
1692594635946,-0.40305,0.081,8.986951,0.3359125,-0.250525,-1.2021625
1692594635975,0.522,-0.34395,9.459001,-0.0177375,-0.269775,-0.5786
1692594636004,0.49800003,-0.37605003,9.724951,-0.1557875,-0.2825625,-0.3007125
1692594636032,0.44295,-0.060000002,9.531,-0.3216125,-0.4019125,0.168025
1692594636060,0.86895007,0.51900005,8.923051,-0.37345,-0.48014998,0.3779875
1692594636089,1.8049501,0.054,10.45905,-0.3817,-0.5289625,0.4907375
1692594636117,0.915,-0.08295,11.6629505,-0.232375,-0.58753747,0.3443
1692594636147,1.07295,0.105000004,10.95495,-0.1142625,-0.6884625,0.1857625
1692594636176,1.7520001,0.112050004,10.65795,-0.104775,-0.6777375,0.12265
1692594636206,1.8220501,-0.15495001,10.94505,-0.097625,-0.6177875,0.028324999
1692594636235,1.863,-0.162,10.519051,-0.07645,-0.5531625,-0.0606375
1692594636265,1.4680501,0.07395,9.397051,-0.0776875,-0.571725,-0.00275
1692594636294,1.04205,-0.30600002,9.516001,-0.0983125,-0.5660875,0.13213749
1692594636323,1.4989501,-1.065,10.48305,-0.1005125,-0.520025,0.1689875
1692594636353,1.88205,-1.074,9.847051,-0.122925,-0.36905,0.24255
1692594636381,1.8430501,-1.0339501,10.026,-0.175175,-0.3097875,0.3031875
1692594636410,1.2930001,-0.90405005,11.034,-0.2996125,-0.30635,0.44
1692594636440,0.97200006,-0.60300004,11.082001,-0.3260125,-0.31239998,0.45993748
1692594636470,0.55305004,-0.033,10.13595,-0.2971375,-0.19139999,0.3741375
1692594636497,0.36900002,-0.0139500005,10.179001,-0.2470875,-0.082225,0.27335
1692594636527,0.216,-0.141,11.173051,-0.0924,0.1401125,-0.069575
1692594636556,0.56295,-0.462,11.383051,-0.0188375,0.24145,-0.274175
1692594636585,0.82395005,-0.36795002,10.287001,0.040425,0.3609375,-0.524975
1692594636612,1.09395,-0.41400003,9.436951,0.031075,0.3465,-0.5146625
1692594636642,1.0030501,-0.40905002,9.700951,0.013475,0.2882,-0.4373875
1692594636672,1.3740001,-0.62895006,9.562051,-0.013062499,0.1266375,-0.2607
1692594636701,1.764,-0.84705,9.637951,-0.0210375,0.0572,-0.19745
1692594636729,0.85005003,-0.34395,9.23595,-0.0279125,-2.75E-4,-0.13805
1692594636759,0.72105,-0.61695004,9.65505,-0.047025,-0.111237496,0.00165
1692594636787,0.89805007,-0.79695004,10.002001,-0.0504625,-0.1123375,0.0836
1692594636820,0.72795004,-0.62700003,9.567,-0.0504625,-0.0622875,0.11495
1692594636846,0.69195,-0.555,9.579,-0.0567875,-0.0163625,0.1695375
1692594636873,0.74700004,-0.61695004,9.68595,-0.065725,0.0350625,0.29755
1692594636903,0.57000005,-0.43500003,9.825001,-0.058025,0.049775,0.33261248
1692594636933,0.36195,-0.26805001,9.753,-0.0325875,0.067375,0.2960375
1692594636961,0.48405004,-0.32805002,9.604951,-0.0171875,0.081125,0.2193125
1692594636989,0.59895,-0.37305,9.64305,0.0231,0.131175,0.0308
1692594637020,0.50100005,-0.54300004,9.897,0.0397375,0.144375,-0.0385
1692594637047,0.41400003,-0.56700003,10.005,0.04675,0.1373625,-0.0726
1692594637079,0.73305005,-0.64095,9.922951,0.0281875,0.1104125,-0.048125
1692594637107,0.67995006,-0.41595003,9.504001,0.007975,0.111237496,-0.050049998
1692594637136,0.771,-0.49005002,9.63405,-0.0257125,0.0977625,-0.14135
1692594637165,0.795,-0.62895006,10.17,-0.028324999,0.07095,-0.1656875
1692594637193,0.72795004,-0.43305,9.816001,-0.015675,0.0103124995,-0.1145375
1692594637222,0.984,-0.31095,9.471001,-0.0155375,-0.015675,-0.071775
1692594637253,0.91695005,-0.39900002,9.729,-0.01375,-0.053625,-0.06545
1692594637282,0.84300005,-0.48105,9.913951,0.00165,-0.0686125,-0.0917125
1692594637311,0.75405,-0.57195,10.222051,0.0209,-0.0826375,-0.085525
1692594637340,0.97695005,-0.43995002,10.110001,0.0319,-0.0886875,0.008525
1692594637369,1.0890001,-0.32805002,9.933001,0.0099,-0.067375,0.0501875
1692594637399,1.0699501,-0.22200002,9.86295,0.0056375,-0.065725,0.0592625
1692594637428,1.26705,-0.24900001,10.062,0.0111375,-0.071775,0.03575
1692594637457,1.3810501,-0.29700002,10.098001,0.0353375,-0.089925,-0.132825
1692594637487,1.4290501,-0.31800002,10.29405,0.0537625,-0.1337875,-0.1782
1692594637516,1.2739501,-0.21795002,10.48095,0.0584375,-0.165825,-0.109725
1692594637545,0.82395005,-0.19800001,10.543051,0.061325,-0.1896125,-0.0235125
1692594637575,0.78495,-0.22005,10.9140005,0.062975,-0.1670625,0.0616
1692594637603,0.71595,-0.11505,10.512,0.059675,-0.110275,0.0262625
1692594637638,1.1179501,-0.32505003,10.014001,0.0495,0.036849998,-0.1192125
1692594637656,1.4959501,-0.56505,10.384951,0.0451,0.084425,-0.158675
1692594637691,1.07295,-0.62895006,11.158051,0.0210375,0.0757625,-0.0867625
1692594637721,1.8960001,-0.85905004,11.191951,-0.005775,0.0320375,0.01155
1692594637748,1.9540501,-0.70605004,10.2630005,-0.0675125,-0.055,0.2253625
1692594637776,1.4800501,-0.402,9.981001,-0.0875875,-0.108625,0.2952125
1692594637806,1.5780001,-0.60495,9.34395,-0.0952875,-0.1780625,0.32285
1692594637834,1.3740001,-0.92100006,9.889951,-0.07535,-0.2673,0.2677125
1692594637866,1.4580001,-0.92805004,10.813951,-0.0625625,-0.2608375,0.2404875
1692594637893,2.04495,-0.79395,9.591001,-0.0699875,-0.2041875,0.3141875
1692594637921,1.1710501,-0.22905001,8.085,-0.081675,-0.16665,0.3480125
1692594637953,1.2280501,-0.60105,9.385051,-0.077275,-0.1122,0.2209625
1692594637981,1.8700501,-1.029,9.96195,-0.055275,-0.0939125,0.1106875
1692594638009,1.44105,-0.86895007,9.804001,-0.0210375,-0.043725,-0.0297
1692594638038,1.2790501,-0.70305,9.162001,-0.0364375,-0.0372625,-0.0449625
1692594638072,1.1850001,-0.10005,8.632951,-0.0919875,-0.0545875,-0.02475
1692594638102,0.65400004,0.102000006,7.4389505,-0.0859375,-0.0413875,-0.0331375
1692594638132,0.333,-0.093,7.3410006,-0.0451,-0.0111375,-0.0749375
1692594638160,0.201,-1.0890001,9.31095,0.067925,0.0792,-0.2212375
1692594638186,-0.32700002,-1.08405,10.396951,0.0699875,0.2501125,-0.2047375
1692594638213,-0.55605,-0.56505,8.956051,0.00935,0.3601125,-0.0710875
1692594638242,0.052950002,-0.84705,9.088051,-0.0614625,0.46461248,0.07975
1692594638272,-0.62595004,-0.51195,8.69295,-0.1197625,0.5729625,0.189475
1692594638303,-0.975,-0.82800007,8.85795,-0.1057375,0.5696625,0.1530375
1692594638332,-0.83595,-1.18005,7.7809505,-0.0529375,0.599225,-0.0281875
1692594638362,-0.87000006,-1.5630001,8.06595,-0.04895,0.64185,-0.1049125
1692594638390,-1.4089501,-1.7850001,9.3820505,-0.157575,0.6457,0.1387375
1692594638419,-1.9810501,-1.31595,9.114,-0.254925,0.6054125,0.47245
1692594638449,-2.70105,-0.76305,9.50205,-0.4024625,0.574475,1.0605375
1692594638479,-3.3310502,-0.12900001,9.78195,-0.3939375,0.6238375,1.121175
1692594638508,-2.86905,-0.00405,10.6390505,-0.1599125,0.8501625,0.71665
1692594638537,-2.73495,-0.079050004,11.557951,0.0331375,0.9722625,0.372625
1692594638566,-2.1070502,-0.29205,12.219001,0.2248125,1.029325,0.0400125
1692594638600,-1.7820001,-0.076050006,11.653951,0.478225,0.86913747,-0.468325
1692594638626,-1.215,-0.009000001,10.720051,0.513975,0.6953375,-0.5858875
1692594638655,-0.79800004,-0.37995002,11.103001,0.43821248,0.301125,-0.4131875
1692594638684,-0.83400005,-0.897,11.60805,0.3806,0.1254,-0.2363625
1692594638713,-0.81495005,-0.897,11.175,0.3139125,-0.03135,-0.0389125
1692594638741,-0.98505,-0.56205004,10.57005,0.0836,-0.287925,0.5080625
1692594638771,-0.94395006,-0.15495001,10.620001,-0.1335125,-0.3884375,0.8930625
1692594638800,-1.014,0.126,9.79395,-0.15015,-0.37661248,0.851675
1692594638828,-0.91995007,0.054,9.48495,-0.1049125,-0.3399,0.6821375
1692594638860,-0.83895004,-0.21795002,9.880051,0.0540375,-0.2435125,0.2479125
1692594638890,-0.549,-0.41895002,9.61905,0.113299996,-0.2003375,0.084975
1692594638919,-0.64695,-0.45000002,9.27705,0.1307625,-0.157025,-0.0451
1692594638948,-0.63495004,-0.37605003,8.875051,0.049225,-0.1791625,0.0471625
1692594638975,-0.549,-0.34395,9.02295,0.0055,-0.188925,0.1265
1692594639002,-0.42000002,-0.32295,9.229051,-0.025575,-0.186175,0.20625
1692594639032,-0.52305,-0.21300001,9.126,-0.05335,-0.176825,0.3815625
1692594639061,-0.45795003,-0.43995002,9.729,-0.0573375,-0.180675,0.46048748
1692594639089,-0.3,-0.615,10.189051,-0.0515625,-0.18645,0.46928748
1692594639119,-0.54705,-0.31995,10.198951,-0.049775,-0.1865875,0.4098875
1692594639148,-0.513,-0.25305,10.048051,-0.053625,-0.186725,0.341
1692594639177,-0.53205,0.14505,9.61905,-0.0462,-0.17105,0.1480875
1692594639210,-0.37005,0.08505,9.612,0.033,-0.1175625,-0.11715
1692594639239,-0.42000002,-0.028050002,9.94995,0.091575,-0.0952875,-0.2278375
1692594639272,-0.39405003,-0.124050006,9.96405,0.1689875,-0.0856625,-0.3102
1692594639298,-0.351,-0.261,9.777,0.168575,-0.0884125,-0.275825
1692594639327,-0.29805002,-0.39900002,9.568951,0.113437496,-0.0858,-0.132825
1692594639356,-0.19305001,-0.46905002,9.6,0.113437496,-0.0858,-0.132825
1692594639384,-0.37005,-0.42600003,9.768001,0.028875,-0.0842875,0.0363
1692594639414,-0.39600003,-0.21300001,9.63405,-0.0551375,-0.093775,0.18053749
1692594639442,-0.27600002,-0.20295002,9.721951,-0.0820875,-0.095975,0.2173875
1692594639477,-0.36495003,-0.16005,10.014001,-0.078925,-0.080025,0.2211
1692594639510,-0.39600003,-0.17205001,9.96405,-0.0551375,-0.0682,0.207075
1692594639537,-0.504,-0.24105,10.10805,-0.0067375,-0.0438625,0.1640375
1692594639564,-0.38895002,-0.26505002,10.017,0.0070125,-0.0298375,0.147675
1692594639592,-0.26895002,-0.32295,10.038,0.0116875,-0.005775,0.14135
1692594639619,-0.54195005,-0.11895001,9.732,0.0056375,-2.75E-4,0.1354375
1692594639648,-0.50895,-0.12705001,9.612,0.0015125,0.00275,0.1194875
1692594639676,-0.62295,-0.08595,9.49995,0.0108624995,0.0099,0.11275
1692594639705,-0.51600003,-0.27495003,9.538051,0.0248875,0.0242,0.09625
1692594639735,-0.81495005,-0.23205002,9.583051,0.0444125,0.063525,-0.0182875
1692594639763,-0.88395005,-0.19095,9.47595,0.0416625,0.0804375,-0.1189375
1692594639794,-0.83205,-0.08295,9.265051,0.0180125,0.11165,-0.230175
1692594639823,-0.77400005,-0.16995001,9.543,0.0097624995,0.1326875,-0.1926375
1692594639851,-0.95895004,-0.18405001,9.768001,0.011825,0.1577125,-0.0900625
1692594639880,-0.95595,-0.18405001,9.828,0.014575,0.15125,-0.055275
1692594639914,-0.77895004,-0.08805001,9.835051,0.0105875,0.13255,0.0385
1692594639944,-0.95895004,0.23595001,9.87495,0.0072875,0.1269125,0.0867625
1692594639973,-1.1359501,0.28695002,9.96405,0.0163625,0.1122,0.1573
1692594640002,-0.74805003,0.07395,10.728001,0.0435875,0.1062875,0.143825
1692594640030,-0.61395,0.0019500001,10.897051,0.1181125,0.091575,0.0451
1692594640063,-1.02795,0.054,11.259001,0.1276,0.06545,0.0422125
1692594640092,-1.07805,0.16395001,11.223001,0.0895125,0.0053625,0.132825
1692594640121,-1.23105,0.279,10.80195,0.073699996,0.0039875,0.155375
1692594640149,-0.90795004,-0.34395,11.553,0.0715,0.0210375,0.1335125
1692594640178,-0.95100003,-0.27705002,11.22795,0.0801625,0.059675,0.0308
1692594640207,-1.3630501,-0.162,11.02005,0.0565125,0.0587125,0.0374
1692594640234,-1.27695,-0.20805001,10.61505,-0.0375375,0.0218625,0.10175
1692594640263,-0.77400005,-0.124050006,9.741,-0.0633875,0.0231,0.067375
1692594640292,-1.023,-0.069000006,9.736951,-0.0545875,0.0636625,-0.0820875
1692594640326,-1.84905,0.12105001,8.74995,-0.0385,0.0642125,-0.1706375
1692594640352,-1.1520001,-0.19395001,8.785951,-0.0193875,0.054175,-0.2803625
1692594640381,-0.32895002,-0.55305004,9.093,0.0251625,0.09515,-0.4921125
1692594640412,-0.41505003,-0.282,8.592,-0.001375,0.10835,-0.428725
1692594640442,0.060000002,-0.70095,9.303,-0.0488125,0.0416625,-0.3245
1692594640471,-0.25695002,-0.57405,9.430051,-0.0886875,-0.0463375,-0.2597375
1692594640500,0.055050004,-0.60105,8.7289505,-0.1139875,-0.1903,-0.2660625
1692594640530,-0.83205,-0.141,8.614051,-0.1170125,-0.23567499,-0.3012625
1692594640558,-1.2529501,-0.20295002,9.295951,-0.1101375,-0.21835,-0.3422375
1692594640588,-1.6810501,0.38205,8.20695,-0.0518375,-0.0928125,-0.5207125
1692594640617,-1.1020501,0.081,8.55405,0.00275,0.016224999,-0.6589
1692594640644,-1.84395,0.54495,7.8820505,0.07205,0.1357125,-0.8201875
1692594640674,-0.58500004,-0.22905001,8.66205,0.2600125,0.359975,-1.2386
1692594640707,-0.64005005,-0.22200002,9.093,0.383075,0.4189625,-1.4944875
1692594640737,-0.597,0.076050006,8.809951,0.3289,0.3168,-1.32935
1692594640766,0.32595003,0.033,8.911051,0.23155,0.171325,-1.078825
1692594640795,0.97200006,-0.15495001,8.55405,0.1186625,-0.0836,-0.7524
1692594640824,1.42005,-0.32805002,8.500951,0.099825,-0.21573749,-0.5874
1692594640852,2.2020001,-0.80595005,9.777,0.077,-0.3697375,-0.3898125
1692594640883,1.5300001,-0.81105006,11.977051,-0.0218625,-0.72875,0.0741125
1692594640913,1.3909501,-0.35895002,10.693951,-0.1720125,-1.053525,0.6246625
1692594640941,2.14995,-0.18405001,10.066951,-0.2165625,-1.0814375,0.7448375
1692594640969,1.9750501,-0.40695003,11.125051,-0.18933749,-0.89705,0.594275
1692594640997,1.56105,-0.33195,11.79705,-0.1390125,-0.81675,0.45581248
1692594641029,2.16195,-0.52905005,10.894951,-0.0485375,-0.6876375,0.2893
1692594641060,2.0010002,-0.45405003,10.333051,-0.023924999,-0.591525,0.2431
1692594641088,1.7839501,-0.43995002,10.29195,-0.013612499,-0.5033875,0.2036375
1692594641129,0.666,-0.873,11.344951,-0.0103124995,-0.3669875,0.1711875
1692594641155,0.51495004,-0.64395005,10.869,-0.00935,-0.2706,0.1420375
1692594641189,0.59595,-0.36600003,10.32495,-0.0402875,0.0143,0.060775
1692594641213,0.65595,-0.32805002,10.372951,-0.0584375,0.12815,0.023924999
1692594641245,0.71595,-0.47400004,10.206,-0.061325,0.1969,-0.01815
1692594641336,0.52905005,-0.40395,10.5070505,-0.0295625,0.2281125,-0.2635875
1692594641366,0.32295,-0.20805001,9.741,-0.0303875,0.229625,-0.3359125
1692594641392,0.79305005,-0.71805006,9.70995,-0.0086624995,0.2332,-0.4417875
1692594641438,0.24705002,-0.53595,9.8230505,-0.0026125,0.204325,-0.4123625
1692594641463,0.29205,-0.522,9.61005,-0.0187,0.1705,-0.326425
1692594641489,0.70395005,-0.58095,9.62205,-0.054175,0.142175,-0.17985
1692594641516,0.8880001,-0.483,9.468,-0.0606375,0.1456125,-0.13859999
1692594641545,0.40695003,-0.21300001,9.250951,-0.0515625,0.08305,0.0105875
1692594641573,0.24705002,-0.22695,9.38895,-0.0369875,0.02585,0.093225
1692594641603,0.72795004,-0.615,10.17,-0.0155375,-0.00935,0.143
1692594641632,0.86895007,-0.52905005,9.792001,0.0317625,0.0243375,0.1395625
1692594641661,0.78795004,-0.38295,9.31305,0.0364375,0.035475,0.141625
1692594641690,0.83295006,-0.45000002,9.48795,0.0094875,-0.031075,0.2110625
1692594641720,0.69405,-0.51195,9.705001,0.0022,-0.068475,0.23333749
1692594641749,0.55995005,-0.49800003,9.555,0.0020625,-0.090475,0.2468125
1692594641777,0.33105,-0.31995,9.849001,0.0017875,-0.0917125,0.32381248
1692594641806,0.56805,-0.44700003,10.07205,-4.125E-4,-0.069575,0.341275
1692594641833,0.42900002,-0.29700002,9.772051,0.0017875,0.0012375,0.2283875
1692594641863,0.43605003,-0.30795002,9.64605,0.010725,0.031625,0.1535875
1692594641892,0.59895,-0.47805002,9.901951,0.0334125,0.059125,0.0671
1692594641921,0.52005005,-0.423,9.768001,0.037125,0.059675,0.0265375
1692594641949,0.62295,-0.54495,9.769951,0.0210375,0.041249998,-0.0572
1692594641978,0.66105,-0.624,9.978001,0.0061875,0.0248875,-0.050049998
1692594642005,0.60795003,-0.60300004,9.780001,-0.009075,0.009075,-0.010175
1692594642034,0.62505,-0.47400004,9.58605,-0.038225,-0.0103124995,0.0617375
1692594642061,0.50295,-0.45000002,9.625951,-0.0485375,-0.01485,0.0944625
1692594642090,0.64395005,-0.54795,9.717,-0.0490875,-0.01595,0.162525
1692594642119,0.61605,-0.43305,9.564,-0.039875,-0.011275,0.1606
1692594642147,0.735,-0.39900002,9.8230505,-0.0276375,-0.008525,0.13915
1692594642177,0.75405,-0.36795002,9.682051,-0.0026125,-0.020075,0.100925
1692594642204,0.80700004,-0.36405003,9.69795,0.0086624995,-0.0292875,0.0633875
1692594642234,1.17795,-0.57705003,10.12905,0.0243375,-0.047025,-0.043725
1692594642269,1.18305,-0.43305,9.835051,0.021724999,-0.0804375,-0.0636625
1692594642297,1.2349501,-0.36795002,9.591001,0.0086624995,-0.1144,-0.0474375
1692594642322,1.57095,-0.48105,9.733951,-0.0048125,-0.1533125,-0.0468875
1692594642350,1.506,-0.48105,9.64995,-0.0045375,-0.2145,-0.085525
1692594642378,1.41495,-0.47100002,9.837001,0.0039875,-0.2413125,-0.0570625
1692594642407,1.2019501,-0.54300004,10.29405,0.0103124995,-0.2668875,0.0132
1692594642437,1.14705,-0.43305,10.155001,0.0077,-0.26675,0.1148125
1692594642464,0.93105006,-0.282,9.75105,-6.875E-4,-0.23045,0.1007875
1692594642498,0.78105,-0.19800001,10.339951,-0.009075,-0.12705,0.0262625
1692594642524,0.95295006,-0.39705002,11.343,0.0037125,-0.0732875,0.001925
1692594642551,0.93405,-0.58605003,11.259001,0.051975,0.029424999,-2.75E-4
1692594642582,0.69195,-0.68895006,10.852051,0.065725,0.0682,0.0275
1692594642611,0.44295,-0.88995004,11.38605,0.042625,0.104775,0.1379125
1692594642640,0.58005005,-0.87105006,11.383051,0.0133375,0.1197625,0.186725
1692594642668,1.2859501,-0.94005007,10.76595,-0.052249998,0.17985,0.1769625
1692594642699,1.04205,-0.88500005,10.993051,-0.0807125,0.1903,0.1329625
1692594642727,1.6110001,-0.74895006,11.248951,-0.1034,0.158675,0.0862125
1692594642756,1.7719501,-0.342,9.583051,-0.1233375,0.013612499,0.054449998
1692594642785,1.53495,-0.33195,9.279,-0.11,-0.0633875,0.081675
1692594642821,2.16405,-0.59295005,10.6699505,-0.0473,-0.19167499,0.0935
1692594642846,1.9459502,-0.024,9.118951,0.00165,-0.2657875,-0.013062499
1692594642872,1.26195,0.13305001,8.01105,0.01815,-0.2985125,-0.057475
1692594642900,1.8430501,-0.75405,8.974951,0.0389125,-0.3273875,-0.0955625
1692594642930,2.8990502,-1.39995,10.239,0.0801625,-0.317625,-0.1832875
1692594642958,2.2699502,-0.91200006,8.938951,0.0614625,-0.3004375,-0.184525
1692594642988,1.623,-0.411,8.18805,-0.0738375,-0.3546125,-0.00605
1692594643017,1.3410001,-0.555,8.655001,-0.1172875,-0.3768875,0.081125
1692594643045,0.58905005,-0.043050002,7.623,-0.1123375,-0.3485625,0.09515
1692594643075,0.32595003,-0.48105,7.4790006,-0.043175,-0.1467125,-0.0746625
1692594643103,-0.03195,-1.5439501,9.78195,-0.0028875,-0.0072875,-0.1607375
1692594643144,-0.27600002,-1.4430001,9.77505,0.050049998,0.2814625,-0.07645
1692594643170,-0.06795,-1.04805,8.33205,-0.0917125,0.5226375,0.4024625
1692594643197,-0.53505003,-0.45900002,7.977,-0.17847499,0.5842375,0.6213625
1692594643225,-0.37905002,-0.41400003,8.413051,-0.2206875,0.6037625,0.7005625
1692594643255,-0.95595,-0.20595,9.0379505,-0.152625,0.5963375,0.4830375
1692594643281,-1.3609501,0.26295,8.68095,-0.0669625,0.6081625,0.3229875
1692594643312,-1.3440001,0.10005,9.097051,0.0240625,0.6395125,0.177375
1692594643341,-2.05995,-0.11895001,9.904051,0.1942875,0.7434625,-0.20185
1692594643369,-2.364,-0.46395,10.33695,0.3213375,0.86817497,-0.6073375
1692594643400,-2.4139502,-0.37095,10.038,0.32395,0.9246875,-0.6281
1692594643431,-1.9210501,-0.45000002,9.918,0.2849,0.9667625,-0.5203
1692594643459,-1.9279501,-0.26295,9.865951,0.1651375,0.9486125,-0.24915
1692594643489,-1.47105,-0.34005,9.543,0.062975,0.76353747,0.09955
1692594643518,-0.89895004,-0.55305004,9.97095,0.015125,0.632775,0.380875
1692594643546,-0.74505,-0.76605004,10.704,-0.087175,0.3337125,0.901175
1692594643575,-0.83205,-1.01505,11.40495,-0.1406625,0.165825,1.050775
1692594643606,-0.83205,-1.01505,11.40495,-0.1406625,0.165825,1.050775
1692594643634,-0.93495005,-0.12900001,10.11495,-0.274725,-0.2080375,1.1485375
1692594643664,-0.657,-0.46395,10.390051,-0.271975,-0.253825,1.0781375
1692594643691,-0.48900002,-1.041,11.7619505,-0.1425875,-0.2498375,0.7646375
1692594643721,-0.26205,-0.9979501,12.07995,-0.0815375,-0.2402125,0.623975
1692594643749,-0.57600003,0.006,10.345051,-0.0979,-0.27981248,0.5218125
1692594643781,-0.58695,0.43305,9.50205,-0.117975,-0.302775,0.439725
1692594643809,-0.59505004,0.081,10.749001,0.019524999,-0.248325,-0.0562375
1692594643839,-0.279,-0.22905001,11.022,0.14575,-0.1887875,-0.3246375
1692594643865,-0.27405003,-0.25605002,10.366051,0.2660625,-0.127325,-0.4664
1692594643901,-0.10605001,-0.32805002,9.67905,0.2396625,-0.1351625,-0.4170375
1692594643928,-0.19005,-0.28905,9.295951,0.1890625,-0.1533125,-0.362725
1692594643956,0.027,-0.675,9.30795,0.0979,-0.17765,-0.26345
1692594643984,-0.31905,-0.58905005,9.712951,0.061875,-0.180675,-0.21133749
1692594644014,-0.47505003,-0.28695002,9.424951,-0.0262625,-0.1742125,0.0196625
1692594644046,-0.26205,-0.28905,9.804001,-0.0889625,-0.1373625,0.3592875
1692594644075,-0.26895002,-0.423,9.934951,-0.0782375,-0.1082125,0.42473748
1692594644103,-0.384,-0.36600003,9.871051,-0.05115,-0.082499996,0.40205
1692594644132,-0.10605001,-0.26295,9.813001,-0.016775,-0.05555,0.2787125
1692594644160,0.108,-0.055050004,9.459001,-0.0132,-0.0499125,0.230175
1692594644189,0.097950004,-0.012,9.77505,-0.005225,-0.0534875,0.1797125
1692594644221,-0.10605001,-0.021000002,9.624001,0.044275,-0.1054625,0.0834625
1692594644250,-0.135,-0.049950004,9.45195,0.0968,-0.1519375,0.095699996
1692594644279,0.051000003,-0.21300001,9.66495,0.1095875,-0.1450625,0.1150875
1692594644307,-0.19500001,-0.19395001,9.507001,0.10835,-0.104637496,0.1040875
1692594644335,-0.24795002,-0.27,9.658051,0.0924,-0.088,0.073975
1692594644364,-0.45600003,-0.30795002,9.75105,0.0683375,-0.0699875,0.0389125
1692594644394,-0.609,-0.23205002,9.744,0.01375,-0.0163625,0.031625
1692594644423,-0.40995002,-0.17895001,9.63405,-0.010175,0.0163625,0.084425
1692594644452,-0.42495003,-0.19800001,9.729,-0.034649998,0.0749375,0.2431
1692594644481,-0.48705003,-0.16695,9.825001,-0.0352,0.0886875,0.304975
1692594644513,-0.40995002,-0.13905,9.990001,-0.0224125,0.089237496,0.324225
1692594644542,-0.46305,0.00405,9.684,-0.0103124995,0.08635,0.27775
1692594644571,-0.18300001,0.030000001,9.406051,0.0188375,0.073975,0.13859999
1692594644600,-0.264,0.08505,9.411,0.0400125,0.0625625,0.056375
1692594644630,-0.23805001,-0.01905,9.64605,0.085525,0.021724999,-0.092675
1692594644658,-0.279,-0.14295001,9.835051,0.095837496,-0.001925,-0.106837496
1692594644687,-0.49695003,-0.12705001,9.90705,0.0804375,-0.0270875,-0.031075
1692594644716,-0.45105,-0.34695002,10.038,0.058575,-0.025024999,0.0042625
1692594644750,-0.25500003,-0.38505003,9.607051,0.004125,2.75E-4,0.0627
1692594644774,-0.41295,-0.32505003,9.504001,-0.0339625,0.0044,0.13365
1692594644804,-0.63795,0.27195,10.12005,-0.078375,-0.003575,0.25355
1692594644832,-0.22605,0.78405005,9.531,-0.106425,0.0028875,0.425975
1692594644861,-0.22800002,0.97395,9.624001,-0.0517,0.0312125,0.3342625
1692594644890,-0.23595001,0.57105005,11.24505,0.1672,0.04455,-0.118525
1692594644918,-0.549,0.294,12.172951,0.2695,0.015675,-0.3234
1692594644948,-0.55395,0.009000001,12.06105,0.309375,-0.027775,-0.416625
1692594644977,-0.36495003,-0.06705,11.553,0.2448875,-0.0166375,-0.2602875
1692594645005,0.064950004,-0.33705002,10.584001,0.157575,0.0092124995,-0.031625
1692594645036,-0.22605,-0.76095,11.07705,0.0094875,0.0254375,0.22385
1692594645065,-0.039,-1.2400501,11.75895,-0.0521125,-0.0059125,0.2129875
1692594645094,-0.39105,-0.75795,10.549951,-0.2094125,-0.0891,0.261525
1692594645123,-0.70995003,-0.081,9.243,-0.295625,-0.1057375,0.359975
1692594645152,-0.67800003,0.052050002,8.83695,-0.36313748,-0.07425,0.4866125
1692594645182,-0.63105005,-0.33195,9.922951,-0.3034625,-0.026675,0.411675
1692594645217,-1.047,-0.65595,10.1959505,-0.1012,0.087037496,0.0441375
1692594645242,-0.78900003,-0.79395,9.018001,-0.0496375,0.1249875,-0.0793375
1692594645268,-0.93495005,-0.70605004,8.77005,-0.087175,0.1835625,-0.0554125
1692594645296,-0.81495005,-0.92595005,9.47595,-0.1280125,0.2077625,-0.0273625
1692594645327,-1.6140001,-0.30600002,9.00195,-0.1782,0.2226125,-0.109037496
1692594645355,-0.36,-0.31095,8.70495,-0.1744875,0.2303125,-0.2250875
1692594645388,-0.25695002,0.19305001,7.386,-0.13859999,0.2464,-0.3938
1692594645415,-1.023,0.507,7.491,0.0012375,0.2187625,-0.7678
1692594645445,-1.5660001,0.56700003,8.6310005,0.086625,0.156475,-0.9213875
1692594645473,-1.83,0.68595004,9.28905,0.297825,0.131725,-1.22375
1692594645501,-1.128,0.64995,8.97105,0.4037,0.2112,-1.39315
1692594645529,-0.79305005,0.88005006,7.9489503,0.5561875,0.3553,-1.7921749
1692594645558,0.055050004,0.069000006,8.820001,0.6023875,0.345675,-1.9980125
1692594645587,-0.34095,-0.47805002,10.06005,0.622325,0.270875,-2.1219
1692594645615,0.27795002,-0.36795002,9.258,0.495,-0.0028875,-1.7923125
1692594645646,0.85995007,-0.076050006,7.005,0.136125,-0.253275,-0.8287125
1692594645676,1.1710501,-0.72300005,7.3290005,-0.01595,-0.35227498,-0.3914625
1692594645705,0.63495004,-1.335,7.8430505,-0.108075,-0.4522375,-0.081125
1692594645734,0.73005,-1.182,6.747,-0.2443375,-0.6424,0.32587498
1692594645762,1.7020501,-1.59105,9.99495,-0.3487,-0.684475,0.524975
1692594645791,1.71405,-1.4599501,10.861951,-0.457325,-0.683925,0.7151375
1692594645819,0.89295006,0.08805001,9.804001,-0.5545375,-0.702075,0.89925
1692594645848,1.67805,-0.08295,10.675051,-0.41525,-0.704,0.6307125
1692594645877,1.55595,-0.483,12.02295,-0.2479125,-0.6199875,0.323125
1692594645908,1.5510001,-0.531,13.344001,0.0567875,-0.4450875,-0.21835
1692594645931,2.14695,-0.91605,12.18795,0.1071125,-0.3906375,-0.3235375
1692594645962,1.26195,-0.69105005,11.170051,0.104637496,-0.346775,-0.340725
1692594645992,1.22595,-0.99105006,11.85,0.0353375,-0.312125,-0.2391125
1692594646022,0.82905006,-1.04295,12.178051,-0.009075,-0.29205,-0.1703625
1692594646055,0.91200006,-1.07895,10.866,-0.0858,-0.15895,-0.05115
1692594646082,1.0699501,-1.23,10.65795,-0.116325,-0.0702625,-0.0044
1692594646110,0.81405,-1.2780001,11.014951,-0.14973749,0.0496375,0.0559625
1692594646139,0.666,-1.0170001,10.76595,-0.1596375,0.064075,0.0917125
1692594646167,0.41205,-0.85395,10.26795,-0.1714625,0.0743875,0.1423125
1692594646198,0.20400001,-0.62700003,9.67395,-0.160325,0.095837496,0.14093749
1692594646227,0.22305001,-0.84705,10.09095,-0.1013375,0.1617,0.0609125
1692594646256,0.109950006,-0.91605,10.29195,-0.0671,0.197175,-0.028875
1692594646286,0.14400001,-0.98295003,10.213051,-0.0419375,0.2272875,-0.1255375
1692594646315,0.192,-0.76305,9.4129505,-0.0352,0.2585,-0.2457125
1692594646344,0.36405003,-0.86895007,9.222,-0.0424875,0.26221249,-0.2767875
1692594646371,0.441,-0.98100007,9.385051,-0.0466125,0.2556125,-0.29755
1692594646400,0.44805002,-1.194,9.98805,-0.0468875,0.1959375,-0.2781625
1692594646429,0.53400004,-1.08405,9.727051,-0.06875,0.095425,-0.1189375
1692594646460,0.65400004,-0.97605,9.406051,-0.085525,0.05115,-0.0099
1692594646484,0.74505,-0.99300003,9.47295,-0.0897875,-0.0075625,0.136675
1692594646517,0.64695,-0.89505005,9.59805,-0.0768625,-0.030524999,0.155375
1692594646544,0.61800003,-1.098,10.074,-0.06215,-0.0521125,0.14905
1692594646574,0.61605,-0.933,9.53295,-0.0347875,-0.0779625,0.1265
1692594646603,0.73995006,-0.78705,9.44505,-0.0064625,-0.074525,0.1040875
1692594646631,0.71400005,-0.89295006,9.768001,0.0072875,-0.071225,0.0823625
1692594646662,0.81405,-0.90705,9.703051,0.02035,-0.071775,0.0647625
1692594646691,0.76605004,-0.86595005,9.828,0.0361625,-0.0798875,0.0702625
1692594646720,0.87195003,-0.88095003,9.81795,0.0347875,-0.08415,0.0856625
1692594646749,0.94305,-0.79395,9.531,0.0273625,-0.0955625,0.09735
1692594646779,0.95100003,-0.711,9.523951,0.0286,-0.105325,0.0900625
1692594646809,0.984,-0.72705,9.78705,0.0389125,-0.12485,0.0688875
1692594646840,1.0320001,-0.73905003,9.96195,0.047025,-0.12705,0.0507375
1692594646872,1.07295,-0.72,9.95205,0.05555,-0.1225125,0.018975
1692594646898,0.96000004,-0.62205005,10.225051,0.0627,-0.1057375,-0.0858
1692594646927,0.79695004,-0.42105,10.28205,0.0605,-0.0991375,-0.14093749
1692594646955,0.75705004,-0.35895002,10.6390505,0.0730125,-0.0752125,-0.1637625
1692594646981,0.87195003,-0.33495003,10.929001,0.095699996,-0.0477125,-0.1398375
1692594647011,0.77805007,-0.23895001,10.864051,0.1519375,0.014575,-0.1348875
1692594647040,0.90795004,-0.26805001,10.858951,0.173525,0.0342375,-0.1486375
1692594647068,1.008,-0.20805001,10.6369505,0.1940125,0.048125,-0.157025
1692594647097,1.056,-0.30405003,11.026951,0.1925,0.0427625,-0.1551
1692594647127,1.302,-0.66495,10.845,0.1838375,0.0319,-0.1593625
1692594647157,1.4800501,-1.0170001,10.13595,0.142725,0.003025,-0.2036375
1692594647185,1.2280501,-1.11,10.2300005,0.09845,-0.0268125,-0.1973125
1692594647214,1.72905,-1.536,11.589001,-0.0449625,-0.12773749,-0.050325
1692594647243,1.5270001,-1.2199501,10.962001,-0.1175625,-0.1703625,0.01815
1692594647271,1.2280501,-0.66795003,10.2630005,-0.2127125,-0.19635,0.0812625
1692594647303,1.6710001,-0.59595,9.801001,-0.2270125,-0.1879625,0.0947375
1692594647332,1.91295,-0.57900006,9.61005,-0.1709125,-0.142175,0.0078375
1692594647360,1.626,-0.57705003,9.918,-0.1172875,-0.131725,-0.0759
1692594647392,0.98700005,-0.69405,9.84405,-0.0303875,-0.1683,-0.1782
1692594647419,1.056,-1.0189501,9.5140505,-0.00715,-0.17435,-0.1907125
1692594647447,0.63000005,-1.01205,8.68605,0.0015125,-0.1456125,-0.1857625
1692594647480,0.97200006,-0.86895007,7.6830006,-0.024475,-0.0031625,-0.117699996
1692594647507,1.3620001,-1.1029501,8.34795,-0.0826375,0.1131625,-0.0427625
1692594647531,1.60395,-1.23,8.84895,-0.1067,0.1021625,0.0034375
1692594647558,1.7170501,-0.9979501,8.35305,-0.1225125,0.0408375,0.0787875
1692594647585,1.42005,-0.531,8.03895,-0.1326875,-0.043725,0.168025
1692594647620,1.26195,-0.648,8.121,-0.1247125,-0.1810875,0.2440625
1692594647632,1.197,-0.76305,8.146951,-0.0941875,-0.2167,0.19139999
1692594647667,0.762,-1.3429501,8.917951,-0.0251625,-0.1940125,0.0034375
1692594647701,0.23700002,-1.3039501,8.86995,-0.0286,-0.1436875,-0.0594
1692594647734,0.762,-1.0720501,7.8550506,-0.1186625,0.0177375,-0.03025
1692594647761,0.25395,-0.77295005,6.9480004,-0.1566125,0.111375,0.0438625
1692594647788,0.048,-0.88995004,7.93905,-0.1461625,0.2140875,0.2014375
1692594647815,0.034050003,-1.04595,8.87205,-0.10615,0.2409,0.267025
1692594647843,-0.06795,-0.91200006,9.02295,-0.0562375,0.283525,0.3262875
1692594647873,-0.573,-0.33705002,9.02295,0.01815,0.388575,0.3931125
1692594647903,-0.73395,-0.21000001,9.50205,0.043725,0.4307875,0.3540625
1692594647926,-0.65895003,-0.40905002,9.978001,0.083875,0.483725,0.237875
1692594647958,-1.452,-0.80595005,10.94505,0.20845,0.625625,-0.18095
1692594647989,-1.1910001,-1.10595,10.97595,0.257675,0.7022125,-0.403975
1692594648016,-1.53495,-0.88500005,10.57695,0.22275,0.707025,-0.2270125
1692594648044,-1.38495,-0.91605,10.984051,0.160325,0.692725,0.1060125
1692594648071,-1.07595,-0.85695004,10.9789505,0.0309375,0.6092625,0.7286125
1692594648099,-0.26205,-0.90195006,11.118001,-0.01155,0.549175,0.88825
1692594648129,-0.27405003,-0.69600004,11.72595,-0.0633875,0.3554375,1.107975
1692594648158,-0.537,-0.246,11.316001,-0.0727375,0.2096875,1.163525
1692594648189,-0.23805001,-0.19095,11.199,-0.0202125,-0.0496375,0.9953625
1692594648211,-0.123,-0.25305,11.271001,-0.0202125,-0.0496375,0.9953625
1692594648243,-0.094050005,-0.51705,11.701951,0.107525,-0.1373625,0.6488625
1692594648271,-0.29805002,-0.33,10.984051,0.1824625,-0.1709125,0.302775
1692594648298,-0.19305001,-0.124050006,10.179001,0.1835625,-0.17875,0.16733749
1692594648327,0.024,-0.12705001,9.8539505,0.1731125,-0.174625,0.0881375
1692594648356,0.17505,-0.29895002,10.12005,0.1617,-0.1467125,0.095837496
1692594648386,0.031050002,-0.37995002,10.1629505,0.1599125,-0.14245,0.1511125
1692594648421,-0.087000005,-0.40395,10.054951,0.1291125,-0.1596375,0.2861375
1692594648448,0.15795001,-0.29895002,9.592951,0.071225,-0.1552375,0.28861248
1692594648475,0.25905,-0.15495001,9.3490505,0.0452375,-0.1425875,0.2402125
1692594648505,0.29505002,0.08295,8.856,0.0273625,-0.134475,0.2017125
1692594648533,-0.01305,0.054,8.99205,0.043725,-0.14465,0.1243
1692594648562,0.12195001,-0.16695,9.351001,0.078925,-0.148775,0.04235
1692594648590,0.18195,-0.33705002,9.591001,0.1337875,-0.1351625,0.048125
1692594648618,0.21105,-0.23400001,9.40095,0.12815,-0.12375,0.20625
1692594648647,0.33795002,-0.08595,9.48795,0.0658625,-0.1087625,0.4483875
1692594648675,0.273,-0.09105001,9.625951,0.0378125,-0.105875,0.41415
1692594648703,0.273,-0.00705,9.67905,0.026124999,-0.1040875,0.31845
1692594648732,0.15795001,0.15495001,9.42105,0.041525,-0.099825,0.17875
1692594648761,-0.063,0.27195,9.31305,0.0578875,-0.094325,0.1639
1692594648788,-0.31500003,0.32205,9.375,0.078099996,-0.08195,0.1441
1692594648817,0.010050001,0.11895001,9.49695,0.125675,-0.0231,-0.0037125
1692594648845,0.16800001,0.08295,9.765,0.1450625,0.0176,-0.1023
1692594648873,0.21300001,0.14295001,10.081051,0.1475375,0.0625625,-0.1931875
1692594648903,0.07005,0.39405003,10.069051,0.1318625,0.0518375,-0.1782
1692594648932,-0.058050003,0.71295005,9.78195,0.1032625,0.0097624995,-0.117975
1692594648960,0.29700002,0.34905002,10.737,0.108075,0.00165,-0.11385
1692594648988,0.62505,-0.58395004,12.54405,0.1607375,0.0023375,-0.2415875
1692594649017,-0.492,-0.531,12.19005,0.154,-0.015262499,-0.2715625
1692594649049,-0.46500003,-0.38295,11.898001,-0.0138875,-0.0562375,0.0297
1692594649072,-0.33600003,-0.44505003,12.595051,-0.1060125,-0.0204875,0.24447499
1692594649105,-0.40095,0.010950001,11.637,-0.1815,0.120725,0.42845
1692594649133,-0.33900002,0.10005,11.206051,-0.17613749,0.1590875,0.3865125
1692594649161,-0.59205,0.021000002,11.247001,-0.1480875,0.168575,0.2767875
1692594649192,-0.51795,-0.22695,11.460001,-0.104637496,0.166925,0.138875
1692594649221,-0.42705002,0.069000006,10.201051,-0.0312125,0.1645875,0.001375
1692594649250,-0.49905002,0.37695003,9.009001,-0.0121,0.1621125,-0.034375
1692594649277,-0.69495004,0.41295,8.620951,0.0045375,0.1568875,-0.1694
1692594649309,-0.72405005,0.0019500001,9.238951,0.0400125,0.1522125,-0.38115
1692594649338,-0.80100006,-0.22905001,9.1050005,0.127325,0.16225,-0.762575
1692594649368,-0.609,-0.38295,8.55405,0.102575,0.1819125,-0.8017625
1692594649396,-0.55200005,-0.57195,8.533051,0.0449625,0.1830125,-0.6986375
1692594649423,-0.43695003,-0.27,8.118,-0.0198,0.177375,-0.5212625
1692594649453,-0.15705001,0.19095,6.8950505,-0.133925,0.139975,-0.060775
1692594649491,-0.049050003,-0.39900002,8.31705,-0.1302125,0.0803,0.07755
1692594649518,-0.079950005,-0.34005,7.932,-0.0831875,0.0408375,0.0119624995
1692594649547,-0.11100001,-0.22500001,7.6009502,-0.048675,-0.077825,-0.0699875
1692594649575,-0.04695,-0.0019500001,7.5030003,-0.07095,-0.1313125,-0.07425
1692594649609,0.33795002,-0.165,8.214001,-0.0859375,-0.163075,-0.102025
1692594649634,-0.15900001,-0.08595,8.31705,-0.0405625,-0.1780625,-0.2904
1692594649670,-0.846,0.25800002,8.51805,0.00715,-0.171325,-0.4767125
1692594649703,-0.33900002,0.31500003,9.17205,0.023375,-0.1370875,-0.5564625
1692594649727,-0.37905002,0.43305,9.18795,0.055,-0.067925,-0.6791125
1692594649756,-0.21195,0.37695003,9.00405,0.164725,0.0661375,-0.9978375
1692594649785,-0.20895001,0.21705002,9.44505,0.21725,0.0757625,-1.0973876
1692594649815,0.12495001,0.17205001,8.679001,0.2646875,0.0308,-1.1286
1692594649847,0.61305004,-0.27705002,8.889001,0.212575,-0.032725,-1.0451375
1692594649875,0.22800002,-0.34395,9.765,0.156475,-0.082225,-0.942975
1692594649902,0.74505,-0.46395,10.24905,0.0826375,-0.141075,-0.777975
1692594649931,0.96300006,-0.31095,10.387951,-0.0834625,-0.2473625,-0.3876125
1692594649960,0.55095005,-0.055050004,10.708051,-0.1425875,-0.295075,-0.256025
1692594649990,0.35205,-0.19800001,12.331051,-0.171325,-0.33673748,-0.1909875
1692594650018,0.65595,-0.59295005,13.078051,-0.1447875,-0.337975,-0.1931875
1692594650047,0.83595,-0.22200002,11.53905,-0.106425,-0.2454375,-0.1871375
1692594650074,1.1520001,-0.43800002,11.623051,-0.106425,-0.2454375,-0.1871375
1692594650104,0.99405,-0.73200005,11.962951,-0.1192125,-0.198825,-0.135025
1692594650134,0.53400004,-0.72,10.845,-0.1252625,-0.2033625,-0.1392875
1692594650163,0.50295,-0.85905004,9.784051,-0.1348875,-0.2008875,-0.1538625
1692594650191,0.546,-0.864,9.969001,-0.17613749,-0.1511125,-0.1038125
1692594650232,0.702,-1.04805,10.62195,-0.2074875,-0.0749375,0.026675
