@ HyperIMU - ianovir
@ Date:Mon Aug 21 08:23:07 GMT+03:00 2023, Sampling Rate:25ms

timestamp,bma4xy_accelerometer.x,bma4xy_accelerometer.y,bma4xy_accelerometer.z,oem_pseudo_gyro.x,oem_pseudo_gyro.y,oem_pseudo_gyro.z
1692595387241,-0.11595,0.058950003,9.897,-0.0099,-0.045375,-0.038225
1692595387277,-0.09195001,0.061950002,9.80595,0.01595,-0.0504625,-0.133925
1692595387304,-0.97800004,1.31805,9.021001,0.0193875,-0.0529375,-0.1467125
1692595387346,-0.291,0.16695,9.97095,0.054175,0.0031625,-0.08195
1692595387367,-0.17805001,0.126,10.08405,0.054175,0.0031625,-0.08195
1692595387394,-0.29295,0.19800001,10.065001,0.1340625,0.12155,-0.328075
1692595387421,-0.43695003,0.291,10.033051,0.1243,0.1208625,-0.32615
1692595387444,-0.41295,0.21495001,9.942,0.048125,0.055,-0.12773749
1692595387473,-0.16905001,0.13095,9.68595,0.0284625,0.0433125,-0.083325
1692595387499,-0.11805001,0.016050002,9.74895,0.022,0.042625,-0.0757625
1692595387525,0.012,-0.043050002,9.81105,0.0034375,0.0169125,-0.0158125
1692595387556,-0.034950003,0.045,9.660001,-0.022275,-0.011275,0.0708125
1692595387582,-0.16395001,0.17205001,9.49995,-0.04895,-0.0372625,0.1637625
1692595387609,0.16095,-0.18195,10.038,-0.0715,-0.0658625,0.264825
1692595387637,0.18,0.018000001,9.768001,-0.0705375,-0.0732875,0.2941125
1692595387665,0.12195001,0.052050002,9.765,-0.077,-0.0840125,0.351175
1692595387693,0.14595,0.03795,9.67905,-0.1034,-0.122237496,0.4835875
1692595387721,0.00795,0.11400001,9.61005,-0.0961125,-0.1329625,0.4857875
1692595387751,-0.21195,0.294,9.744,-0.050875,-0.1167375,0.3818375
1692595387786,-0.09,0.112050004,9.934951,-0.0037125,-0.069025,0.202675
1692595387815,-0.17595,0.124050006,9.82005,0.020075,-0.036575,0.097625
1692595387838,-0.12105001,0.09705,9.885,0.0353375,-0.0086624995,0.014575
1692595387867,-0.07305,0.057000004,9.933001,0.0328625,0.01485,-0.1183875
1692595387895,0.012,0.052050002,9.61905,0.0254375,0.0158125,-0.21505
1692595387923,0.034050003,-0.0019500001,9.592951,0.007425,0.0017875,-0.33385
1692595387951,-0.05595,0.03795,9.571051,-0.00275,-0.0105875,-0.2847625
1692595387979,-0.07305,-0.01905,9.79905,-0.0122375,-0.0210375,-0.16499999
1692595388006,-0.10605001,0.033,9.861,-0.0248875,-0.024475,0.0710875
1692595388034,-0.04695,-0.033,9.969001,-0.0224125,-0.018975,0.084425
1692595388063,-0.025050001,-0.033,10.11495,-0.0193875,-0.01045,0.0422125
1692595388093,-0.03195,0.0019500001,9.97395,-0.02585,6.875E-4,-0.0528
1692595388119,-0.18795002,0.009000001,9.969001,-0.0303875,-0.0022,-0.07205
1692595388144,-0.20505,0.021000002,9.63405,-0.0328625,-0.00825,-0.060225
1692595388172,-0.15405001,0.094950005,9.736951,-0.02695,-0.0056375,-0.0471625
1692595388202,0.08400001,-0.045,9.97605,-0.018975,0.0066,-0.027224999
1692595388243,-0.171,0.040050004,9.859051,-0.00385,0.03575,-0.01595
1692595388296,-0.049050003,0.094950005,9.745951,-0.0050875,0.0086624995,-0.0741125
1692595388350,-0.049050003,0.094950005,9.745951,-0.0050875,0.0086624995,-0.0741125
1692595388384,-0.049050003,0.094950005,9.745951,-0.0050875,0.0086624995,-0.0741125
1692595388404,-0.049050003,0.094950005,9.745951,-0.0050875,0.0086624995,-0.0741125
1692595388430,-0.09900001,0.0139500005,9.98295,0.0078375,-0.003025,-0.109175
1692595388486,-0.09900001,0.0139500005,9.98295,0.0078375,-0.003025,-0.109175
1692595388561,-0.079950005,0.07095,9.85095,0.00825,0.014025,-0.0639375
1692595388641,-0.14205001,0.07395,9.84,0.011,-0.0078375,0.1491875
1692595388718,-0.087000005,0.126,9.79395,0.0053625,0.0048125,0.087037496
1692595388807,-0.079950005,0.17205001,9.772051,0.0125124995,-0.004675,-0.001375
1692595388870,0.055050004,0.093,9.82995,0.0235125,-0.01595,-0.03575
1692595388913,-0.078,0.20805001,9.784051,0.0089375,-0.0358875,0.2220625
1692595388950,-0.351,0.34905002,9.910951,0.003025,-0.0385,0.152625
1692595388988,-0.078,0.20295002,10.057051,0.0264,0.01045,0.034649998
1692595389028,-0.087000005,0.19605,9.868051,0.0460625,0.052249998,-0.032175
1692595389061,-0.28095,0.28395,9.65295,0.043175,0.0484,-0.0457875
1692595389070,-0.351,0.34395,9.504001,0.0358875,0.0367125,-0.0675125
1692595389100,-0.36705002,0.24300002,9.637951,0.030524999,0.0287375,-0.1109625
1692595389175,-0.513,0.186,9.804001,0.0334125,0.086625,-0.0930875
1692595389184,-0.77400005,0.30795002,9.768001,0.018975,0.095699996,0.016775
1692595389204,-0.98700005,0.47100002,9.397051,0.0059125,0.104775,0.0809875
1692595389229,-1.26195,0.64605004,9.262951,0.005775,0.1274625,0.0713625
1692595389251,-1.3630501,0.63105005,9.66705,0.025024999,0.1725625,0.0111375
1692595389275,-1.143,0.44700003,10.017,0.0614625,0.2355375,-0.066825
1692595389301,-0.95595,0.30105,10.078951,0.1043625,0.2998875,-0.1535875
1692595389331,-0.96105003,0.29595003,9.531,0.143825,0.356125,-0.2638625
1692595389356,-1.0710001,0.44895002,9.214951,0.1214125,0.3331625,-0.205975
1692595389384,-1.2409501,0.72195005,9.366,0.0570625,0.2534125,0.00275
1692595389411,-1.1190001,0.55695003,9.727051,0.0523875,0.2277,0.007975
1692595389439,-1.0690501,0.294,9.77505,0.0716375,0.2145,-0.0796125
1692595389467,-1.284,0.32700002,10.27995,0.10175,0.19415,-0.22
1692595389495,-1.34895,0.58305,9.916051,0.0680625,0.181775,-0.12773749
1692595389523,-1.2220501,0.42795002,9.64995,0.0122375,0.1775125,0.030524999
1692595389551,-0.98505,-0.23400001,9.727051,-0.0407,0.185075,0.170225
1692595389580,-1.1550001,0.102000006,9.418051,-0.0334125,0.172975,0.117975
1692595389604,-1.7989501,0.62895006,8.51805,-0.071775,0.10725,0.0875875
1692595389637,-1.76505,0.88305,8.02305,-0.094875,0.087037496,0.086899996
1692595389668,-1.2529501,0.40605003,7.3290005,0.0308,0.154275,-0.3342625
1692595389695,-0.93195003,0.32700002,7.1989503,0.1529,0.2107875,-0.6876375
1692595389723,-0.84105,0.45405003,6.8950505,0.2726625,0.2187625,-1.0657625
1692595389750,-1.04205,0.55695003,6.5989504,0.253275,0.161975,-1.0401875
1692595389777,-0.64500004,0.90405005,6.675,0.21779999,0.095425,-0.92785
1692595389804,0.52905005,0.23400001,8.439,0.1984125,0.010175,-0.72421247
1692595389831,1.4440501,-0.68205005,9.87495,0.21065,-0.0446875,-0.6810375
1692595389856,1.0339501,0.07095,7.5370502,0.16665,-0.1705,-0.4769875
1692595389887,0.99405,0.98100007,6.8430004,-0.1698125,-0.6111875,0.597575
1692595389913,1.48905,1.524,6.69705,-0.2739,-0.791725,0.891825
1692595389942,1.212,2.1060002,7.3879504,-0.060775,-0.94682497,0.4048
1692595389969,0.85005003,1.3590001,8.431951,0.15565,-0.993575,0.015675
1692595389999,1.008,1.3759501,10.909051,0.35433748,-1.0218999,-0.267025
1692595390027,1.9699501,2.46195,9.33195,0.4862,-0.990825,-0.4211625
1692595390055,2.7820501,1.194,9.16005,0.490875,-0.75322497,-0.3887125
1692595390081,2.736,0.564,11.875951,0.44288749,-0.67265,-0.30195
1692595390109,1.76205,1.1719501,10.143001,0.3416875,-0.7162375,-0.0331375
1692595390140,1.95105,1.16505,9.66195,0.2409,-0.7467625,0.19195
1692595390161,2.394,0.99705005,10.825951,0.1293875,-0.72214997,0.3774375
1692595390190,2.607,0.58095,9.700951,0.019524999,-0.5740625,0.3810125
1692595390217,2.217,0.43005002,10.629001,0.0,-0.5152125,0.3128125
1692595390246,2.6550002,-0.57195,12.915001,-0.0836,-0.428175,0.2949375
1692595390275,0.522,-0.32295,13.188001,-0.1590875,-0.370975,0.3221625
1692595390302,-0.98505,1.2610501,12.115951,-0.2591875,-0.2836625,0.367125
1692595390330,0.57495004,1.4620501,11.845051,-0.424875,0.061049998,0.3394875
1692595390359,0.71595,-1.04595,10.597951,-0.4038375,0.2882,0.09405
1692595390387,0.453,-1.074,11.182051,-0.254375,0.52854997,-0.54285
1692595390416,-0.78405005,-0.95505005,13.935,-0.2668875,0.5104,-0.5427125
1692595390440,-1.3560001,-0.31305,11.830951,-0.3504875,0.4739625,-0.302225
1692595390471,-1.30305,0.78900003,9.246,-0.493625,0.542575,0.1903
1692595390497,-0.48900002,0.79200006,8.7960005,-0.4720375,0.65065,0.2101
1692595390525,0.76905006,-0.22200002,10.33005,-0.2319625,0.78485,-0.12925
1692595390553,0.02205,-0.60300004,10.94295,-0.0878625,0.72765,-0.2847625
1692595390581,-0.50595003,0.49500003,10.39995,-0.00165,0.5845125,-0.2893
1692595390610,1.26195,0.354,9.837001,-0.0114124995,0.2919125,-0.01155
1692595390639,2.1000001,0.102000006,9.67395,-0.014575,0.2327875,0.0512875
1692595390664,0.70905006,0.45195,10.6369505,0.048675,0.0176,0.0686125
1692595390693,-0.70500004,1.4569501,9.430051,0.0636625,-0.18315,0.1310375
1692595390718,-0.46095002,2.01705,9.00195,0.0710875,-0.3210625,0.1720125
1692595390747,0.097950004,0.507,11.47395,0.1918125,-0.1885125,-0.1274625
1692595390775,-0.50595003,-0.37995002,11.6629505,0.2985125,-0.0429,-0.4103
1692595390804,-1.09305,-0.60105,12.505951,0.305525,0.122375,-0.4593875
1692595390830,0.14895001,0.13800001,10.6369505,0.15015,0.1865875,-0.143
1692595390858,0.93405,-0.18405001,11.704051,-0.0312125,0.25575,0.1986875
1692595390887,0.19905001,0.46800002,12.805051,-0.159225,0.288475,0.4189625
1692595390915,0.27105,1.7179501,7.6470003,-0.1956625,0.136675,0.47341248
1692595390942,1.6570501,1.8930001,6.6940503,-0.032175,-0.0213125,0.2154625
1692595390971,2.2699502,1.55295,7.6639504,0.127875,-0.0658625,0.0378125
1692595390995,1.7479501,1.50495,10.873951,0.3056625,-0.1596375,-0.098037496
1692595391026,0.31395,1.45905,11.163,0.513975,-0.4965125,-0.1436875
1692595391052,-0.09195001,1.3090501,9.15705,0.5066875,-0.5819,-0.111237496
1692595391080,-0.030000001,1.11,9.208051,0.451275,-0.5212625,-0.1145375
1692595391108,0.19695,0.73200005,9.282001,0.3075875,-0.16665,-0.2861375
1692595391137,0.47205,0.72,10.053,0.2396625,-0.020624999,-0.38073748
1692595391166,1.24695,0.46095002,8.901,0.0878625,0.1104125,-0.3290375
1692595391197,0.75000006,0.40905002,9.54705,0.012925,0.10725,-0.1775125
1692595391229,0.39105,0.73200005,9.966001,-0.0930875,-0.0075625,0.1852125
1692595391257,0.49095002,0.46800002,9.4470005,-0.1230625,-0.0532125,0.307175
1692595391284,0.546,0.19995001,10.10505,-0.13653749,-0.052249998,0.355575
1692595391315,0.59595,-0.060000002,10.9810505,-0.1375,0.013612499,0.3430625
1692595391341,0.36405003,0.078,10.80195,-0.1560625,0.0358875,0.3570875
1692595391370,0.24195,0.39900002,9.69795,-0.2402125,0.058849998,0.37895
1692595391398,0.3,0.51600003,9.05895,-0.2674375,0.0691625,0.307725
1692595391425,0.36405003,0.56895,8.712001,-0.2212375,0.089375,0.0446875
1692595391454,0.45795003,0.35595003,9.10005,-0.1617,0.088275,-0.044275
1692595391480,0.47895002,0.25500003,9.406051,-0.1040875,0.076175,-0.07865
1692595391509,0.53400004,0.006,9.35805,-0.05115,0.0367125,-0.08415
1692595391537,0.54105,-0.031050002,9.904051,-0.0595375,0.018424999,-0.092675
1692595391568,0.77595,-0.39000002,10.783051,-0.116325,-0.006875,-0.07645
1692595391597,0.726,-0.057000004,10.375951,-0.15619999,-0.01705,-0.0188375
1692595391624,0.73005,0.021000002,10.194,-0.1992375,-0.0297,0.0682
1692595391653,0.59895,-0.0019500001,10.648951,-0.242275,-0.0589875,0.198275
1692595391682,0.60795003,-0.021000002,11.091001,-0.224675,-0.06655,0.1656875
1692595391713,1.0030501,0.19995001,10.186951,-0.16335,-0.055,-0.0463375
1692595391741,1.3290001,0.77205,9.078,-0.1384625,-0.042625,-0.1384625
1692595391766,1.6210501,0.73905003,8.953951,-0.0677875,-0.06985,-0.2322375
1692595391794,1.5010501,0.57600003,9.741,4.125E-4,-0.129525,-0.2487375
1692595391824,1.302,0.94500005,10.515,0.1447875,-0.287375,-0.2272875
1692595391850,1.6879501,0.74100006,10.543051,0.1794375,-0.3323375,-0.21065
1692595391877,2.22405,0.68895006,10.12005,0.192775,-0.3392125,-0.21395
1692595391909,1.7910001,0.68895006,8.83905,0.1962125,-0.3334375,-0.2124375
1692595391939,1.12995,0.69600004,9.636001,0.18645,-0.3570875,-0.1662375
1692595391965,0.984,0.67695004,10.081051,0.172975,-0.3818375,-0.1109625
1692595391993,1.09395,0.54495,8.937,0.147125,-0.3108875,-0.0576125
1692595392021,1.3770001,0.39900002,8.700001,0.13145,-0.205425,-0.0455125
1692595392047,1.8220501,0.25995,9.45195,0.088,-0.0276375,-0.002475
1692595392078,0.48900002,0.61905,11.155951,0.0595375,-0.015675,0.0418
1692595392106,0.42195,0.56205004,11.191951,-0.004125,-0.0407,0.1148125
1692595392136,1.7190001,0.37005,11.955001,-0.0253,0.0213125,0.0814
1692595392159,2.86995,0.066,11.37405,-0.0352,0.1291125,0.0100375
1692595392186,2.1349502,-0.109950006,10.110001,-0.0532125,0.187825,-0.0064625
1692595392213,0.90495,0.768,9.63405,-0.069575,0.0727375,0.1254
1692595392241,-2.12895,2.661,13.39605,-0.0807125,-0.067375,0.2985125
1692595392268,0.53895,1.16295,11.0119505,-0.0306625,-0.104499996,0.383625
1692595392296,2.0970001,0.19095,9.75105,0.039325,0.029975,0.2017125
1692595392324,0.71400005,0.045,8.892,0.131725,0.2355375,-0.194975
1692595392352,2.9520001,1.74405,8.470051,0.106425,0.186725,-0.18095
1692595392379,2.3719501,0.08295,8.274,0.0666875,0.062975,-0.05995
1692595392408,1.79595,-0.66495,9.868051,0.0793375,-0.2321,0.0507375
1692595392445,0.74505,-0.37605003,10.762951,-0.011825,-0.3892625,0.2608375
1692595392468,-0.42705002,0.45600003,9.624001,-0.1351625,-0.32835,0.4882625
1692595392495,1.2229501,0.13605,9.892051,-0.2332,-0.1786125,0.636625
1692595392522,2.40405,-1.041,8.736,-0.246675,0.1661,0.379775
1692595392553,2.181,-0.13905,9.753,-0.21835,0.220825,0.173525
1692595392581,1.3579501,1.2390001,8.03205,-0.21945,0.15015,0.1309
1692595392610,2.74305,0.162,8.740951,-0.2014375,-0.1351625,0.2498375
1692595392639,1.2790501,-0.20805001,9.957001,-0.091299996,-0.2013,0.1205875
1692595392669,0.67995006,0.78405005,10.65795,0.1309,-0.1634875,-0.234575
1692595392696,0.50100005,0.45600003,10.567051,0.126225,-0.099275,-0.2597375
1692595392723,0.55095005,0.61695004,8.04405,0.0782375,-0.0031625,-0.26427498
1692595392748,0.57195,0.43305,8.260051,0.0430375,0.2222,-0.4142875
1692595392780,0.15405001,-0.25305,7.14405,0.056649998,0.286825,-0.4629625
1692595392808,-0.3,-0.54105,9.468,0.0521125,0.3207875,-0.4093375
1692595392838,0.031050002,-0.14295001,7.7400002,-0.0039875,0.34347498,-0.2937
1692595392866,0.076950006,-0.39195,7.24695,-0.1508375,0.4104375,0.0620125
1692595392894,0.055050004,-0.86100006,8.48205,-0.183425,0.42295,0.171325
1692595392923,-0.38895002,-1.10595,8.7289505,-0.20295,0.4153875,0.2220625
1692595392951,-1.0180501,-0.84195006,8.7310505,-0.3026375,0.3774375,0.378125
1692595392980,-1.38495,-0.76095,8.928,-0.3707,0.3856875,0.481525
1692595393008,-1.677,-0.93600005,9.507001,-0.4373875,0.5284125,0.5522
1692595393035,-2.56905,-0.99105006,9.658051,-0.42061248,0.6334625,0.5027
1692595393063,-2.91195,-1.1700001,10.167001,-0.38445,0.72985,0.390225
1692595393093,-2.28705,-1.33095,11.998951,-0.3196875,0.92716247,0.101475
1692595393122,-1.9350001,-1.16805,12.54195,-0.3091,1.0087,0.0650375
1692595393154,-1.4970001,-1.3039501,10.58205,-0.3064875,0.9290875,0.236775
1692595393184,-1.26495,-0.87105006,10.354051,-0.2783,0.5886375,0.443025
1692595393213,-0.65205,-0.77295005,10.762951,-0.2723875,0.4087875,0.5861625
1692595393242,-1.4130001,-0.82800007,10.641001,-0.260425,0.2501125,0.7178875
1692595393270,-1.7029501,-1.0860001,10.498051,-0.22659999,0.1122,0.78045
1692595393300,-1.4280001,-1.3429501,11.173051,-0.1299375,-0.0639375,0.7195375
1692595393329,-1.011,-1.35,11.415001,-0.132275,-0.0361625,0.720225
1692595393359,-1.9279501,-1.1149501,11.962951,-0.16665,-0.0199375,0.7673875
1692595393387,-1.08105,-1.27995,11.470051,-0.201025,-0.0787875,0.8375125
1692595393414,-0.86505,-1.74195,11.59395,-0.190575,-0.11275,0.8498875
1692595393443,-1.16205,-1.8430501,9.19305,-0.157575,-0.1307625,0.7613375
1692595393472,-0.91995007,-0.56205004,9.63405,-0.15895,-0.1315875,0.6705875
1692595393502,0.18495001,-0.73905003,9.8539505,-0.1533125,-0.1238875,0.53625
1692595393532,-0.09705,-0.80895007,10.28205,-0.0677875,-0.086625,0.1403875
1692595393558,-0.31500003,-1.6350001,8.52495,-0.0308,-0.099275,-0.010175
1692595393589,-0.85305005,-0.65805006,9.47295,-0.069025,-0.2030875,-0.0089375
1692595393619,-0.97800004,-0.61995006,7.6210504,-0.10285,-0.2371875,0.0669625
1692595393648,-0.75495005,-0.90000004,9.65295,-0.0528,-0.1821875,0.0798875
1692595393676,-0.42195,-0.82605004,9.613951,0.011825,-0.1205875,0.0187
1692595393703,-0.76500005,-1.6470001,9.62895,0.080025,-0.0639375,-0.0050875
1692595393734,0.112950005,-1.43805,10.617001,0.067925,-0.0900625,0.0757625
1692595393764,-0.31005,-1.065,10.536,0.018975,-0.13365,0.202125
1692595393792,-1.107,-0.73005,10.504951,-0.1065625,-0.208175,0.3685
1692595393821,-0.91095006,-0.60795003,9.918,-0.057475,-0.191125,0.2190375
1692595393849,-0.63105005,-0.69105005,9.96405,0.0176,-0.12265,0.1109625
1692595393879,-0.528,-0.82305,9.70995,0.0886875,-0.0422125,0.015675
1692595393907,-0.762,-0.735,9.80805,0.1606,0.0229625,-0.128975
1692595393935,-0.85800004,-0.63405,8.99505,0.1606,0.0097624995,-0.1557875
1692595393965,-0.97005004,-0.44505003,8.488951,0.1478125,-0.0015125,-0.15015
1692595393995,-1.131,-0.354,8.229,0.12705,0.03135,-0.132
1692595394024,-0.92700005,-0.60795003,8.190001,0.1329625,0.0721875,-0.176
1692595394053,-1.3099501,-0.591,9.1380005,0.1568875,0.1563375,-0.2985125
1692595394081,-1.3939501,-0.49305,9.258,0.15413749,0.1793,-0.300575
1692595394109,-1.53795,-0.47805002,8.722051,0.132825,0.2074875,-0.27719998
1692595394139,-1.34595,-0.69105005,10.38,0.1280125,0.2277,-0.2594625
1692595394168,-1.77495,-0.41895002,11.368951,0.102025,0.24419999,-0.04895
1692595394197,-2.1360002,-0.20295002,11.71605,0.0873125,0.236225,0.065175
1692595394226,-1.1740501,-0.462,12.417001,0.092675,0.2303125,0.0796125
1692595394254,-0.91095006,-0.80595005,12.717001,0.16733749,0.228525,-0.186175
1692595394285,-1.43505,-0.32295,11.635051,0.17325,0.10505,-0.3287625
1692595394315,-1.4059501,-0.25605002,10.699051,0.129525,0.0171875,-0.2558875
1692595394344,-1.35105,-0.65595,10.88805,0.0911625,-0.0345125,-0.153725
1692595394372,-0.88905007,-1.2060001,11.139001,0.0672375,-0.029975,0.0191125
1692595394401,-0.609,-1.31595,10.929001,-0.033,-0.0427625,0.3144625
1692595394431,-0.76905006,-1.09605,10.717951,-0.1324125,-0.0944625,0.52965
1692595394459,-1.1400001,-0.50505,10.036051,-0.2281125,-0.1606,0.7110125
1692595394489,-0.81000006,-0.46905002,9.186001,-0.2726625,-0.2167,0.65285
1692595394516,-0.67095006,-0.73695004,8.911051,-0.20253749,-0.1835625,0.402325
1692595394544,-0.59505004,-0.93795,8.88405,-0.036025,-0.095837496,-0.0834625
1692595394573,-0.79095006,-0.68700004,9.184051,-0.020624999,-0.0853875,-0.1260875
1692595394603,-0.47505003,-0.75405,9.174001,-0.0726,-0.1126125,0.014162499
1692595394633,-0.35505003,-0.72495,8.887051,-0.0757625,-0.12375,0.0132
1692595394661,-0.22395001,-0.73695004,8.829,-0.06325,-0.1337875,-0.0185625
1692595394690,-0.55905,-0.77505004,8.941951,-0.0474375,-0.16499999,-0.060775
1692595394720,-0.43005002,-0.71805006,8.925,-0.0400125,-0.17215,-0.1376375
1692595394749,-0.18300001,-0.31605002,8.016001,-0.015262499,-0.140525,-0.3436125
1692595394778,-0.34095,-0.17895001,8.01105,8.25E-4,-0.117975,-0.3988875
1692595394807,-0.10395,-0.51705,8.580001,0.073699996,-0.0994125,-0.4752
1692595394834,0.55095005,-0.96000004,8.905951,0.121825,-0.0939125,-0.5086125
1692595394865,0.81705004,-0.9480001,9.897,0.128425,-0.14355,-0.44275
1692595394896,0.41205,-0.60795003,9.65505,0.0726,-0.2366375,-0.341825
1692595394925,-0.018000001,-0.411,8.523001,0.0083875,-0.3471875,-0.2451625
1692595394953,-0.966,-0.105000004,8.19495,-0.0314875,-0.42955,-0.2055625
1692595394987,-1.3300501,-0.10695001,8.566051,0.0413875,-0.2264625,-0.3881625
1692595395013,-1.60695,-0.23205002,8.652,0.0933625,-0.0375375,-0.53625
1692595395040,-1.8390001,-0.33495003,8.557051,0.145475,0.1736625,-0.692725
1692595395072,-1.5190501,-0.342,8.202001,0.1986875,0.5159,-0.8771125
1692595395102,-0.006,-0.67200005,9.49995,0.16115,0.659175,-0.7249
1692595395132,0.058050003,-0.86100006,9.538051,0.121,0.623425,-0.5413375
1692595395159,-0.11595,-0.71505004,9.16395,0.0627,0.4879875,-0.3339875
1692595395185,0.14895001,-0.49500003,9.607051,-0.0705375,0.0581625,-0.0328625
1692595395213,0.34695002,-0.27,8.997001,-0.109037496,-0.1188,0.034649998
1692595395242,0.83295006,-0.531,9.258,-0.1131625,-0.23925,0.0551375
1692595395273,1.2349501,-0.69405,11.920051,-0.0385,-0.380325,-0.0191125
1692595395295,1.0320001,-0.44700003,12.439051,-0.0044,-0.4566375,-0.0411125
1692595395328,1.317,-0.09105001,11.668051,0.0116875,-0.624525,0.043725
1692595395357,1.4749501,-0.01905,10.6369505,0.0312125,-0.6565625,0.0595375
1692595395387,1.67595,-0.27,11.403001,0.1164625,-0.6241125,-0.074525
1692595395415,1.33395,-0.069000006,12.43395,0.1518,-0.60101247,-0.1601875
1692595395446,0.61095005,-0.36600003,11.13195,0.1709125,-0.5377625,-0.245025
1692595395475,0.70905006,-0.88500005,11.139001,0.1626625,-0.4659875,-0.2358125
1692595395504,0.46500003,-1.161,11.40705,0.138325,-0.3625875,-0.176825
1692595395532,0.546,-0.84195006,10.807051,0.01705,-0.148225,0.0922625
1692595395561,0.45000002,-0.63900006,10.309051,-0.0561,-0.0710875,0.22893749
1692595395586,0.37605003,-0.35205,9.054001,-0.1359875,0.0284625,0.319825
1692595395618,0.46695003,-0.34005,8.86995,-0.133375,0.05335,0.286825
1692595395649,0.39795002,-0.51900005,9.49695,-0.06545,0.067375,0.1725625
1692595395678,0.49095002,-0.675,9.772051,-0.0279125,0.0683375,0.115637496
1692595395704,0.48600003,-0.70605004,9.49695,-0.0055,0.0699875,0.0697125
1692595395734,0.38595003,-0.77505004,8.746051,-0.0144375,0.0694375,0.019524999
1692595395763,0.402,-0.73695004,9.435,-0.062975,0.0523875,-0.003025
1692595395789,0.47400004,-0.675,9.45195,-0.082225,0.0444125,0.0369875
1692595395816,0.32805002,-0.507,9.05895,-0.0917125,0.0396,0.1142625
1692595395844,0.076950006,-0.52605003,9.2029505,-0.078375,0.0339625,0.186175
1692595395870,-0.39105,-0.531,9.768001,-0.057475,0.0408375,0.1348875
1692595395897,-0.74295,-0.68700004,10.93605,-0.032725,0.069025,0.0540375
1692595395925,-0.17295001,-0.82305,11.199,0.0042625,0.2253625,-0.1238875
1692595395953,0.24405001,-0.73005,10.78995,0.0086624995,0.31955,-0.1832875
1692595395982,0.25395,-0.70305,9.77505,-0.0083875,0.3378375,-0.161975
1692595396009,0.42405003,-0.58605003,9.885,-0.017324999,0.25685,-0.1249875
1692595396036,0.38805002,-0.59295005,10.057051,-0.0213125,0.163625,-0.10835
1692595396064,0.58395004,-0.67200005,9.5119505,-0.016775,0.019524999,-0.102575
1692595396093,0.71400005,-0.675,8.7310505,-0.0097624995,-0.0309375,-0.0950125
1692595396120,0.711,-0.61995006,8.42205,-0.0050875,-0.072325,-0.09185
1692595396148,0.92700005,-0.63600004,9.295951,-0.014575,-0.1507,-0.0589875
1692595396176,1.04205,-0.73905003,9.660001,-0.0207625,-0.1885125,-0.015125
1692595396206,0.84105,-0.64605004,9.397051,-0.0259875,-0.247775,0.0402875
1692595396233,0.95100003,-0.49995002,9.460951,-0.028875,-0.2671625,0.045925
1692595396260,1.389,-0.56205004,9.684,-0.028875,-0.27225,0.0433125
1692595396287,1.0870501,-0.58605003,10.017,-0.0048125,-0.247775,-0.0209
1692595396315,0.84795004,-0.74895006,10.342051,0.0116875,-0.24145,-0.0628375
1692595396342,0.83595,-0.79695004,10.78005,0.022824999,-0.2376,-0.0801625
1692595396370,0.546,-0.57900006,10.231951,0.0158125,-0.176825,-0.0638
1692595396398,0.75705004,-0.42105,9.934951,2.75E-4,-0.1203125,-0.08085
1692595396424,1.659,-0.675,10.663051,-0.001925,-0.01485,-0.150425
1692595396453,1.91295,-0.90000004,11.026951,0.0169125,-0.0017875,-0.133925
1692595396481,1.40295,-0.61995006,10.998,0.0314875,-0.0416625,-0.061325
1692595396511,1.09395,-0.19395001,11.659051,0.0177375,-0.2074875,0.14025
1692595396537,0.75195,-0.31605002,11.434051,0.0144375,-0.2440625,0.1750375
1692595396566,0.81405,-0.15495001,11.986951,0.07755,-0.14355,0.0515625
1692595396595,1.212,-0.39495003,12.325951,0.120175,-0.0565125,-0.03025
1692595396624,1.4680501,0.11895001,11.14605,0.1639,0.0672375,-0.11495
1692595396650,1.12995,0.44505003,12.159,0.1694,0.0726,-0.1390125
1692595396679,1.5300001,0.55695003,9.954,0.1750375,0.034375,-0.1695375
1692595396704,1.8240001,0.32700002,9.85095,0.2003375,-0.088825,-0.22055
1692595396734,2.42505,0.13095,9.59805,0.21779999,-0.1376375,-0.2024
1692595396761,1.575,-0.38505003,8.248051,0.2338875,-0.1813625,-0.144375
1692595396790,1.07505,-0.36600003,8.19705,0.22715,-0.289025,0.06325
1692595396820,-0.24495001,-0.37095,9.721951,0.184525,-0.3223,0.1879625
1692595396846,-0.09,-0.462,10.897051,0.0484,-0.1918125,0.3139125
1692595396872,0.23295002,-0.8880001,9.069,-0.00825,-0.015125,0.2695
1692595396901,0.19695,-0.21000001,8.53995,-0.050325,0.18933749,0.169125
1692595396932,0.522,0.13095,9.21195,-0.1161875,0.434775,-0.02145
1692595396958,0.12705001,0.105000004,9.82995,-0.1282875,0.4365625,-0.0730125
1692595396990,-0.54,-0.18195,8.53005,-0.0594,0.376475,-0.2063875
1692595397016,-0.88005006,-0.064050004,8.10705,4.125E-4,0.364925,-0.2838
1692595397043,-1.2070501,0.17595,8.248051,0.072325,0.4167625,-0.3939375
1692595397070,-1.0210501,-0.32805002,7.9960504,0.0836,0.493625,-0.4362875
1692595397100,-1.19805,-0.96195006,9.018001,0.083325,0.58245,-0.45155
1692595397126,-1.5190501,-0.62895006,8.602051,0.009625,0.6758125,-0.270875
1692595397156,-2.493,-0.32295,8.269051,-0.068475,0.6743,-0.0837375
1692595397184,-2.148,-0.061950002,7.2709503,-0.1835625,0.71885,0.146025
1692595397210,-2.06205,-0.32295,9.118951,-0.172975,0.7876,0.0963875
1692595397240,-3.1030502,-0.39195,9.085951,-0.1241625,0.8476875,-0.0240625
1692595397264,-3.4669502,-0.42795002,7.8960004,-0.066275,0.8685875,-0.1522125
1692595397292,-3.7140002,-0.90000004,10.36095,-1.375E-4,0.8908625,-0.33935
1692595397321,-2.7490501,-1.2760501,13.126051,-0.0033,0.94985,-0.3749625
1692595397348,-1.6890001,-1.23,13.755001,-0.1458875,0.988075,-0.1155
1692595397377,-2.052,-0.49005002,10.740001,-0.2633125,0.82981247,0.1832875
1692595397404,-1.179,-0.60495,7.9170003,-0.3878875,0.2594625,0.71665
1692595397432,-1.12605,-0.71295005,8.767051,-0.3799125,0.0312125,0.8570375
1692595397459,-1.815,-0.44295,9.226951,-0.36519998,-0.107525,0.98395
1692595397496,-1.4830501,-0.12705001,9.44505,-0.373175,-0.2371875,1.324675
1692595397532,-1.6570501,-0.16005,10.548,-0.2787125,-0.2189,1.3501124
1692595397544,-1.62405,-0.124050006,9.552,-0.186725,-0.171875,1.21825
1692595397600,-1.353,0.040050004,10.13595,-0.0229625,-0.1197625,0.9207
1692595397621,-1.6690501,-0.43800002,10.917001,0.0325875,-0.105325,0.807675
1692595397642,-1.7149501,-0.23400001,11.56305,0.071775,-0.091575,0.724625
1692595397667,-1.3440001,0.53505003,11.641951,0.090475,-0.0891,0.6708625
1692595397694,-2.124,-0.049950004,10.048051,0.086625,-0.128425,0.5313
1692595397736,-1.3249501,-0.22500001,10.134001,0.1813625,-0.14025,0.0523875
1692595397758,-1.131,-0.28695002,9.46395,0.221925,-0.12375,-0.1436875
1692595397783,-0.32700002,0.20295002,9.057,0.208175,-0.109725,-0.194425
1692595397810,-0.62100005,0.14805001,7.3720503,0.111925,-0.1397,-0.14905
1692595397843,-1.1400001,-0.411,9.394051,0.1164625,-0.2602875,-0.243375
1692595397866,-0.76005006,-0.54300004,10.62705,0.1164625,-0.2602875,-0.243375
1692595397894,-0.95100003,-0.43305,9.859051,0.084425,-0.30525,-0.142725
1692595397927,-2.0719502,-0.060000002,9.174001,-0.070125,-0.28985,0.16499999
1692595397957,-1.7410501,-0.46395,10.005,-0.12375,-0.2583625,0.2706
1692595397981,-1.1719501,-0.35895002,10.081051,-0.14025,-0.177925,0.3078625
1692595398010,-2.5740001,-1.4100001,9.849001,-0.1145375,0.0397375,0.246675
1692595398042,-1.5190501,-0.49800003,11.292001,-0.0889625,0.15455,0.129525
1692595398071,-0.20895001,-0.64605004,10.60995,-0.0862125,0.1821875,0.074525
1692595398100,-1.2790501,-0.65295005,9.58605,-0.089375,0.1744875,0.0231
1692595398137,-1.19505,-1.4620501,11.500951,-0.0908875,-0.0100375,-0.1370875
1692595398159,-1.38495,-0.23205002,9.52095,-0.084975,-0.086899996,-0.2382875
1692595398186,-1.6500001,-0.045,8.644951,-0.0341,0.0061875,-0.4002625
1692595398218,-1.8349501,-0.0019500001,9.67905,0.00385,0.0763125,-0.4365625
1692595398251,-1.16205,-0.72,9.271951,0.075625,0.1379125,-0.4409625
1692595398302,-2.1430502,-0.62205005,10.000051,0.0862125,0.1464375,-0.3322
1692595398321,-1.27695,-0.483,9.153001,0.0053625,0.0928125,-0.1478125
1692595398346,-0.65505004,-0.96900004,10.33695,-0.1566125,0.049225,0.2019875
1692595398390,-1.9780501,0.54705,8.158951,-0.1489125,0.012375,0.2685375
1692595398413,-1.27005,0.22200002,7.77405,-0.1208625,-0.0526625,0.2561625
1692595398459,-0.49905002,-0.33,11.84805,-8.25E-4,-0.0350625,0.087725
1692595398474,-0.72405005,-0.65295005,11.335951,0.078925,-0.0056375,-0.0526625
1692595398500,-1.8700501,0.21705002,10.311001,0.1324125,-0.0471625,-0.156475
1692595398531,-1.19505,-0.30795002,11.43105,0.1375,-0.2091375,-0.1929125
1692595398557,-1.10895,-0.30105,12.22605,0.142725,-0.1901625,-0.2316875
1692595398586,-2.1979501,-0.34395,11.22795,0.168575,-0.0523875,-0.330825
1692595398615,-1.96395,-1.2079501,12.0730505,0.142725,-0.0444125,-0.2789875
1692595398640,-1.15995,-1.9699501,12.315001,0.0485375,-0.03575,-0.1593625
1692595398667,-0.81495005,-1.23705,11.983951,-0.0441375,-0.0028875,-0.041525
1692595398697,-1.31805,-0.708,10.49295,-0.19085,-0.0017875,0.2008875
1692595398720,-1.1359501,-0.57405,9.22395,-0.3372875,-0.049775,0.455125
1692595398750,0.393,-1.194,9.435,-0.3546125,-0.139425,0.4112625
1692595398777,0.16095,-0.75600004,8.35095,-0.2602875,-0.1353,0.2013
1692595398806,-1.7530501,0.22200002,6.6870003,-0.154825,-0.1959375,-0.03025
1692595398837,-0.82005006,-0.58395004,8.611951,-0.122925,-0.24035,-0.1227875
1692595398865,-0.58305,-0.98805004,9.64095,0.0411125,-0.12925,-0.5209875
1692595398890,-0.55905,-1.18005,8.809951,0.10065,-0.0438625,-0.6694875
1692595398920,-0.549,-1.04595,10.065001,0.0831875,-0.017875,-0.6675625
1692595398948,-0.98700005,-0.90195006,9.64605,-0.0642125,-0.087037496,-0.483725
1692595398974,-1.0350001,-0.82605004,9.61905,-0.100925,-0.104637496,-0.4818
1692595399004,-0.72195005,-0.60795003,10.194,-0.0812625,-0.047575,-0.5952375
1692595399031,-0.52500004,-0.49305,9.84405,-0.046475,-0.0022,-0.6469375
1692595399060,-1.15695,-0.141,9.47805,0.0023375,0.0254375,-0.7000125
1692595399087,-1.43505,-0.048,9.61905,0.132,0.028324999,-0.836275
1692595399118,-0.79305005,-0.23205002,8.74995,0.20487499,0.05555,-0.9486125
1692595399146,-0.30705002,-0.31095,8.793,0.320925,0.1727,-1.143175
1692595399173,0.22095,-0.39900002,8.986951,0.328625,0.18315,-1.0910625
1692595399202,0.28305,-0.51705,8.41005,0.3009875,0.12595,-0.9565875
1692595399228,0.21795002,-0.507,7.8889503,0.2072125,-0.1192125,-0.6777375
1692595399253,-0.22605,-0.56700003,8.028001,0.153175,-0.23375,-0.52415
1692595399286,-0.28605002,-0.88095003,8.2570505,0.0386375,-0.34375,-0.1445125
1692595399311,0.112950005,-0.95505005,8.47995,-0.0187,-0.3359125,0.0763125
1692595399343,0.38805002,-1.0000501,8.688001,-0.14245,-0.274725,0.5581125
1692595399370,0.72300005,-0.95505005,9.44205,-0.192775,-0.2707375,0.7110125
1692595399398,0.87195003,-0.92100006,9.92595,-0.2234375,-0.2957625,0.7660125
1692595399425,1.2,-1.12905,10.3279505,-0.2358125,-0.346775,0.7830625
1692595399452,1.6110001,-1.1370001,11.34,-0.215875,-0.4879875,0.8947125
1692595399480,1.7359501,-0.82605004,10.72305,-0.1923625,-0.5583875,0.950675
1692595399506,1.9009501,-0.54300004,10.60995,-0.1329625,-0.689425,0.9152
1692595399535,2.26005,-0.43500003,10.033051,-0.0873125,-0.7244875,0.81633747
1692595399558,2.35995,-0.73200005,10.960051,-0.029424999,-0.73039997,0.67925
1692595399589,1.7359501,-0.84495,11.25405,0.074525,-0.7233875,0.4310625
1692595399618,1.18005,-1.02195,11.425951,0.1012,-0.71775,0.3834875
1692595399644,1.0180501,-1.06005,10.62195,0.10285,-0.5743375,0.39214998
1692595399674,1.11105,-1.05495,9.847051,0.0814,-0.4296875,0.398475
1692595399701,0.82905006,-1.065,11.047951,0.0518375,-0.2814625,0.400125
1692595399732,0.87195003,-1.1029501,11.766001,-0.0067375,-0.0768625,0.3939375
1692595399762,1.0129501,-0.74895006,10.372951,-0.0259875,-0.007425,0.360525
1692595399793,1.008,-0.68895006,9.567,-0.0336875,0.10615,0.2061125
1692595399830,0.702,-1.10595,10.1959505,-0.00715,0.1243,0.0180125
1692595399842,0.61095005,-1.21305,10.18395,-0.00715,0.1243,0.0180125
1692595399877,0.40005,-1.24395,10.07205,0.0039875,0.111375,-0.034925
1692595399905,0.52905005,-0.90195006,9.076051,-0.0540375,0.1551,0.008525
1692595399934,0.702,-0.84000003,8.96595,-0.0873125,0.1838375,-0.0235125
1692595399963,0.45000002,-0.72300005,8.99505,-0.0969375,0.1918125,-0.1331
1692595399991,0.69000006,-0.72,9.10005,-0.0749375,0.1683,-0.1485
1692595400020,0.46695003,-0.77505004,9.403951,-0.0462,0.1406625,-0.14355
1692595400050,0.028950002,-0.93105006,9.765,0.00605,0.1071125,-0.16555
1692595400078,0.14595,-1.08405,10.17,0.020075,0.1139875,-0.1964875
1692595400108,0.29205,-1.00995,10.203,0.015262499,0.1827375,-0.14465
1692595400134,0.24195,-0.78000003,10.177051,0.001375,0.2156,-0.0567875
1692595400164,0.24705002,-0.63900006,9.934951,-0.0174625,0.2275625,-0.010725
1692595400194,0.33105,-0.65595,9.63405,-0.0053625,0.21835,-0.088275
1692595400224,0.25605002,-0.76605004,9.672001,0.0196625,0.20487499,-0.184525
1692595400250,0.45000002,-0.82800007,9.423,0.0625625,0.164175,-0.2930125
1692595400277,0.61995006,-1.0699501,9.28695,0.064625,0.138875,-0.2908125
1692595400305,0.84105,-1.3740001,9.67695,0.0264,0.0694375,-0.2127125
1692595400336,0.83595,-1.46895,10.10295,-0.0105875,0.0198,-0.1441
1692595400366,1.1850001,-1.4310001,10.12695,-0.1084875,-0.088,0.0419375
1692595400396,1.5180001,-1.146,9.526051,-0.15015,-0.1340625,0.1296625
1692595400421,1.60905,-1.1509501,9.47295,-0.1720125,-0.179575,0.1848
1692595400453,1.7329501,-1.28295,9.81105,-0.1563375,-0.2968625,0.1623875
1692595400484,1.7719501,-1.4170501,10.122001,-0.1123375,-0.3949,0.0829125
1692595400512,1.9009501,-1.4239501,10.207951,-0.1123375,-0.3949,0.0829125
1692595400540,1.91805,-1.43595,10.086,-0.09625,-0.4239125,0.07975
1692595400568,1.7809501,-1.2199501,10.177051,-0.0999625,-0.4126375,0.0906125
1692595400600,2.676,-0.91200006,11.01,-0.100375,-0.3950375,0.073699996
1692595400629,2.46105,-1.02405,11.37405,-0.0636625,-0.3537875,-0.0309375
1692595400659,2.7870002,-1.8690001,11.7619505,-0.01265,-0.3554375,-0.0908875
1692595400687,1.623,-1.7569501,12.097051,0.0754875,-0.38995,-0.11935
1692595400719,1.6900501,-1.2760501,11.115001,0.0606375,-0.3752375,-0.077825
1692595400746,1.2019501,-0.70605004,9.097051,0.0154,-0.3086875,-0.021724999
1692595400778,0.22500001,0.15,6.64905,-0.02035,-0.084975,0.0694375
1692595400813,-0.37905002,-0.61995006,9.978001,0.0790625,0.08195,0.06985
1692595400840,-0.51795,-1.39995,11.23995,0.149875,0.18259999,-0.0108624995
1692595400866,-0.23295002,-1.5340501,11.14395,0.2360875,0.5083375,-0.1890625
1692595400894,0.69000006,-1.2610501,10.95495,0.1934625,0.66385,-0.198275
1692595400921,1.19505,-1.25205,11.142,0.102575,0.747175,-0.1695375
1692595400951,0.23700002,-0.735,10.048051,-0.0495,0.625075,-0.15345
1692595400981,1.29795,-0.933,10.31295,-0.0732875,0.48014998,-0.21779999
1692595401010,1.434,-0.684,10.030951,-0.0463375,0.269775,-0.47341248
1692595401038,0.68295,-0.30405003,8.65005,-0.018424999,0.188375,-0.5814875
1692595401066,0.70905006,-1.0530001,9.094951,0.032175,0.0039875,-0.65835
1692595401096,1.5850501,-1.83105,10.46895,0.050325,-0.036849998,-0.639375
1692595401122,1.83105,-1.55595,9.724951,0.0462,-0.03025,-0.5740625
1692595401151,1.4100001,-1.0720501,8.35305,-0.0605,-0.0584375,-0.2706
1692595401181,1.6470001,-1.0530001,8.590051,-0.125125,-0.139975,-0.0881375
1692595401210,1.4460001,-0.99300003,8.844001,-0.1577125,-0.29315,0.12485
1692595401241,0.651,-0.873,8.523001,-0.132825,-0.3213375,0.133925
1692595401268,0.21300001,-0.76605004,7.9819503,-0.070675,-0.2756875,0.0479875
1692595401301,0.075,-1.2349501,8.35305,-0.0457875,-0.1912625,-0.005225
1692595401327,-0.20505,-1.383,9.184051,-0.0308,0.0702625,-0.101475
1692595401364,0.47400004,-1.383,8.590051,-0.0710875,0.2864125,0.005775
1692595401391,0.28305,-1.08405,7.9870505,-0.0991375,0.3460875,0.122375
1692595401417,0.19695,-1.05795,8.51295,-0.11825,0.360525,0.216425
1692595401446,-0.109050006,-1.161,8.99895,-0.094875,0.2827,0.311575
1692595401475,-0.22095,-1.503,9.576,-0.0594,0.253275,0.31625
1692595401504,-0.45600003,-1.4290501,9.255,-0.0308,0.254925,0.28393748
1692595401532,-0.88005006,-1.1200501,8.743051,-0.0251625,0.276925,0.2374625
1692595401560,-0.80505,-1.67295,9.556951,-0.0543125,0.3565375,0.1890625
1692595401590,-0.93000007,-1.524,9.94995,-0.0671,0.4453625,0.2286625
1692595401618,-1.04505,-1.2229501,8.748,-0.086899996,0.4522375,0.3421
1692595401648,-1.19295,-1.48905,9.877951,-0.11385,0.4208875,0.6006
1692595401674,-1.404,-1.67505,10.191001,-0.09625,0.4114,0.6644
1692595401704,-1.31505,-1.74705,10.339951,-0.0782375,0.3975125,0.7365875
1692595401733,-1.18605,-1.7329501,11.557951,-0.0988625,0.33275,0.97789997
1692595401763,-1.7010001,-1.27995,11.641951,-0.127325,0.269225,1.0186
1692595401794,-1.4779501,-1.1370001,11.806951,-0.1056,0.2492875,0.9098375
1692595401823,-1.107,-1.24905,11.946,0.02915,0.2517625,0.537625
1692595401855,-0.87195003,-1.3620001,11.824051,0.1057375,0.2497,0.3361875
1692595401877,-1.1050501,-1.1700001,11.352,0.1573,0.2182125,0.17379999
1692595401910,-1.353,-0.82800007,10.584001,0.1709125,0.08855,0.029975
1692595401940,-0.87495005,-0.79695004,10.725,0.15895,0.0430375,0.0215875
1692595401969,-0.549,-0.75105006,10.6050005,0.15455,0.0331375,0.0169125
1692595402000,-0.68805003,-0.62700003,9.825001,0.18205,0.0424875,-0.0653125
1692595402030,-1.0830001,-0.71295005,9.721951,0.216975,-0.0253,-0.24915
1692595402061,-0.70695,-0.648,9.238951,0.2242625,-0.0482625,-0.3246375
1692595402096,-0.64500004,-0.735,9.250951,0.2013,-0.029975,-0.2910875
1692595402123,-0.93495005,-0.735,8.949,0.1568875,-0.0314875,-0.2635875
1692595402151,-1.047,-0.91200006,9.220051,0.13653749,-0.0405625,-0.284075
1692595402182,-0.53205,-1.3230001,9.688951,0.1117875,-0.039049998,-0.258775
1692595402211,-0.63495004,-1.31895,9.877951,0.021175,-0.0209,-0.02365
1692595402240,-0.55395,-1.12905,9.448951,-0.049225,-0.040425,0.16733749
1692595402270,-0.52305,-0.87795,9.436951,-0.1186625,-0.0836,0.3603875
1692595402300,-0.18495001,-0.96405005,9.825001,-0.17847499,-0.15619999,0.5588
1692595402330,-0.453,-0.70605004,9.904051,-0.1197625,-0.17985,0.4675
1692595402360,-0.633,-0.54495,9.567,-0.070125,-0.194425,0.3661625
1692595402389,-0.34095,-0.64395005,9.411,-0.0180125,-0.1970375,0.2470875
1692595402417,-0.46305,-0.76305,9.262951,0.080575,-0.134475,-0.0380875
1692595402444,-0.51600003,-0.98295003,10.081051,0.1203125,-0.0820875,-0.218625
1692595402477,-0.693,-0.85695004,10.09095,0.10395,-0.071225,-0.17847499
1692595402503,-1.2240001,-0.41595003,9.552,0.0361625,-0.0353375,0.0565125
1692595402533,-1.2739501,-0.22905001,9.5119505,0.0188375,-0.003575,0.1408
1692595402561,-1.0489501,-0.30105,9.50895,0.0342375,0.0485375,0.1519375
1692595402592,-0.99000007,-0.37995002,9.784051,0.13585,0.1835625,-0.0037125
1692595402621,-0.906,-0.37995002,9.460951,0.1808125,0.220275,-0.1021625
1692595402649,-1.014,-0.342,9.13605,0.2057,0.197725,-0.20019999
1692595402677,-0.94905007,-0.67695004,10.024051,0.193875,0.16445,-0.1854875
1692595402709,-1.18095,-0.53805,10.26105,0.14465,0.1095875,-0.087725
1692595402738,-1.41795,-0.32295,9.84,0.10175,0.091025,-0.0066
1692595402767,-1.65495,-0.31800002,9.909,0.0543125,0.0836,0.086899996
1692595402796,-1.7770501,-0.81795,10.878,0.032725,0.1376375,0.111375
1692595402825,-1.5619501,-0.82995003,11.467051,0.07095,0.22687499,-0.0328625
1692595402853,-2.0740502,-0.67695004,11.06505,0.0424875,0.2347125,0.0077
1692595402883,-2.39205,-0.48105,10.531051,-0.0103124995,0.2212375,0.109175
1692595402911,-2.2750502,-0.55305004,10.225051,-0.0482625,0.2418625,0.1744875
1692595402941,-2.091,-0.77295005,10.503,-0.01595,0.289575,0.0716375
1692595402968,-2.3730001,-0.957,10.36095,0.0218625,0.3353625,-0.075625
1692595402997,-2.09505,-0.9979501,10.467001,0.0237875,0.3625875,-0.16885
1692595403027,-0.81495005,-1.2870001,10.882951,-0.084425,0.3210625,0.07095
1692595403055,-0.85605,-1.146,10.375951,-0.1331,0.2616625,0.1342
1692595403083,-0.90795004,-0.69600004,8.87205,-0.1711875,0.15015,0.1595
1692595403115,-0.025050001,-0.97200006,10.34895,-0.1904375,-0.126225,0.1313125
1692595403144,-0.06795,-1.0170001,9.83205,-0.094875,-0.297,-0.1472625
1692595403173,-0.11805001,-0.99495006,9.595051,-0.060775,-0.3806,-0.26125
1692595403207,-0.20505,-0.61995006,9.436951,-0.0664125,-0.51205,-0.214225
1692595403233,-0.762,-0.18195,8.99505,-0.0721875,-0.527725,-0.126775
1692595403261,-0.50100005,-0.31305,9.46395,-0.0507375,-0.5028375,-0.1057375
1692595403291,-0.46095002,-0.52605003,9.259951,0.0864875,-0.3348125,-0.39655
1692595403320,-0.40995002,-0.35895002,8.52495,0.1519375,-0.2429625,-0.5886375
1692595403349,-0.64500004,-0.58905005,9.46395,0.1824625,-0.14575,-0.7753625
1692595403375,-0.27405003,-0.98805004,9.93795,0.170225,-0.1199,-0.8028625
1692595403406,-0.030000001,-1.0510501,9.126,0.10835,-0.0991375,-0.6689375
1692595403437,-0.36495003,-0.71505004,8.797951,0.0438625,-0.1120625,-0.4967875
1692595403467,-0.49395,-0.53805,7.7910004,-0.0270875,-0.13255,-0.3306875
1692595403501,-0.14205001,-1.1200501,8.095051,-0.0768625,-0.1233375,-0.2399375
1692595403527,-0.35805002,-1.3399501,8.6980505,-0.0375375,-0.0529375,-0.3375625
1692595403556,0.112950005,-1.182,7.8580503,-0.056649998,-0.048675,-0.30415
1692595403585,0.28005,-1.4140501,7.48395,-0.106837496,-0.065725,-0.1860375
1692595403614,0.25605002,-1.74495,8.113951,-0.2146375,-0.12773749,0.151525
1692595403642,0.57000005,-1.6870501,9.01095,-0.2646875,-0.181775,0.29865
1692595403671,0.37095,-1.7539501,9.49695,-0.3218875,-0.247225,0.41525
1692595403701,0.78495,-1.9390501,10.416,-0.40205,-0.35585,0.5407875
1692595403733,1.3579501,-1.9099501,11.292001,-0.365475,-0.4158,0.5168625
1692595403761,1.128,-1.6699501,11.27805,-0.32615,-0.43821248,0.45168748
1692595403790,1.30005,-1.3429501,10.701,-0.2277,-0.48839998,0.2816
1692595403818,1.37205,-1.16805,10.74195,-0.162525,-0.5027,0.2151875
1692595403845,1.6810501,-1.24695,10.52595,-0.0903375,-0.49665,0.1582625
1692595403877,1.6900501,-1.3470001,11.002951,0.0438625,-0.447425,0.0257125
1692595403909,0.90795004,-1.48905,12.015,0.115775,-0.42941248,-0.0457875
1692595403931,0.64695,-1.4809501,11.692051,0.126775,-0.4167625,-0.0259875
1692595403962,0.99105006,-1.43595,10.990951,0.12595,-0.3645125,0.0083875
1692595403992,1.11105,-1.00995,10.11705,0.095837496,-0.148775,0.032175
1692595404022,0.95295006,-1.01205,10.09605,0.07095,-0.025575,-0.0012375
1692595404051,0.85005003,-1.113,10.275001,0.078375,-0.023375,-0.0193875
1692595404079,0.68295,-1.31895,10.41405,0.0935,-0.0265375,-0.03025
1692595404109,0.61095005,-1.4980501,10.644,0.100925,-0.0023375,0.007425
1692595404137,0.675,-1.23705,10.309051,0.0840125,0.0215875,0.06215
1692595404168,0.72300005,-0.82095003,9.259951,0.0334125,0.0715,0.159225
1692595404197,0.66300005,-0.63900006,8.820001,0.0191125,0.088275,0.1379125
1692595404226,0.666,-0.57900006,8.488951,0.0495,0.0935,-0.044275
1692595404254,0.55305004,-0.804,8.499001,0.0858,0.0836,-0.12705
1692595404286,0.38295,-1.13205,9.093,0.132275,0.062425,-0.1722875
1692595404316,0.25395,-1.2780001,9.354,0.122099996,0.062975,-0.14093749
1692595404345,0.18900001,-1.3780501,9.837001,0.0889625,0.0754875,-0.078375
1692595404373,0.16095,-1.0860001,9.688951,-0.0048125,0.1285625,0.0820875
1692595404401,0.048,-0.89505005,9.54705,-0.0402875,0.15785,0.132275
1692595404428,0.052950002,-0.924,10.045051,-0.0462,0.1969,0.1203125
1692595404459,-0.00795,-0.93795,10.14795,-0.0462,0.1969,0.1203125
1692595404489,0.192,-0.97905004,10.825951,0.043449998,0.2286625,-0.014162499
1692595404515,0.49095002,-0.93795,10.45905,0.0611875,0.23815,-0.082225
1692595404544,0.57705003,-0.93795,10.012051,0.0763125,0.20955,-0.2541
1692595404573,0.558,-1.1010001,9.835051,0.075075,0.1566125,-0.3059375
1692595404602,0.66795003,-1.314,10.27005,0.0669625,0.08855,-0.3073125
1692595404629,0.82095003,-1.28505,9.81795,0.0264,-0.0323125,-0.18287499
1692595404662,1.09905,-1.23705,9.63105,-0.006875,-0.076175,-0.0886875
1692595404693,1.164,-1.02405,9.50895,-0.068475,-0.15455,0.060225
1692595404720,0.98205006,-1.24395,9.418051,-0.0793375,-0.1995125,0.1243
1692595404748,1.0200001,-1.55595,10.893001,-0.061049998,-0.278575,0.2211
1692595404779,0.37095,-0.90195006,11.601001,-0.051975,-0.287925,0.2160125
1692595404803,0.56805,0.009000001,8.79105,-0.039325,-0.215875,0.13035
1692595404835,0.67305005,0.08805001,8.74995,0.0028875,-0.1362625,0.0232375
1692595404864,0.975,-0.32295,9.34395,0.0820875,-0.0512875,-0.1381875
1692595404893,0.89595,-0.804,10.323001,0.2539625,0.030524999,-0.4456375
1692595404922,0.78300005,-0.64095,10.716001,0.28325,0.018975,-0.4907375
1692595404950,1.10895,-0.68205005,10.90005,0.20515,-0.021175,-0.36781248
1692595404979,1.2930001,-0.77505004,10.656,0.1469875,-0.0292875,-0.295625
1692595405009,0.70395005,-0.73905003,11.476951,0.077825,-0.062425,-0.21615
1692595405038,0.91005003,-0.80895007,11.845051,0.0589875,-0.083875,-0.1804
1692595405067,0.9670501,-0.67695004,10.732051,0.037125,-0.0449625,-0.109725
1692595405095,1.149,-0.87600005,11.30895,0.03135,-0.0059125,-0.0726
1692595405125,1.3909501,-0.81105006,11.058001,0.0163625,0.0099,-0.0196625
1692595405153,1.5780001,-0.68895006,9.58605,0.00935,-0.004125,-0.026124999
1692595405183,1.72395,-1.2900001,9.67395,-4.125E-4,-0.073425,-0.120725
1692595405212,1.113,-1.161,10.09605,-0.0086624995,-0.1252625,-0.1931875
1692595405242,1.7310001,-1.0530001,9.11205,-0.0281875,-0.17173749,-0.2514875
1692595405270,1.9249501,-1.0669501,8.644951,-0.0895125,-0.19373749,-0.2267375
1692595405298,1.3290001,-0.98595005,8.21205,-0.1128875,-0.1995125,-0.1533125
1692595405328,1.1370001,-1.05795,8.596951,-0.1288375,-0.225225,-0.0875875
1692595405357,1.6690501,-1.50495,9.571051,-0.15125,-0.249975,-0.049775
1692595405385,1.29795,-1.1920501,9.31095,-0.173525,-0.1975875,0.006875
1692595405415,0.57000005,-0.837,9.045,-0.189475,-0.1819125,0.0708125
1692595405443,0.12495001,-0.54105,8.74995,-0.19607499,-0.1571625,0.1054625
1692595405473,0.312,-0.40695003,9.19095,-0.134475,0.0154,-0.02475
1692595405501,0.027,-0.43800002,9.67695,-0.06435,0.1489125,-0.1337875
1692595405531,-0.441,-0.38505003,8.71395,0.0842875,0.3645125,-0.32587498
1692595405559,-0.57795,-1.13205,8.820001,0.129525,0.433125,-0.4140125
1692595405588,0.15405001,-1.55805,9.018001,0.1434125,0.5577,-0.49513748
1692595405618,0.59400004,-1.5439501,8.47305,0.0950125,0.5946875,-0.4244625
1692595405647,-0.441,-0.93795,7.3879504,-0.106975,0.4813875,-0.02915
1692595405675,-0.51600003,-1.0170001,7.7430005,-0.1953875,0.35915,0.198
1692595405705,-1.65495,-0.86100006,8.66205,-0.2256375,0.2459875,0.478225
1692595405733,-1.45605,-1.194,9.81795,-0.1898875,0.29645,0.5402375
1692595405765,-1.5310501,-1.0530001,9.717,-0.11165,0.5237375,0.58753747
1692595405793,-1.23105,-1.21305,9.423,-0.083325,0.6323625,0.60335
1692595405822,-1.21905,-1.21605,9.4800005,-0.065725,0.6887375,0.6249375
1692595405854,-1.21905,-1.21605,9.4800005,-0.065725,0.6887375,0.6249375
1692595405881,-0.72195005,-1.4430001,9.129001,-0.0743875,0.5077875,0.641025
1692595405910,-1.18095,-1.43805,10.93305,-0.1368125,0.268125,0.85153747
1692595405938,-1.215,-0.84495,11.505,-0.1838375,0.14245,1.0770375
1692595405968,-0.99000007,0.078,10.795051,-0.185625,0.003575,1.238875
1692595405997,-1.0180501,0.26295,11.083951,-0.0858,0.002475,1.0260249
1692595406027,-1.30095,-0.07395,11.74695,0.2646875,0.047575,0.259875
1692595406056,-1.4299501,-0.56700003,12.283051,0.4257,0.0653125,-0.0848375
1692595406085,-1.332,-0.84000003,11.818951,0.518925,0.07975,-0.2979625
1692595406113,-1.33905,-0.837,11.656051,0.443575,0.081125,-0.1802625
1692595406141,-1.46595,-0.52905005,11.364,0.3289,0.0790625,-0.0254375
1692595406170,-1.11195,-0.20595,10.13895,0.1340625,0.0768625,0.1324125
1692595406200,-0.61395,-0.13095,9.214951,0.090475,0.0771375,0.13805
1692595406225,-0.51105005,-0.34005,9.085951,0.1057375,0.05555,0.03355
1692595406262,-0.56805,-0.64095,9.102,0.13365,0.0198,-0.06545
1692595406285,-1.18605,-0.62205005,8.611951,0.1203125,-0.089925,-0.118525
1692595406314,-2.0740502,-0.615,8.913,0.06655,-0.122925,0.0105875
1692595406345,-2.835,-0.32505003,9.13095,-0.053075,-0.0273625,0.4208875
1692595406374,-2.505,-0.50505,8.928,-0.084425,0.114675,0.5625125
1692595406403,-2.6920502,-0.21300001,10.033051,-0.08745,0.292325,0.6202625
1692595406432,-2.09295,0.126,10.174951,-0.0441375,0.571725,0.6084375
1692595406461,-0.75705004,0.112050004,10.60995,-0.0114124995,0.614075,0.5729625
1692595406491,0.30705002,0.29595003,10.92105,0.0408375,0.5908375,0.4808375
1692595406520,1.6660501,0.45900002,11.680051,0.198,0.2811875,0.10725
1692595406548,1.59,0.32700002,12.127951,0.315975,-0.395175,-0.2204125
1692595406580,1.19505,-0.39495003,12.04905,0.3405875,-0.735075,-0.2938375
1692595406609,0.95100003,-0.78705,11.11305,0.2957625,-1.1210375,-0.2545125
1692595406643,0.78795004,-1.1770501,11.434051,0.2123,-1.133,-0.1271875
1692595406670,-0.702,-0.342,10.15305,-0.0320375,-0.9339,0.266475
1692595406699,-1.5090001,0.46605003,8.50395,-0.138325,-0.78595,0.4153875
1692595406727,-2.1979501,1.0210501,7.7710505,-0.1606,-0.35585,0.43945
1692595406755,-2.80395,1.12905,7.3170004,-0.058849998,-0.070125,0.368225
1692595406788,-3.22305,0.84195006,6.6060004,0.08635,0.220275,0.2754125
1692595406817,-3.3019502,0.15705001,7.9680004,0.3542,0.7357625,0.0864875
1692595406844,-2.766,0.15,8.7310505,0.3975125,1.1407,0.1164625
1692595406874,-2.15805,0.57900006,8.652,0.3047,1.240525,0.26235
1692595406903,-1.2889501,0.873,9.801001,0.170775,1.23255,0.450175
1692595406932,-0.46095002,1.23705,10.342051,0.0268125,0.9142375,0.5743375
1692595406965,-0.43005002,1.6459501,10.620001,0.203775,0.3004375,0.078375
1692595406993,-0.03195,1.6099501,11.295,0.3403125,-0.0309375,-0.2600125
1692595407021,0.01695,1.4569501,11.512951,0.45581248,-0.3036,-0.533775
1692595407049,-0.64005005,1.52205,11.53695,0.53845,-0.626725,-0.700975
1692595407077,-1.03005,1.34895,11.91195,0.5058625,-0.6928625,-0.6161375
1692595407107,-1.09305,1.218,11.347051,0.38953748,-0.6243875,-0.395725
1692595407140,-1.04205,1.16505,10.23705,0.32381248,-0.5058625,-0.296725
1692595407164,-0.53505003,0.57105005,9.97095,0.1843875,-0.2402125,-0.0730125
1692595407193,-0.98505,0.58305,9.898951,0.1183875,-0.1445125,0.034925
1692595407222,-0.94200003,0.43305,9.87495,0.0493625,-0.081125,0.142175
1692595407251,-0.41805002,0.10005,9.712951,-0.098725,-0.017875,0.3608
1692595407279,-1.12395,0.52095,8.997001,-0.166925,0.0026125,0.4833125
1692595407309,-1.26495,0.92100006,8.7960005,-0.276375,0.0226875,0.6716875
1692595407337,-1.26705,1.0020001,8.608951,-0.2787125,0.0358875,0.6183375
1692595407367,-1.7580001,0.85095006,8.99505,-0.1332375,0.1161875,0.260975
1692595407397,-1.26495,0.53505003,9.35595,-0.0369875,0.1678875,0.0804375
1692595407423,-0.71205,0.504,9.196051,0.052525,0.2618,-0.0686125
1692595407452,-0.822,0.63600004,8.596951,0.0325875,0.2605625,-0.0493625
1692595407483,-0.74805003,0.49005002,7.9870505,6.875E-4,0.19745,-0.0683375
1692595407511,-0.38595003,0.36600003,8.17095,-0.0037125,-0.002475,-0.3768875
1692595407541,-0.351,0.28695002,8.06805,0.013612499,-0.071225,-0.56485
1692595407570,-1.026,0.74895006,7.55595,0.0070125,-0.16555,-0.6854375
1692595407599,-0.64005005,0.39900002,8.734051,-0.014025,-0.1951125,-0.6081625
1692595407627,-0.96105003,0.45405003,8.49405,0.0045375,-0.1417625,-0.529375
1692595407659,-0.96105003,0.82800007,8.379001,0.027775,-0.0930875,-0.595375
1692595407687,-0.73800004,0.91800004,8.42205,0.0529375,-0.0605,-0.8452125
1692595407717,-0.43395,0.81795,8.785951,0.0969375,-0.0584375,-1.032075
1692595407745,-0.18300001,0.71505004,9.085951,0.2165625,-0.093225,-1.3514875
1692595407781,0.32295,0.49005002,9.18795,0.2299,-0.230725,-1.3231624
1692595407809,0.17295001,0.34395,8.949,0.1876875,-0.3229875,-1.1886874
1692595407832,0.537,-0.033,9.378,0.1258125,-0.409475,-1.0192875
1692595407859,0.73005,-0.51405,10.57005,0.052525,-0.472725,-0.8426
1692595407887,0.74700004,-0.58605003,10.287001,-0.14135,-0.5324,-0.4277625
1692595407917,1.161,-0.44700003,9.87495,-0.261525,-0.5515125,-0.17173749
1692595407948,1.55595,-0.39495003,10.677,-0.4345,-0.56993747,0.2435125
1692595407977,1.5319501,-0.342,11.166,-0.4549875,-0.586575,0.3419625
1692595408005,1.4940001,-0.15,10.720051,-0.3986125,-0.6444625,0.36795
1692595408035,1.5589501,-0.08295,11.383051,-0.3452625,-0.648175,0.3392125
1692595408059,1.14195,0.09,11.625001,-0.2872375,-0.623975,0.2897125
1692595408093,0.82395005,0.50895,10.29195,-0.172425,-0.50875,0.1282875
1692595408118,1.0680001,0.423,10.443001,-0.114125,-0.4230875,0.0408375
1692595408145,0.76905006,0.21705002,11.212951,0.0050875,-0.2410375,-0.1214125
1692595408176,0.35895002,0.19605,11.616,0.055275,-0.169125,-0.1885125
1692595408207,0.9480001,0.10005,11.30895,0.0911625,-0.036025,-0.22275
1692595408236,0.984,0.15,11.022,0.077825,0.0334125,-0.2303125
1692595408267,0.93600005,0.294,10.44705,0.058025,0.0752125,-0.2629
1692595408295,0.75405,0.28905,10.47105,0.029975,0.0462,-0.33385
1692595408323,0.771,0.045,10.309051,0.0273625,0.01815,-0.3513125
1692595408351,0.63000005,-0.093,9.613951,0.030524999,0.005775,-0.3551625
1692595408382,0.69195,-0.079050004,8.767051,0.022275,0.0171875,-0.2904
1692595408410,0.37095,-0.048,8.41005,-0.02915,0.0301125,-0.18493749
1692595408440,0.47895002,-0.17205001,8.293051,-0.0543125,0.0336875,-0.1445125
1692595408467,0.08205,-0.40395,8.463,-0.0842875,0.053625,-0.0779625
1692595408495,0.07005,-0.53805,9.31095,-0.095975,0.07205,-0.0430375
1692595408523,0.19395001,-0.45900002,10.383,-0.1445125,0.1324125,0.05995
1692595408554,0.20595,-0.25305,10.146001,-0.1782,0.1683,0.12925
1692595408578,0.37905002,-0.15300001,10.033051,-0.2003375,0.193875,0.1857625
1692595408609,0.90795004,-0.34395,10.617001,-0.168575,0.1920875,0.1969
1692595408639,0.84105,-0.33495003,10.704,-0.1263625,0.158675,0.198
1692595408669,0.59895,-0.069000006,10.41195,-0.0631125,0.0308,0.2578125
1692595408697,1.07295,-0.28005,10.75605,-0.0529375,-0.0336875,0.238425
1692595408725,1.8390001,-0.38505003,9.74895,-0.0474375,-0.11495,0.073699996
1692595408757,2.14995,-0.41595003,7.9249506,-0.0441375,-0.1593625,-0.012925
1692595408786,2.00895,-0.76095,8.785951,-0.0422125,-0.3265625,-0.1159125
1692595408816,1.6690501,-1.146,9.87495,-0.048125,-0.4279,-0.1007875
1692595408844,1.6879501,-1.1410501,9.703051,-0.1021625,-0.5259375,0.0661375
1692595408873,1.5799501,-0.91905004,8.856,-0.149875,-0.496925,0.1782
1692595408903,1.092,-0.78495,9.66495,-0.2162875,-0.38005,0.3531
1692595408931,1.2550501,-0.75105006,10.428,-0.21573749,-0.3227125,0.3810125
1692595408964,0.93405,-0.24105,10.323001,-0.2003375,-0.25135,0.3397625
1692595408992,1.19505,-0.27495003,11.118001,-0.1527625,-0.0561,0.0424875
1692595409022,0.90000004,-0.45000002,11.88405,-0.061325,0.1010625,-0.3592875
1692595409049,0.99405,-0.57195,11.541,-0.014162499,0.1480875,-0.5124625
1692595409076,1.4130001,-0.507,10.593,0.014712499,0.1794375,-0.5963375
1692595409104,1.06605,-0.51900005,9.62205,0.018975,0.1860375,-0.5742
1692595409137,2.1450002,-1.8000001,12.310051,0.0100375,0.156475,-0.5212625
1692595409158,1.9339501,-1.9069501,13.036951,-0.0067375,0.10945,-0.4637875
1692595409190,2.2099502,-1.4260501,11.09895,-0.1324125,-0.0174625,-0.285725
1692595409221,2.325,-0.9480001,10.42395,-0.2256375,-0.0812625,-0.170225
1692595409250,1.6380001,-0.60105,9.66195,-0.2893,-0.1376375,-0.076175
1692595409281,1.21395,-0.75600004,8.767051,-0.2638625,-0.232925,-0.04455
1692595409309,0.88605005,-0.90405005,9.33195,-0.14973749,-0.207075,-0.1711875
1692595409336,0.27105,-0.9670501,8.655001,-0.1104125,-0.1387375,-0.2321
1692595409365,0.75705004,-1.338,9.045,-0.09075,-0.0510125,-0.2827
1692595409394,0.84795004,-1.40205,9.741,-0.10175,0.1522125,-0.336875
1692595409422,0.55095005,-1.16805,9.16905,-0.1335125,0.221925,-0.30415
1692595409451,1.0129501,-1.5120001,9.78195,-0.2050125,0.2583625,-0.19305
1692595409481,0.58695,-1.52205,9.859051,-0.214775,0.2627625,-0.1683
1692595409508,0.49305,-1.4670001,9.90705,-0.1995125,0.25135,-0.06545
1692595409539,1.30005,-1.11,8.20695,-0.1926375,0.236775,0.0298375
1692595409568,0.95505005,-1.0000501,7.5780005,-0.16555,0.19965,0.10505
1692595409595,0.32595003,-1.3980001,8.62605,-0.13585,0.136675,0.097075
1692595409625,0.273,-1.7230501,9.98295,-0.0818125,-0.025575,0.173525
1692595409656,0.27105,-1.3780501,8.953951,-0.077275,-0.01925,0.2288
1692595409684,0.58005005,-0.94500005,6.9670506,-0.0867625,0.0554125,0.2506625
1692595409719,0.34500003,-1.1340001,7.42005,-0.095425,0.18205,0.2041875
1692595409734,0.402,-1.3620001,7.68795,-0.0768625,0.1755875,0.180125
1692595409771,0.120000005,-1.59105,7.3050003,-0.039325,0.11715,0.19373749
1692595409799,0.043050002,-1.7329501,7.2229505,-0.0506,0.098175,0.27775
1692595409830,0.12495001,-2.14905,6.438,-0.084975,0.0834625,0.456775
1692595409858,0.29700002,-2.9610002,8.470051,-0.1857625,0.049225,0.9970125
1692595409887,-1.04205,-2.22795,9.579,-0.358875,-0.0554125,1.612875
1692595409913,-1.3630501,-1.5319501,8.68605,-0.4497625,-0.1073875,1.901075
1692595409943,-1.14495,-1.302,9.318001,-0.4703875,-0.08085,2.05315
1692595409974,-1.27695,-1.0669501,11.304001,-0.2316875,0.236775,1.7213625
1692595410002,-1.93305,-1.05795,11.92905,-0.0435875,0.4142875,1.266925
1692595410031,-1.03995,-1.4170501,12.946051,0.3018125,0.641025,0.212575
1692595410061,0.094050005,-2.013,14.3230505,0.4151125,0.6925875,-0.1626625
1692595410088,-0.29805002,-1.9549501,14.454,0.47753748,0.5863,-0.561275
1692595410119,-0.25995,-1.4650501,13.474951,0.41965,0.3914625,-0.521125
1692595410147,-0.25005,-1.2559501,12.891001,0.3273875,0.1643125,-0.326975
1692595410178,-0.31005,-1.12905,11.958,0.210375,-0.106837496,-0.0471625
1692595410206,-0.513,-1.2559501,11.58705,0.221925,-0.141625,-0.134475
1692595410233,-0.76500005,-1.2060001,10.512,0.2270125,-0.13213749,-0.1599125
1692595410264,-0.84405005,-1.1080501,9.97605,0.216425,-0.109175,-0.131725
1692595410293,-0.30495003,-0.94995004,8.443951,0.1552375,-0.028875,0.078099996
1692595410320,-0.027,-0.84495,8.37705,0.117699996,0.005775,0.225775
1692595410350,-0.18795002,-0.62205005,8.305051,0.0655875,0.0064625,0.382525
1692595410381,0.112950005,-0.52395004,8.334001,0.0570625,-0.0279125,0.36987498
1692595410409,-0.25500003,-0.28500003,7.905,0.0790625,-0.1012,0.2275625
1692595410438,-0.19500001,-0.555,9.17205,0.1126125,-0.107525,0.078375
1692595410467,-0.49905002,-0.69405,10.333051,0.1560625,-0.0917125,-0.1027125
1692595410495,-0.453,-0.67695004,10.46895,0.2195875,-0.036575,-0.347325
1692595410524,-0.65205,-0.64395005,10.486051,0.21807499,-0.0133375,-0.30827498
1692595410553,-0.52500004,-0.651,10.36095,0.1755875,0.01265,-0.010175
1692595410584,-0.15705001,-0.82605004,10.2630005,0.1387375,0.0374,0.1530375
1692595410608,-0.28095,-0.98100007,10.408951,0.11715,0.041249998,0.1830125
1692595410640,-0.252,-0.79005,9.82995,0.0875875,0.027224999,0.20515
1692595410668,-0.22095,-0.63900006,9.406051,0.01815,-0.0275,0.2149125
1692595410698,-0.46095002,-0.51000005,9.243,-0.0033,-0.044825,0.193875
1692595410727,-0.74805003,-0.31095,8.547,0.003575,-0.0292875,0.100237496
1692595410754,-1.00395,-0.22905001,8.11095,0.0273625,-0.011825,0.072875
1692595410786,-0.95595,-0.33495003,8.298,0.0856625,0.0710875,0.082499996
1692595410819,-1.0519501,-0.50205004,9.306001,0.1137125,0.1354375,0.0556875
1692595410852,-1.8750001,0.058950003,9.68595,0.13653749,0.243375,-0.0268125
1692595410880,-1.746,0.528,10.597951,0.134475,0.27513748,-0.043175
1692595410911,-0.24795002,0.15,12.372001,0.2171125,0.368775,-0.2072125
1692595410944,-0.48195,0.07095,12.736051,0.3958625,0.3601125,-0.592075
1692595410971,0.036000002,-0.24900001,12.990001,0.4203375,0.223025,-0.6677
1692595410999,-0.07005,-0.18900001,11.656051,0.385275,0.047575,-0.6084375
1692595411029,0.25605002,-0.28005,10.689,0.2322375,-0.20295,-0.2723875
1692595411057,0.13005,-0.33495003,10.825951,0.14739999,-0.2717,-0.0804375
1692595411086,-0.22095,-0.354,10.962001,0.0163625,-0.3452625,0.24365
1692595411115,-0.351,-0.49005002,10.024051,-0.020075,-0.3443,0.3542
1692595411145,-0.46305,-0.56505,9.684,-0.044,-0.3136375,0.4181375
1692595411173,-1.389,-0.94995004,9.81795,-0.084425,-0.1885125,0.4268
1692595411203,-1.9660501,-0.78705,10.567051,-0.1555125,-0.0290125,0.579425
1692595411232,-1.8970501,-0.31605002,10.066951,-0.2024,0.084975,0.7264125
1692595411260,-1.863,0.010950001,9.430051,-0.23595,0.21779999,0.816475
1692595411290,-2.2800002,0.14295001,9.436951,-0.1802625,0.4296875,0.564575
1692595411316,-2.3850002,0.066,9.97605,-0.0859375,0.4893625,0.2662
1692595411347,-1.3579501,-0.43305,9.993,0.1164625,0.566225,-0.2981
1692595411378,-0.79605,-0.56700003,9.82005,0.1794375,0.5768125,-0.505175
1692595411405,-0.74295,-0.64605004,9.61005,0.20405,0.5330875,-0.6560125
1692595411434,-0.68595004,-0.17400001,8.125951,0.1285625,0.249975,-0.7022125
1692595411464,0.252,-0.53595,8.34795,0.06655,0.0924,-0.6114625
1692595411489,0.031050002,-0.57705003,8.557051,0.0198,-0.0988625,-0.4217125
1692595411522,-1.2270001,-0.37800002,8.04405,0.0088,-0.1854875,-0.3284875
1692595411549,-0.75000006,-0.081,8.113951,-0.0477125,-0.3212,-0.152075
1692595411580,-0.18105,0.105000004,8.941951,-0.054725,-0.2908125,-0.1524875
1692595411608,-0.15195,0.46605003,7.52505,-0.024475,-0.20693749,-0.23539999
1692595411636,0.29205,0.65295005,6.4120502,0.1280125,-0.10835,-0.5025625
1692595411666,0.51495004,-0.54105,8.99895,0.2206875,-0.1387375,-0.6417125
1692595411694,0.10305001,-0.76605004,9.708,0.3518625,-0.2855875,-0.95535
1692595411725,-0.64695,-0.56895,9.523951,0.3122625,-0.36574998,-0.9436625
1692595411754,-0.003,-0.25605002,8.535001,0.0397375,-0.386925,-0.4673625
1692595411784,-0.18795002,-0.28005,9.02595,-0.111925,-0.210925,-0.20487499
1692595411811,0.16305001,-0.58605003,9.23595,-0.1120625,-0.149325,-0.2286625
1692595411840,0.264,-0.43305,7.9270506,-0.093225,-0.1205875,-0.2875125
1692595411870,0.711,-0.75795,7.8820505,-0.0803,-0.1106875,-0.33605
1692595411899,0.57195,-1.09395,9.16695,-0.1054625,-0.15345,-0.3661625
1692595411927,0.73305005,-1.4310001,10.10295,-0.17985,-0.275275,-0.2552
1692595411958,0.75195,-1.3399501,10.60995,-0.17985,-0.275275,-0.2552
1692595411986,1.2589501,-0.62700003,9.519,-0.3229875,-0.3894,0.1612875
1692595412015,2.1070502,-0.91605,10.14795,-0.3152875,-0.397375,0.20735
1692595412043,2.2459502,-1.01205,11.359051,-0.2652375,-0.4136,0.17105
1692595412079,2.6809502,-0.49995002,11.841001,-0.14025,-0.5495875,0.1038125
1692595412101,2.8489501,-0.60105,12.243001,-0.09405,-0.641575,0.1340625
1692595412137,2.46795,-0.72495,12.37695,0.014575,-0.732325,0.115225
1692595412164,2.121,-0.90405005,11.86005,0.0683375,-0.7275125,0.0644875
1692595412208,1.1370001,-1.09605,11.058001,0.094325,-0.525525,0.0496375
1692595412227,1.1659501,-1.266,10.44705,0.0655875,-0.3785375,0.0644875
1692595412251,0.81405,-1.335,10.687051,0.028875,-0.2083125,0.07975
1692595412280,0.47700003,-1.29495,11.527051,-0.014712499,-0.057475,0.1034
1692595412308,0.76395005,-0.96195006,11.154,-0.1034,0.132275,0.1661
1692595412337,0.73005,-0.72495,9.9210005,-0.1247125,0.2041875,0.1694
1692595412361,0.984,-0.79905003,9.247951,-0.1216875,0.2558875,0.1370875
1692595412392,0.71805006,-0.735,8.793,-0.080025,0.260425,-0.020075
1692595412419,0.50805,-0.66495,8.437051,-0.0627,0.22893749,-0.114675
1692595412448,0.53895,-0.73200005,7.8600006,-0.044275,0.168025,-0.254925
1692595412475,0.73305005,-0.94305,7.7880006,-0.036575,0.1596375,-0.2880625
1692595412507,0.36705002,-1.041,8.415,-0.0352,0.1486375,-0.2264625
1692595412536,0.108,-1.1920501,9.54705,-0.0501875,0.13255,-0.1247125
1692595412565,-0.216,-1.2919501,10.479,-0.0966625,0.1445125,0.0787875
1692595412595,-0.16905001,-1.3950001,11.173051,-0.1145375,0.1995125,0.1230625
1692595412625,-0.087000005,-1.6609501,12.0390005,-0.1249875,0.3463625,0.08525
1692595412657,0.28800002,-1.5990001,11.769001,-0.12815,0.3876125,0.0606375
1692595412681,0.23505001,-1.4140501,11.44305,-0.13653749,0.3906375,0.0732875
1692595412722,0.80895007,-0.933,10.275001,-0.13915,0.2937,0.157025
1692595412744,0.90000004,-0.83295006,9.625951,-0.0831875,0.140525,0.1266375
1692595412772,0.89100003,-0.933,9.11205,-0.0396,0.0609125,0.0463375
1692595412801,0.77595,-1.02705,8.6310005,1.375E-4,-0.0165,-0.0543125
1692595412829,0.78795004,-1.24905,8.887051,0.031625,-0.129525,-0.2110625
1692595412857,1.06605,-1.4310001,9.19995,0.0237875,-0.1579875,-0.20253749
1692595412892,0.81405,-0.94305,7.83795,-0.0268125,-0.2013,0.02695
1692595412924,0.73995006,-0.71295005,8.4199505,-0.0759,-0.2382875,0.1907125
1692595412946,0.80700004,-1.062,9.732,-0.06215,-0.2267375,0.158675
1692595412975,0.79695004,-1.1560501,10.62195,-0.026124999,-0.1969,0.089925
1692595413007,0.82395005,-1.01505,9.583051,0.02695,-0.1252625,0.004675
1692595413034,0.31905,-0.95505005,10.392,0.0284625,-0.095699996,-0.00605
1692595413064,0.82905006,-0.77295005,11.7640505,0.0270875,-0.06985,-0.013062499
1692595413095,0.86895007,-0.72,10.729951,0.042625,-0.0055,-0.014162499
1692595413119,0.87405,-0.89295006,11.30895,0.06435,0.0268125,-0.0565125
1692595413145,0.711,-0.70305,11.592001,0.113575,0.0551375,-0.278025
1692595413173,1.302,-0.32505003,10.861951,0.1254,0.0540375,-0.3557125
1692595413202,1.2400501,-0.48600003,11.491051,0.1337875,0.0468875,-0.3738625
1692595413224,0.81900007,-0.69600004,11.56995,0.169125,5.5E-4,-0.3433375
1692595413258,0.78795004,-1.1509501,11.479051,0.1843875,-0.029975,-0.3422375
1692595413285,1.06095,-1.3590001,10.902,0.182325,-0.04015,-0.3592875
1692595413313,0.94605005,-1.27995,10.311001,0.104637496,0.00605,-0.3491125
1692595413342,1.0390501,-0.91605,9.559051,0.0336875,0.0199375,-0.2717
1692595413368,0.73305005,-0.87795,9.784051,-0.089925,-0.00715,-0.0573375
1692595413394,0.64395005,-1.39995,10.065001,-0.105875,-0.0253,0.014712499
1692595413423,0.513,-1.09395,9.9210005,-0.087037496,-0.032725,0.077
1692595413450,0.34005,-0.87105006,9.562051,-0.0858,-0.0160875,0.109175
1692595413476,0.46005002,-0.95205003,9.624001,-0.0889625,0.0132,0.143825
1692595413506,-0.042000003,-0.95505005,9.399,-0.0754875,0.0798875,0.1645875
1692595413533,-0.38895002,-0.23700002,9.088051,-0.0625625,0.1073875,0.1700875
1692595413563,0.40995002,-0.23700002,8.49195,-0.0466125,0.143,0.17655
1692595413590,-0.54195005,-0.61005,9.121051,0.0342375,0.2739,0.088825
1692595413616,-0.573,-1.4599501,10.528951,0.097075,0.3438875,-0.012925
1692595413643,1.9200001,-1.55595,10.30095,0.14905,0.40094998,-0.088825
1692595413671,-0.34605002,-1.2709501,9.658051,0.091437496,0.3760625,-0.011
1692595413700,0.49305,-0.94005007,8.920051,-0.0075625,0.3001625,0.1012
1692595413731,0.96300006,-1.04295,8.96805,-0.14795,0.066825,0.2286625
1692595413759,-0.42195,-0.75795,7.9080005,-0.1486375,-0.022,0.2209625
1692595413788,-0.67095006,-0.49800003,7.8240004,-0.0928125,-0.114675,0.2014375
1692595413812,-0.54195005,-0.89295006,7.8820505,-0.0639375,-0.088825,0.2134
1692595413840,-0.39795002,-1.062,7.1950502,-0.0352,1.375E-4,0.2145
1692595413870,-0.063,-1.23195,7.8480005,-0.0127875,0.193875,0.2198625
1692595413902,0.33795002,-1.5460501,7.4080505,-0.086075,0.20075,0.3361875
1692595413936,-0.13995,-1.3090501,7.18695,-0.146575,0.1441,0.4453625
1692595413969,-0.45600003,-1.9579501,8.446051,-0.2586375,-0.0286,0.7799
1692595413995,-1.4130001,-1.7329501,9.306001,-0.293425,-0.0864875,0.9471
1692595414021,-2.2339501,-1.3399501,9.658051,-0.3136375,-0.08965,1.0525625
1692595414050,-2.1430502,-1.35,9.957001,-0.292875,0.1197625,1.0027875
1692595414075,-2.59605,-0.97905004,10.28205,-0.2343,0.312675,0.9092875
1692595414104,-2.8950002,-0.70605004,10.1320505,-0.0583,0.6664625,0.7623
1692595414135,-2.2080002,-0.85695004,10.29405,0.0317625,0.77494997,0.687775
1692595414162,-1.72395,-0.82305,10.49505,0.1159125,0.8353125,0.5773625
1692595414191,-1.9609501,-0.55695003,10.57005,0.24145,0.7712375,0.2979625
1692595414224,-1.4760001,-0.84195006,12.099001,0.27995,0.4896375,0.1401125
1692595414251,-1.131,-0.40905002,12.312,0.2877875,0.3471875,0.08525
1692595414282,-1.452,-0.105000004,11.577001,0.3025,0.22495,0.00495
1692595414308,-2.0070002,-0.24405001,12.10095,0.345675,0.004675,-0.16293749
1692595414334,-1.9849501,-0.76605004,12.192,0.36905,-0.066275,-0.1920875
1692595414369,-1.8010501,-1.383,12.714001,0.3663,-0.056649998,-0.120725
1692595414392,-1.88205,-1.3260001,12.879001,0.291225,-0.02365,0.0188375
1692595414419,-1.794,-0.44700003,10.455001,0.1618375,-0.0105875,0.23045
1692595414454,-1.5450001,0.20805001,8.3550005,-0.0647625,-0.02585,0.5225
1692595414480,-1.212,-0.0019500001,8.21895,-0.070125,-0.0143,0.4785
1692595414515,-0.73395,-0.73200005,8.98005,0.0826375,0.047025,0.2024
1692595414543,-1.00905,-0.41400003,8.20005,0.1401125,0.0460625,0.1331
1692595414569,-1.0849501,-0.11505,7.7140503,0.08525,-0.065175,0.2574
1692595414593,-0.83400005,-0.15,8.226001,0.0405625,-0.11495,0.296725
1692595414622,-0.77400005,-0.033,8.592,0.0364375,-0.1293875,0.2341625
1692595414650,-0.85995007,0.006,9.29895,0.1214125,-0.1197625,-0.05555
1692595414677,-0.72900003,-0.25095,10.146001,0.165825,-0.1288375,-0.1731125
1692595414703,-1.12395,-0.47100002,11.295,0.2033625,-0.166925,-0.28215
1692595414732,-1.116,-0.675,11.491051,0.1857625,-0.1841125,-0.2739
1692595414763,-1.1740501,-0.49995002,10.49295,0.08965,-0.1750375,-0.1951125
1692595414791,-1.30095,-0.20805001,9.732,0.0378125,-0.1507,-0.170775
1692595414817,-1.6980001,0.07095,9.27,4.125E-4,-0.1189375,-0.1489125
1692595414845,-1.593,0.12900001,9.18105,-0.01375,-0.0768625,-0.113437496
1692595414873,-1.9260001,0.15495001,8.343,0.037675,0.049775,-0.0576125
1692595414899,-2.1670501,0.076050006,7.9680004,0.0853875,0.1232,-0.0592625
1692595414933,-1.9879501,-0.35205,8.14005,0.1463,0.2572625,-0.0243375
1692595414958,-2.0760002,-0.46605003,8.844001,0.1419,0.320375,0.047025
1692595414985,-1.53795,-0.69900006,9.84,0.0411125,0.4090625,0.300575
1692595415015,-1.3060501,-0.342,10.065001,-0.050325,0.3977875,0.4472875
1692595415041,-1.21695,-0.009000001,9.64095,-0.1403875,0.3312375,0.54821247
1692595415071,-1.1689501,0.34905002,9.406051,-0.1936,0.0977625,0.48565
1692595415102,-1.04205,0.507,9.559051,-0.1282875,-0.0037125,0.3243625
1692595415132,-1.06605,0.40395,9.77505,0.1115125,-0.120037496,-0.1439625
1692595415163,-0.882,0.07095,10.531051,0.29755,-0.18425,-0.5154875
1692595415191,-0.78105,-0.097950004,10.95705,0.32381248,-0.2050125,-0.583275
1692595415221,-0.84105,-0.19800001,10.629001,0.3023625,-0.2237125,-0.5710375
1692595415249,-1.389,-0.28005,11.035951,0.1651375,-0.26455,-0.392425
1692595415277,-1.8679501,-0.35205,11.190001,0.0847,-0.269775,-0.264825
1692595415308,-1.9609501,-0.56505,11.359051,-0.0493625,-0.1665125,0.010725
1692595415338,-1.6309501,-0.89295006,10.929001,-0.096525,-0.0603625,0.11495
1692595415367,-1.83,-0.91905004,10.73505,-0.1843875,0.100925,0.2514875
1692595415397,-1.593,-1.08405,11.53905,-0.24213749,0.1219625,0.3356375
1692595415425,-1.5690001,-0.68205005,11.017051,-0.2965875,0.121275,0.4131875
1692595415454,-1.116,-0.26295,8.79105,-0.32505,0.1016125,0.33055
1692595415482,-1.09305,-0.25305,8.875051,-0.2776125,0.087037496,0.1431375
1692595415512,-1.04205,-0.82095003,10.368,-0.0748,0.054175,-0.3576375
1692595415542,-1.03995,-0.57405,9.883051,0.011,0.0276375,-0.555775
1692595415572,-1.23405,-0.55305004,8.932051,0.0303875,-0.0457875,-0.670725
1692595415599,-0.966,-0.89505005,9.77505,0.012925,-0.06985,-0.661375
1692595415628,-0.56595004,-1.302,10.17195,0.0031625,-0.0603625,-0.6571125
1692595415655,-0.882,-1.20105,10.08405,-0.018424999,-0.058575,-0.6304375
1692595415685,-0.84405005,-0.86100006,9.12405,-0.117837496,-0.1274625,-0.4918375
1692595415717,-0.492,-0.44700003,8.109,-0.153725,-0.1544125,-0.4411
1692595415746,-0.89895004,-0.675,9.613951,-0.1170125,-0.127325,-0.5044875
1692595415775,-1.0830001,-0.64395005,9.715051,-0.0636625,-0.1054625,-0.5831375
1692595415804,-1.0900501,-0.26295,8.557051,0.038775,-0.050325,-0.7277875
1692595415834,-1.3969501,0.12900001,7.46505,0.0779625,-0.0050875,-0.7847125
1692595415861,-1.416,-0.033,8.01795,0.1175625,0.04455,-0.8196375
1692595415891,-0.74805003,-0.61200005,8.478001,0.2237125,0.1483625,-0.82774997
1692595415919,-1.164,-0.35205,8.125951,0.2619375,0.1896125,-0.803825
1692595415950,-0.85095006,-0.55305004,9.16395,0.2077625,0.176,-0.5930375
1692595415979,-0.81000006,-0.47100002,8.911051,0.14739999,0.1346125,-0.4538875
1692595416007,-0.61905,-0.13905,8.214001,0.0803,0.0468875,-0.4129125
1692595416037,-0.76005006,0.20805001,8.181001,0.075075,0.001925,-0.481525
1692595416065,-0.39600003,0.094950005,8.382,0.08855,-0.0383625,-0.532125
1692595416095,-0.078,-0.40395,9.102,0.17655,-0.0906125,-0.526625
1692595416123,0.36405003,-1.0890001,9.825001,0.217525,-0.1252625,-0.4752
1692595416154,0.21105,-0.92805004,9.61005,0.14025,-0.283525,-0.1731125
1692595416183,0.63195,-0.93600005,10.158001,-0.1109625,-0.4731375,0.326975
1692595416210,1.0320001,-0.84900004,9.81795,-0.2008875,-0.52854997,0.5137
1692595416240,1.59,-0.77805007,10.407001,-0.2415875,-0.565125,0.627275
1692595416268,1.9750501,-0.60495,10.89,-0.217525,-0.6576625,0.6642625
1692595416299,2.43195,-0.54300004,10.9140005,-0.1758625,-0.7225625,0.6062375
1692595416329,2.19105,-0.59295005,11.371051,-0.0683375,-0.8514,0.457325
1692595416356,2.22405,-0.85395,11.788051,-0.0138875,-0.8905875,0.3909125
1692595416389,2.1070502,-0.9979501,11.875951,0.0462,-0.8635,0.27225
1692595416417,1.3290001,-0.85200006,11.11095,0.037125,-0.8012125,0.2305875
1692595416444,1.28805,-0.90000004,10.91205,0.0114124995,-0.7156875,0.199375
1692595416475,0.99405,-0.864,11.173051,-0.036025,-0.47025,0.1403875
1692595416503,0.864,-0.48600003,10.816051,-0.0482625,-0.3243625,0.106975
1692595416531,0.90300006,-0.15300001,10.087951,-0.047575,-0.0671,0.029424999
1692595416561,1.0489501,-0.17400001,9.92805,-0.0237875,0.02475,-0.029975
1692595416589,0.57495004,-0.29205,9.757951,0.0653125,0.114125,-0.1868625
1692595416619,0.59895,-0.97200006,10.96905,0.1032625,0.122099996,-0.2486
1692595416648,0.45000002,-0.90705,9.64095,0.102575,0.1461625,-0.2726625
1692595416676,0.441,-0.66,9.118951,0.056649998,0.17105,-0.220275
1692595416706,0.54105,-0.25800002,8.82195,-0.004675,0.1923625,-0.1392875
1692595416733,0.66300005,-0.13395001,8.932051,-0.0760375,0.2047375,-0.0281875
1692595416763,1.113,-0.69405,9.535951,-0.056375,0.1936,-0.0204875
1692595416794,1.1590501,-1.13205,9.378,0.032725,0.130625,-0.0177375
1692595416824,1.0540501,-1.1770501,9.38895,0.032725,0.130625,-0.0177375
1692595416852,0.91995007,-1.491,10.38,-0.03795,-0.0561,0.2143625
1692595416878,0.46695003,-0.97905004,9.81795,-0.1082125,-0.0928125,0.33715
1692595416910,0.80205005,-0.75600004,9.784051,-0.1695375,-0.1029875,0.4426125
1692595416939,1.1710501,-0.13605,8.868,-0.1953875,-0.06215,0.5047625
1692595416968,1.2930001,-0.261,9.214951,-0.087037496,-0.0154,0.2014375
1692595416996,1.30005,-0.66,10.17,-0.0122375,-0.022,-0.035475
1692595417027,1.779,-0.82605004,10.18395,0.09515,-0.085525,-0.3268375
1692595417055,1.659,-0.67200005,9.342,0.1043625,-0.124025,-0.3301375
1692595417083,1.779,-0.66300005,8.899051,0.090475,-0.16555,-0.262625
1692595417113,2.052,-0.87795,9.15705,0.0499125,-0.2509375,-0.0873125
1692595417141,1.79295,-0.90195006,9.37005,0.0308,-0.28765,-0.0485375
1692595417172,1.6110001,-1.00995,9.47805,-0.0264,-0.3436125,-0.073425
1692595417201,1.70895,-1.02705,9.40905,-0.0636625,-0.3344,-0.1115125
1692595417230,1.3770001,-0.71295005,9.342,-0.122375,-0.2396625,-0.135025
1692595417258,1.5870001,-0.75795,9.729,-0.128425,-0.1962125,-0.098037496
1692595417287,1.21395,-0.735,10.500001,-0.0826375,-0.1199,-0.0385
1692595417318,1.51995,-0.84495,11.833051,-0.0493625,-0.07095,-0.0677875
1692595417346,2.4439502,-0.25095,11.85,-0.007425,0.04675,-0.215875
1692595417373,1.8910501,-0.109950006,9.44205,0.011825,0.08305,-0.286275
1692595417403,2.2360501,-1.67505,12.71205,0.0422125,0.0699875,-0.335225
1692595417433,2.36295,-2.66595,14.656051,0.09295,-0.065175,-0.33467498
1692595417461,1.9219501,-2.061,11.521951,0.04895,-0.1106875,-0.2355375
1692595417493,2.3800502,-1.4670001,10.333051,-0.1868625,-0.0939125,0.122375
1692595417522,1.6279501,-0.82305,10.062,-0.2761,-0.08855,0.2561625
1692595417552,1.1590501,-0.51705,7.8190503,-0.26785,-0.124575,0.26015
1692595417581,1.14705,-1.5169501,9.519,-0.2068,-0.114675,0.1555125
1692595417610,1.0680001,-1.3069501,8.99205,-0.101475,-0.0067375,-0.0474375
1692595417641,1.04205,-1.1920501,8.28405,-0.0928125,0.0595375,-0.0638
1692595417676,1.437,-1.2400501,8.20005,-0.134475,0.163075,-0.042075
1692595417703,0.89295006,-1.23,7.563,-0.1376375,0.1634875,-0.042625
1692595417731,0.72300005,-1.6660501,9.01395,-0.133925,0.131175,-0.0408375
1692595417759,0.99405,-1.74195,10.419001,-0.139975,0.11055,-0.0537625
1692595417788,1.6279501,-1.5439501,10.053,-0.1546875,0.120725,-0.0576125
1692595417816,0.39795002,-1.1410501,10.392,-0.179575,0.1903,0.023375
1692595417846,0.99105006,-0.79905003,11.3209505,-0.1293875,0.2341625,0.022275
1692595417874,1.5079501,-0.48105,10.254001,-0.0682,0.25905,-0.05335
1692595417902,1.6380001,-0.36405003,8.772,0.0086624995,0.2803625,-0.160875
1692595417931,0.333,-0.615,8.69505,0.17655,0.2080375,-0.3444375
1692595417961,-0.022950001,-1.25205,8.65905,0.238425,0.1219625,-0.374275
1692595417990,-0.492,-1.536,9.057,0.2314125,0.1062875,-0.3174875
1692595418019,-0.88395005,-1.12905,8.305051,0.16115,0.193875,-0.210925
1692595418048,-1.3440001,-0.94005007,8.431951,-0.00605,0.4148375,0.13145
1692595418079,-1.5690001,-1.161,9.09,-0.053625,0.529375,0.2649625
1692595418107,-1.6860001,-1.3069501,9.106951,-0.055825,0.73562497,0.27307498
1692595418137,-1.5109501,-1.3810501,8.86095,-0.0435875,0.8228,0.2123
1692595418164,-1.179,-1.5340501,8.820001,-0.06655,0.88989997,0.29095
1692595418193,-1.4760001,-1.2610501,8.917951,-0.104499996,0.83985,0.45168748
1692595418224,-0.86295,-1.419,9.504001,-0.1813625,0.623425,0.7821
1692595418250,-1.09695,-1.0339501,9.603001,-0.194975,0.506,0.8683125
1692595418280,-0.78405005,-0.9670501,8.104051,-0.187,0.396825,0.9037875
1692595418309,-1.11195,-1.28295,10.203,-0.1161875,0.2077625,0.8933375
1692595418340,-1.15695,-1.12695,12.148951,-0.078925,0.1243,0.909425
1692595418369,-0.98505,-0.76095,12.09,-0.0633875,0.0429,0.9750125
1692595418398,-0.60195005,-0.08295,11.776051,-0.0265375,-0.058025,1.000725
1692595418426,-0.52995,0.27705002,10.443001,0.17435,-0.066,0.4411
1692595418455,-0.13695,-0.24105,9.909,0.309375,-0.0710875,0.0625625
1692595418484,-0.054,-1.0530001,11.14605,0.4277625,-0.0820875,-0.241725
1692595418514,-0.69000006,-0.59295005,10.73505,0.48455,-0.1527625,-0.360525
1692595418543,0.01905,-0.86895007,10.534051,0.2998875,-0.224125,-0.0309375
1692595418571,-0.066,-0.768,9.84195,0.2066625,-0.207075,0.104225
1692595418602,-1.1550001,-0.53595,10.30605,0.084425,-0.18645,0.2992
1692595418629,-1.4130001,-0.49800003,10.054951,0.0462,-0.1881,0.364375
1692595418659,-0.846,-0.88305,10.677,0.0210375,-0.151525,0.403425
1692595418688,-0.67395,-0.69900006,10.486051,-0.00935,0.0185625,0.4101625
1692595418721,-0.96105003,-0.165,9.5449505,-0.026124999,0.07865,0.3752375
1692595418744,-0.846,-0.03795,8.956051,-0.028875,0.0979,0.25355
1692595418775,-0.53505003,-0.19095,8.587951,0.0116875,0.0977625,0.16665
1692595418803,-0.41295,-0.35205,8.71695,0.0705375,0.1007875,0.0672375
1692595418834,-0.83895004,-0.77505004,9.540001,0.14465,0.0702625,-0.0803
1692595418863,-1.06605,-0.80595005,9.579,0.130625,0.0336875,-0.09845
1692595418891,-1.416,-0.79695004,9.259951,0.0213125,0.003025,-0.0429
1692595418920,-1.0180501,-1.062,10.585951,-0.0358875,0.0356125,-0.00385
1692595418949,-0.97005004,-0.99105006,10.351951,-0.1049125,0.1467125,0.0361625
1692595418977,-0.9799501,-0.71805006,9.4470005,-0.12815,0.1687125,0.052249998
1692595419008,-0.68595004,-0.88305,9.916051,-0.1519375,0.1188,0.1392875
1692595419036,-0.31695002,-0.92595005,10.002001,-0.14135,0.0853875,0.17435
1692595419063,-0.23295002,-0.81405,9.86295,-0.121,0.0495,0.16445
1692595419094,-0.23295002,-0.81405,9.86295,-0.121,0.0495,0.16445
1692595419123,-0.47700003,-0.744,9.214951,-0.066,-0.1887875,0.02585
1692595419148,-0.50895,-0.79695004,9.40905,-0.049775,-0.2094125,0.014712499
1692595419176,-0.846,-0.65295005,9.712951,-0.0317625,-0.20019999,-0.0077
1692595419207,-0.65205,-0.41400003,10.005,-0.0045375,-0.1208625,-0.058575
1692595419237,-0.79305005,-0.043050002,10.12395,0.007975,-0.0741125,-0.0446875
1692595419266,-0.76695,0.102000006,10.191001,0.0746625,-0.0094875,0.014712499
1692595419294,-0.96300006,0.18105,10.02105,0.1375,0.0119624995,-0.0257125
1692595419325,-0.66405004,0.20805001,10.186951,0.2776125,0.0466125,-0.2432375
1692595419355,-0.10605001,-0.15300001,10.531051,0.3227125,0.0545875,-0.329175
1692595419384,-0.63795,-0.15,10.407001,0.314875,0.0081124995,-0.2908125
1692595419413,-1.1740501,-0.246,9.94995,0.269775,-0.048675,-0.193325
1692595419442,-0.55395,-0.93795,10.75905,0.2149125,-0.091575,-0.105325
1692595419470,-1.4800501,-1.1890501,10.906951,0.098175,-0.03575,-9.625E-4
1692595419500,-1.473,-1.43805,11.302051,0.018975,0.032449998,0.078099996
1692595419528,-1.2430501,-1.5679501,11.57205,-0.1846625,0.1513875,0.30965
1692595419557,-0.79095006,-1.3279501,11.199,-0.285175,0.18315,0.43505
1692595419585,-1.0159501,-0.93600005,10.960051,-0.4085125,0.1420375,0.5863
1692595419614,-1.164,-0.68700004,10.665001,-0.3969625,0.0950125,0.491425
1692595419643,-1.0570501,-0.74700004,9.40095,-0.2325125,0.066275,-0.051425
1692595419675,-0.81000006,-1.10595,9.816001,-0.1266375,0.089375,-0.336325
1692595419703,-0.89595,-1.077,9.427951,0.004125,0.13475,-0.659725
1692595419731,-1.167,-0.90705,8.566051,0.0086624995,0.133925,-0.693
1692595419759,-0.78900003,-1.12905,8.272051,-0.012375,0.12045,-0.6645375
1692595419789,-0.52500004,-1.5079501,8.253,-0.050049998,0.118525,-0.5999125
1692595419818,-0.45600003,-1.7760001,8.19495,-0.066,0.1192125,-0.609675
1692595419847,-0.51105005,-2.013,8.722051,-0.1711875,0.0295625,-0.498025
1692595419875,-0.37905002,-2.0389502,9.16695,-0.262625,-0.0457875,-0.3246375
1692595419906,-0.38595003,-1.6320001,9.31995,-0.412225,-0.159775,-0.058025
1692595419936,-0.76695,-0.94305,8.68095,-0.4279,-0.1819125,-0.0515625
1692595419965,-0.96300006,-0.354,8.35305,-0.3911875,-0.17407499,-0.1434125
1692595419993,-0.9799501,-0.22200002,8.767051,-0.1522125,-0.03025,-0.6667375
1692595420021,-0.786,-0.47805002,9.436951,0.0279125,0.08965,-1.0033375
1692595420050,-0.666,-0.69105005,9.40095,0.3562625,0.27225,-1.5057625
1692595420076,-0.53205,-0.591,9.604951,0.3562625,0.27225,-1.5057625
1692595420106,-0.39600003,-0.36600003,9.271951,0.48675,0.2486,-1.7557375
1692595420137,-0.14205001,-0.29895002,8.865001,0.45815,0.18755,-1.6314375
1692595420161,0.18900001,-0.651,9.564,0.425425,0.1188,-1.45035
1692595420193,0.16095,-0.897,9.757951,0.3700125,-0.0180125,-1.0979375
1692595420221,0.27600002,-0.89295006,9.49695,0.32395,-0.1005125,-0.9010375
1692595420250,0.59205,-0.94005007,9.49995,0.1692625,-0.2607,-0.4203375
1692595420280,0.45495003,-0.98805004,9.562051,0.0908875,-0.3141875,-0.197175
1692595420308,-0.066,-0.82095003,9.46605,-0.0176,-0.392425,0.1332375
1692595420339,0.20595,-0.864,9.93795,-0.0474375,-0.4057625,0.23485
1692595420367,0.80700004,-0.90000004,10.816051,-0.05995,-0.3378375,0.370425
1692595420396,1.1539501,-0.73005,9.945001,-0.050875,-0.3048375,0.4433
1692595420426,1.695,-0.88095003,9.21195,-0.0193875,-0.3661625,0.5611375
1692595420453,1.2550501,-1.07895,9.81795,6.875E-4,-0.4398625,0.5801125
1692595420484,1.2040501,-1.422,10.878,0.0127875,-0.512875,0.5867125
1692595420515,1.4650501,-1.6150501,11.07495,-0.02035,-0.5751625,0.6235625
1692595420543,1.52505,-1.24395,9.5140505,-0.05995,-0.5498625,0.6703125
1692595420569,0.84300005,-1.00695,9.424951,-0.126775,-0.4818,0.759
1692595420597,0.192,-1.32105,10.099951,-0.135025,-0.4569125,0.7415375
1692595420626,-0.43005002,-1.371,11.415001,-0.1265,-0.4104375,0.6694875
1692595420656,-0.81495005,-0.57405,11.745001,-0.0906125,-0.1618375,0.4538875
1692595420687,0.30405003,-0.18900001,10.59105,-0.0246125,0.2435125,0.192775
1692595420714,0.28305,-0.13395001,10.30605,0.044,0.406175,0.0048125
1692595420745,0.402,-0.44505003,11.403001,0.20047499,0.4538875,-0.4074125
1692595420772,0.048,-0.294,10.821,0.251625,0.3757875,-0.5456
1692595420803,0.48405004,-0.36600003,9.966001,0.2696375,0.22,-0.6105
1692595420832,0.8880001,-0.17400001,8.592,0.25135,0.16555,-0.5765375
1692595420861,0.855,-0.30105,8.47995,0.232375,0.1170125,-0.520025
1692595420889,0.62700003,-0.9979501,9.403951,0.20515,-0.0099,-0.3515875
1692595420919,0.55305004,-1.3090501,9.315001,0.1819125,-0.0803,-0.2497
1692595420948,0.32595003,-1.07895,8.88195,0.052249998,-0.144375,-0.0028875
1692595420977,0.30900002,-0.88500005,8.78205,-0.041249998,-0.13255,0.12595
1692595421007,0.28305,-0.74895006,8.913,-0.1615625,-0.069299996,0.2470875
1692595421033,0.18900001,-0.88500005,9.535951,-0.1670625,-0.0276375,0.21367499
1692595421065,-0.252,-0.85695004,10.13595,-0.148775,0.013062499,0.1431375
1692595421100,-0.15405001,-0.75600004,10.55805,-0.10175,0.087175,-0.00605
1692595421129,0.0049500004,-0.71505004,10.246051,-0.084425,0.136675,-0.0798875
1692595421155,0.18900001,-0.711,10.014001,-0.0429,0.2349875,-0.2355375
1692595421184,0.23295002,-0.82095003,9.64305,0.0050875,0.2237125,-0.3496625
1692595421212,0.22095,-0.96405005,9.87495,0.0202125,0.18425,-0.3818375
1692595421240,0.453,-1.1580001,9.801001,0.022824999,0.1403875,-0.37345
1692595421270,0.68700004,-1.1370001,9.8869505,-0.020624999,0.0515625,-0.203775
1692595421298,0.76395005,-1.161,9.942,-0.0583,-4.125E-4,-0.0804375
1692595421328,0.98205006,-1.1410501,10.086,-0.115637496,-0.11715,0.1117875
1692595421357,0.98205006,-1.1410501,10.086,-0.115637496,-0.11715,0.1117875
1692595421385,1.12995,-0.82095003,9.8539505,-0.112475,-0.2435125,0.174625
1692595421416,1.044,-0.85395,10.066951,-0.0917125,-0.2723875,0.1436875
1692595421444,1.0510501,-0.89295006,10.2300005,-0.0297,-0.3004375,0.0704
1692595421471,1.41495,-0.91200006,10.186951,-0.0028875,-0.2875125,0.0246125
1692595421501,1.36695,-0.70605004,9.978001,0.0132,-0.2629,-0.0276375
1692595421531,0.702,-0.96405005,8.779051,0.028324999,-0.2376,-0.07755
1692595421559,0.42195,-1.67805,10.750951,0.04015,-0.2426875,-0.0664125
1692595421591,1.764,-0.68895006,11.74995,0.0407,-0.20075,0.001375
1692595421613,0.975,1.0500001,4.30305,0.0193875,-0.1450625,0.047575
1692595421647,1.1560501,-0.77505004,9.93,0.0609125,-0.1342,0.0022
1692595421675,0.27600002,-1.536,12.637951,0.13915,-0.1639,-0.1263625
1692595421706,0.14400001,-0.92595005,10.92105,0.187825,-0.146025,-0.2437875
1692595421734,1.5270001,-0.44700003,9.871051,0.067925,0.0664125,-0.2102375
1692595421763,2.028,-0.26295,10.036051,-0.0253,0.2022625,-0.161425
1692595421790,0.49305,-0.71805006,7.9150505,0.00275,0.1491875,-0.220825
1692595421820,0.49095002,-1.7209501,12.304951,0.042625,0.0468875,-0.286
1692595421849,1.1710501,-1.86405,13.21695,0.01375,-0.053625,-0.2553375
1692595421876,2.052,-0.873,10.390051,-0.0867625,-0.0103124995,-0.1161875
1692595421908,1.26405,0.10695001,7.0219502,-0.25905,0.0397375,0.155925
1692595421935,0.67305005,0.061950002,7.4479504,-0.232375,-0.0100375,0.143
1692595421965,-0.37395,-0.77805007,7.056,-0.013475,-0.095699996,-0.07425
1692595421993,-0.066,-1.59405,8.398951,0.078925,-0.0567875,-0.1535875
1692595422023,-0.01995,-2.12295,9.847051,0.0506,0.1491875,-0.113437496
1692595422051,0.37905002,-2.223,10.1320505,-0.0583,0.249975,0.009625
1692595422081,-0.15405001,-1.8720001,9.78195,-0.1854875,0.3147375,0.1841125
1692595422115,0.52695,-1.8139501,10.363951,-0.358325,0.3309625,0.51919997
1692595422143,0.52005005,-1.5799501,9.945001,-0.36905,0.267575,0.5168625
1692595422172,0.73800004,-1.62705,10.012051,-0.330275,0.20487499,0.4246
1692595422201,0.35700002,-1.5630001,9.403951,-0.2765125,0.124437496,0.3491125
1692595422229,0.15405001,-1.77795,9.804001,-0.17613749,-0.0086624995,0.2536875
1692595422259,-0.18495001,-1.6900501,9.94005,-0.146575,-0.0284625,0.1997875
1692595422289,-0.42195,-1.55805,9.70995,-0.130075,-0.0122375,0.1398375
1692595422318,-0.70695,-1.4430001,9.082951,-0.103675,0.1084875,0.0121
1692595422346,-0.62295,-1.524,8.925,-0.0611875,0.2553375,-0.0185625
1692595422373,-0.85305005,-1.4959501,8.74995,-0.0427625,0.292325,0.0785125
1692595422407,-1.00905,-1.4599501,8.88,-0.0317625,0.3056625,0.2124375
1692595422436,-1.2580501,-1.6540501,9.538051,-0.02805,0.3196875,0.3905
1692595422468,-0.78900003,-1.7950501,10.23705,-0.037675,0.3614875,0.41965
1692595422490,-0.36,-1.8499501,10.17,-0.0471625,0.3735875,0.38885
1692595422521,-0.01995,-2.0680501,9.7890005,-0.0572,0.3548875,0.3400375
1692595422550,-0.05595,-2.3119502,9.80805,-0.084975,0.182325,0.30525
1692595422579,-0.19305001,-2.14695,9.43995,-0.11715,0.047575,0.388025
1692595422610,0.64395005,-1.9860001,8.073,-0.2068,-0.18755,0.71775
1692595422638,0.59895,-1.9939501,7.6590004,-0.2388375,-0.2644125,0.874775
1692595422673,-0.62805,-1.7539501,8.69295,-0.2679875,-0.4156625,1.093675
1692595422701,-0.102000006,-1.8360001,9.922951,-0.269775,-0.48455,1.1562375
1692595422727,-0.054,-1.4290501,8.98005,-0.1995125,-0.429825,1.116775
1692595422756,-0.549,-1.1370001,8.703,-0.1243,-0.33385,1.0077375
1692595422784,-0.78405005,-1.3039501,10.498051,-0.038225,-0.2509375,0.87505
1692595422814,-0.23595001,-1.5600001,11.22105,0.1288375,-0.114125,0.6589
1692595422843,-0.13995,-1.59105,10.585951,0.2464,0.0199375,0.4514125
1692595422874,-0.80505,-1.455,10.167001,0.2464,0.0199375,0.4514125
1692595422902,-0.693,-1.5480001,11.259001,0.2561625,0.0171875,0.4115375
1692595422931,0.10605001,-1.5079501,11.641951,0.207075,0.0144375,0.5685625
1692595422958,-0.38205,-1.19895,10.564951,0.18865,0.0290125,0.60885
1692595422986,-0.42705002,-1.1730001,9.583051,0.17173749,0.008525,0.606925
1692595423015,-0.537,-1.43805,9.8560505,0.14025,-0.075625,0.530475
1692595423046,-0.19695,-1.5870001,10.1320505,0.119625,-0.0479875,0.39435
1692595423070,0.13905,-1.6030501,10.57005,0.119625,-0.0479875,0.39435
1692595423101,-0.25500003,-0.804,8.500951,0.0537625,-0.0353375,0.3821125
1692595423137,-0.70695,-0.684,8.7289505,0.0050875,-0.1148125,0.38115
1692595423163,-0.015000001,-0.99300003,9.399,0.0301125,-0.1241625,0.282975
1692595423189,-0.25995,-0.96405005,9.50895,0.1271875,-0.0193875,-0.047575
1692595423217,-0.64995,-1.00995,10.00695,0.15785,0.0308,-0.22659999
1692595423249,-0.351,-1.36395,10.519051,0.1606,0.062425,-0.462275
1692595423276,-0.15705001,-1.6350001,10.965,0.145475,0.0749375,-0.472725
1692595423304,0.075,-1.7260501,11.589001,0.11825,0.0814,-0.3980625
1692595423333,-0.46305,-1.194,10.78695,0.0144375,0.02475,-0.109725
1692595423361,-1.026,-0.73695004,10.041,-0.0336875,-0.0165,-0.02695
1692595423390,-0.69000006,-0.74895006,10.206,-0.018424999,0.00275,-0.0862125
1692595423421,-0.89400005,-0.61200005,10.512,0.039049998,0.0664125,-0.1397
1692595423449,-0.93900007,-0.39705002,10.534051,0.15345,0.1739375,-0.1604625
1692595423478,-0.65505004,-0.31605002,9.84,0.193875,0.1970375,-0.1555125
1692595423505,-0.40305,-0.36795002,9.436951,0.2605625,0.205975,-0.1896125
1692595423535,-0.31500003,-0.40695003,9.232051,0.2827,0.1860375,-0.2068
1692595423564,-0.29295,-0.43995002,9.066,0.2893,0.1447875,-0.2058375
1692595423595,-0.29295,-0.43995002,9.066,0.2893,0.1447875,-0.2058375
1692595423623,-0.74295,-0.43095002,8.272051,0.19813749,-0.0026125,-0.1832875
1692595423650,-0.762,-0.47805002,8.413051,0.170775,0.0229625,-0.14905
1692595423689,-0.86805004,-0.64095,9.693001,0.1188,0.0845625,-0.0196625
1692595423712,-0.95595,-0.30600002,9.15705,0.0925375,0.10395,0.0735625
1692595423741,-0.41295,-0.273,9.0400505,0.0697125,0.114675,0.167475
1692595423772,-0.303,-0.17895001,9.43995,0.059125,0.107525,0.290125
1692595423801,-0.62805,-0.162,10.10295,0.097075,0.020624999,0.2729375
1692595423826,-0.69000006,-0.28005,10.30095,0.1243,-0.0383625,0.1772375
1692595423857,-0.09,-0.39705002,10.620001,0.148225,-0.07535,0.049775
1692595423885,0.24705002,-0.67005,11.524951,0.1447875,-0.09515,-0.111237496
1692595423913,-0.09195001,-0.66495,11.215951,0.1115125,-0.127325,-0.1049125
1692595423945,-0.19695,-1.0510501,11.338051,0.065725,-0.18053749,-0.058025
1692595423982,-0.44595003,-1.197,11.6629505,-0.0361625,-0.2451625,0.06435
1692595424004,-0.75495005,-1.23195,11.90505,-0.14465,-0.19195,0.1890625
1692595424033,-1.07295,-1.2420001,12.288,-0.1912625,-0.143,0.24145
1692595424062,-1.485,-1.05495,12.183001,-0.219175,-0.0845625,0.2712875
1692595424091,-1.84695,-0.62700003,11.60805,-0.2135375,0.0754875,0.22605
1692595424119,-1.8079501,-0.25095,10.5379505,-0.183425,0.1753125,0.1342
1692595424147,-1.07595,-0.28005,9.885,-0.053625,0.3744125,-0.1945625
1692595424175,-0.89400005,-0.20295002,8.829,0.0341,0.4387625,-0.3944875
1692595424204,-1.16205,-0.41895002,7.8580503,0.1654125,0.40755,-0.6994625
1692595424232,-1.1050501,-0.84000003,7.8930006,0.1912625,0.34155,-0.774125
1692595424263,-0.54705,-1.2970501,8.583,0.1904375,0.2847625,-0.7976375
1692595424291,-0.82005006,-0.9979501,8.001,0.0809875,0.2085875,-0.63965
1692595424319,-0.98505,-0.78705,7.8619504,-0.01485,0.1563375,-0.494175
1692595424349,-0.88005006,-0.85395,8.535001,-0.1302125,0.067925,-0.45265
1692595424378,-0.504,-0.82995003,8.334001,-0.124025,0.0721875,-0.558525
1692595424407,-0.64500004,-0.86595005,8.458051,-0.072875,0.08965,-0.6573875
1692595424435,-0.72405005,-0.9480001,8.938951,-0.0573375,0.0529375,-0.61765
1692595424465,-0.81195,-0.97605,9.612,-0.0488125,0.0020625,-0.5633375
1692595424493,-0.03195,-0.72300005,9.406051,-0.0350625,-0.0372625,-0.5559125
1692595424523,-0.61395,-0.061950002,8.205,-0.0050875,-0.041249998,-0.690525
1692595424551,-0.74505,-0.13905,8.382,0.0413875,-0.060225,-0.7990125
1692595424582,-0.48195,-0.507,9.184051,0.113025,-0.0719125,-0.924275
1692595424611,-0.453,-0.64095,9.885,0.2332,-0.0474375,-1.0616375
1692595424639,-0.78405005,-0.273,8.85105,0.2388375,-0.0407,-1.0395
1692595424667,-0.015000001,-0.54105,8.20905,0.2179375,-0.0457875,-0.9920625
1692595424696,0.13395001,-0.98805004,8.986951,0.1676125,-0.0477125,-0.9076375
1692595424723,0.27600002,-1.24395,8.88195,0.102575,-0.11,-0.70042497
1692595424754,0.043050002,-1.32105,8.913,0.03025,-0.186725,-0.4522375
1692595424784,0.34305,-1.4100001,9.8539505,-0.1518,-0.316525,0.105325
1692595424810,0.71400005,-1.28505,10.17,-0.216425,-0.3388,0.2721125
1692595424842,0.96000004,-0.91395,10.07205,-0.2523125,-0.3477375,0.363
1692595424871,1.1230501,-0.77805007,10.017,-0.24145,-0.3986125,0.405625
1692595424900,0.9289501,-0.58395004,10.61505,-0.18933749,-0.4362875,0.33935
1692595424928,1.48905,-0.27705002,11.118001,-0.022824999,-0.484,0.1233375
1692595424957,1.48905,-0.342,11.26095,0.064075,-0.4907375,0.0477125
1692595424986,0.87900007,-0.69405,11.78295,0.2028125,-0.48221248,-0.0408375
1692595425021,0.70605004,-1.04295,11.722951,0.2376,-0.4554,-0.064625
1692595425051,0.65595,-1.065,10.222051,0.19855,-0.3128125,-0.0268125
1692595425077,0.33495003,-1.21095,10.467001,0.135025,-0.2215125,0.025024999
1692595425112,0.34995002,-1.2870001,11.395051,-0.0015125,-0.087725,0.1126125
1692595425138,0.62295,-0.77295005,10.737,-0.0562375,-0.0347875,0.1335125
1692595425163,0.62505,-0.55695003,10.179001,-0.094325,0.0163625,0.1414875
1692595425193,0.56505,-0.45405003,9.637951,-0.0823625,0.0724625,0.060775
1692595425225,0.50505,-0.744,10.194,0.0185625,0.0583,-0.1326875
1692595425256,0.53895,-0.81600004,10.01895,0.055275,0.0479875,-0.1958
1692595425282,0.44295,-0.57705003,9.30795,0.064899996,0.04455,-0.2448875
1692595425310,0.57705003,-0.61995006,9.1380005,0.030524999,0.0512875,-0.36574998
1692595425341,0.68700004,-0.744,8.986951,0.017875,0.049775,-0.39545
1692595425370,0.67800003,-0.79005,8.96595,0.0166375,0.0218625,-0.3377
1692595425399,0.81705004,-0.83505005,9.16695,0.011,-0.00275,-0.2693625
1692595425427,0.711,-0.91905004,9.424951,-0.010175,-0.055275,-0.061325
1692595425457,0.441,-0.96195006,9.898951,-0.021724999,-0.0721875,0.0111375
1692595425485,0.50805,-0.96405005,10.239,-0.0506,-0.069025,0.04015
1692595425515,0.642,-0.88500005,10.14105,-0.061049998,-0.0474375,0.067925
1692595425546,0.70905006,-0.342,9.813001,-0.0598125,8.25E-4,0.120725
1692595425574,0.67800003,-0.18900001,9.946951,-0.0396,0.011275,0.0889625
1692595425602,0.85995007,-0.19605,9.859051,2.75E-4,0.013062499,0.0059125
1692595425632,0.94605005,-0.38700002,9.897,0.055275,0.0111375,-0.108899996
1692595425661,0.915,-0.72705,9.873,0.154275,-0.0100375,-0.296725
1692595425689,1.0699501,-0.84705,9.76095,0.1694,-0.0345125,-0.31845
1692595425720,1.52505,-0.97395,9.17895,0.1115125,-0.0939125,-0.1890625
1692595425748,1.38405,-0.83295006,9.14505,0.0595375,-0.1263625,-0.0606375
1692595425777,1.7719501,-0.91605,8.817,-0.033,-0.2272875,0.2409
1692595425806,1.3789501,-0.88995004,9.361051,-0.0840125,-0.3257375,0.3573625
1692595425834,0.97905004,-0.69105005,9.670051,-0.0924,-0.35021248,0.3223
1692595425865,0.86895007,-0.75405,10.11495,-0.090475,-0.34814999,0.2765125
1692595425892,0.9289501,-0.90000004,11.311951,-0.0616,-0.2259125,0.1926375
1692595425920,0.71805006,-0.84195006,12.267,-0.0385,-0.124437496,0.14973749
1692595425950,1.7020501,-0.97200006,12.705001,0.0023375,0.0518375,0.074525
1692595425977,1.4770501,-0.58095,11.866951,0.014712499,0.1076625,0.0180125
1692595426008,1.47195,-0.51900005,10.89,0.036575,0.1126125,-0.136125
1692595426037,1.7050501,-1.05495,11.875951,0.051425,0.0669625,-0.2041875
1692595426067,1.8889501,-1.0699501,10.12695,0.0529375,-0.027224999,-0.2424125
1692595426095,2.667,-0.708,9.945001,0.02805,-0.0614625,-0.1780625
1692595426123,2.913,-0.12900001,9.861,0.0011,-0.1871375,0.0565125
1692595426152,2.664,-0.14595,9.556951,0.02255,-0.31075,0.1370875
1692595426182,2.0010002,-0.83505005,10.191001,0.100237496,-0.5204375,0.0451
1692595426210,2.8579502,-1.16505,10.002001,0.1181125,-0.5358375,-0.0671
1692595426238,2.36295,-0.39705002,8.101951,0.100099996,-0.507375,-0.1329625
1692595426267,1.7809501,-0.20805001,7.1320505,0.0517,-0.46461248,-0.1236125
1692595426297,0.79695004,-0.294,7.4149504,-0.0317625,-0.391875,-0.0521125
1692595426322,1.7190001,-1.1410501,8.953951,-0.034925,-0.34705,-0.0968
1692595426353,1.7170501,-1.2900001,9.828,-0.0240625,-0.17613749,-0.253825
1692595426383,1.1880001,-0.54495,8.523001,-0.089237496,-0.009625,-0.1276
1692595426413,0.64695,-0.273,8.49405,-0.12773749,0.048125,-0.02805
1692595426440,0.12705001,-0.41895002,8.953951,-0.1379125,0.11055,-0.00715
1692595426470,0.333,-0.98595005,9.052051,-0.080025,0.301125,-0.2222
1692595426501,0.15405001,-1.06005,9.109051,-0.053075,0.41965,-0.36135
1692595426542,-0.28395,-0.82605004,8.7619505,-0.082775,0.5988125,-0.4131875
1692595426580,-0.53505003,-1.161,9.48795,-0.15125,0.66275,-0.3114375
1692595426617,-0.55395,-1.5270001,10.371,-0.15619999,0.7222875,-0.2949375
1692595426654,-0.49395,-1.48905,9.898951,-0.1802625,0.7453875,-0.2052875
1692595426691,-0.21405001,-1.4100001,9.4800005,-0.238425,0.6598625,0.0306625
1692595426727,-0.351,-1.31595,9.17205,-0.25355,0.572,0.1991
1692595426740,-0.52005005,-1.2760501,9.279,-0.25245,0.4665375,0.3702875
1692595426759,-0.65505004,-1.16805,9.34395,-0.2358125,0.3674,0.5163125
1692595426782,-0.14505,-1.7299501,9.44205,-0.2094125,0.293425,0.627
1692595426807,-0.94395006,-1.8790501,9.76305,-0.163625,0.1992375,0.865425
1692595426839,-0.549,-2.01495,10.996051,-0.16499999,0.155925,1.055725
1692595426868,0.076950006,-1.4239501,10.846951,-0.2327875,0.084425,1.44375
1692595426895,0.010050001,-1.1580001,10.033051,-0.26221249,0.0507375,1.517725
1692595426925,-0.324,-1.1149501,10.83495,-0.18755,-0.0429,1.281775
1692595426955,-0.45600003,-1.3879501,11.680051,-0.0895125,-0.072875,1.02685
1692595426983,-1.2529501,-1.35,11.323951,0.082499996,-0.0584375,0.59235
1692595427012,-0.62595004,-1.66305,11.335951,0.1148125,-0.0286,0.5159
1692595427043,-0.68295,-1.40205,12.385951,0.1126125,0.0094875,0.533775
1692595427072,-0.98205006,-0.37995002,11.62005,0.0529375,0.06325,0.6675625
1692595427101,-1.0180501,0.15195,9.64095,0.0408375,0.067925,0.658075
1692595427129,-0.62595004,0.22200002,8.455951,0.16733749,0.11055,0.3229875
1692595427159,-0.537,-0.00705,9.153001,0.2833875,0.1621125,0.0303875
1692595427187,-0.13695,-0.51705,9.8560505,0.4533375,0.2102375,-0.468325
1692595427217,0.12195001,-0.45900002,9.088051,0.4591125,0.166925,-0.48235
1692595427244,-0.079950005,-0.39495003,8.889001,0.3344,-0.00495,-0.10065
1692595427274,0.08895,-0.49500003,9.150001,0.25753748,-0.0908875,0.091299996
1692595427303,-0.03705,-0.507,9.44505,0.198825,-0.1571625,0.2030875
1692595427334,-0.29295,-0.40695003,9.531,0.1287,-0.2212375,0.2706
1692595427365,-0.14205001,-0.51705,10.1959505,0.09405,-0.1984125,0.235125
1692595427392,-0.21195,-0.52395004,10.222051,0.0881375,-0.16225,0.1783375
1692595427420,-0.40800002,-0.45195,10.041,0.083325,-0.12773749,0.124575
1692595427450,-0.68100005,-0.39900002,9.604951,0.06435,-0.07975,0.0785125
1692595427478,-0.78405005,-0.49800003,9.283951,0.05555,-0.047849998,0.0598125
1692595427511,-0.303,-0.84705,9.448951,0.0419375,0.0471625,0.027775
1692595427540,-0.19695,-0.71805006,9.37005,0.0254375,0.0930875,0.0561
1692595427567,-0.34800002,-0.45405003,9.03495,-0.0397375,0.10065,0.19965
1692595427598,-0.76905006,-0.055050004,8.599951,-0.0686125,0.0594,0.2446125
1692595427632,-0.42000002,0.00405,8.82705,-0.0479875,0.017324999,0.155925
1692595427657,-0.48195,0.0,9.030001,0.010725,0.042075,0.018975
1692595427684,-0.89400005,-0.21795002,9.813001,0.0836,0.0716375,-0.1431375
1692595427709,-0.86505,-0.44700003,10.036051,0.1788875,0.0889625,-0.332475
1692595427744,-0.20205002,-0.67905,11.521951,0.157575,0.124437496,-0.23045
1692595427771,-0.73605,-0.55995005,12.133051,0.1106875,0.1335125,-0.0862125
1692595427803,-1.2049501,-0.51705,11.922001,0.0534875,0.11385,0.0790625
1692595427831,-0.20895001,-1.0000501,11.934001,-0.0242,0.0732875,0.23155
1692595427859,0.75195,-1.575,14.047951,-0.0383625,0.0862125,0.2047375
1692595427886,0.393,-1.6300501,13.297951,-0.121825,-0.006875,0.2871
1692595427917,-1.1400001,-1.26795,10.984051,-0.201025,-0.1568875,0.4225375
1692595427946,0.08895,-2.21895,14.076,-0.3146,-0.320925,0.58355
1692595427975,-0.72195005,-1.1509501,11.6629505,-0.3389375,-0.25575,0.5944125
1692595428003,-1.674,0.016050002,6.2850003,-0.3741375,-0.1397,0.545875
1692595428033,-0.12105001,-1.0860001,10.242001,-0.34265,-0.09075,0.3892625
1692595428063,-0.54705,-0.76305,10.677,-0.267575,-0.0042625,0.1417625
1692595428093,-1.00605,-0.63195,7.8240004,-0.099275,0.090475,-0.30195
1692595428120,-0.216,-1.5409501,8.10705,-0.039325,0.0759,-0.411125
1692595428149,-0.37695003,-1.6510501,8.547,0.0081124995,0.0994125,-0.51865
1692595428176,-0.03705,-1.21605,8.071051,-0.034375,0.1043625,-0.4659875
1692595428203,-0.33600003,-0.648,6.73995,-0.11055,0.0779625,-0.3276625
1692595428229,0.028950002,-1.09395,7.8289504,-0.2058375,0.0011,-0.141625
1692595428257,-0.34095,-1.06005,8.752951,-0.1929125,-0.020075,-0.1744875
1692595428284,-0.846,-0.49305,8.109,-0.1645875,-0.039875,-0.2338875
1692595428312,-0.372,-0.43995002,8.89395,-0.0763125,-0.0254375,-0.4376625
1692595428343,-0.22095,-0.35595003,9.27705,0.004125,0.058575,-0.63525
1692595428371,-0.73605,0.09705,9.082951,0.19305,0.22,-1.0505
1692595428410,-0.68805003,-0.025950002,9.415951,0.34759998,0.201575,-1.3058375
1692595428436,-0.46095002,-0.040050004,9.574051,0.414975,0.208175,-1.4007125
1692595428461,0.14205001,-0.03795,9.243,0.4648875,0.229625,-1.459425
1692595428486,0.40995002,0.13605,9.468,0.4742375,0.181225,-1.4056625
1692595428543,-0.054,0.0139500005,9.327001,0.4074125,-0.1233375,-1.157475
1692595428564,0.31605002,-0.91395,10.61505,0.4074125,-0.1233375,-1.157475
1692595428642,-0.09705,-0.52395004,9.222,-0.075625,-0.2044625,0.0328625
1692595428675,0.762,-0.402,9.721951,-0.185625,-0.18053749,0.19965
1692595428702,1.0320001,-0.13905,9.757951,-0.212575,-0.154,0.237325
1692595428730,0.76905006,-0.15300001,9.33705,-0.115637496,-0.1865875,0.2033625
1692595428760,0.537,-0.35205,9.942,-0.0471625,-0.2580875,0.22453749
1692595428789,0.79995006,-0.65805006,11.28495,0.050049998,-0.35365,0.3031875
1692595428817,0.81405,-0.51705,10.31805,0.0620125,-0.3334375,0.3388
1692595428846,1.4130001,-0.67695004,9.97605,0.0246125,-0.265925,0.4445375
1692595428874,1.23105,-0.56505,11.215951,-0.0050875,-0.26895,0.5115
1692595428902,1.57305,-0.51195,11.070001,-0.0312125,-0.302225,0.5698
1692595428934,1.38405,-0.21795002,9.66705,-0.0435875,-0.3903625,0.584375
1692595428955,1.2,-0.49800003,9.885,-0.0246125,-0.4082375,0.5115
1692595428988,1.161,-0.90405005,10.960051,0.0281875,-0.3757875,0.2836625
1692595429016,1.269,-0.83505005,10.816051,0.0331375,-0.32835,0.201575
1692595429043,1.14495,-0.462,9.562051,-0.02035,-0.2160125,0.1489125
1692595429071,1.00605,-0.162,9.01605,-0.0482625,-0.17215,0.13859999
1692595429099,0.72795004,-0.28695002,9.736951,-0.0548625,-0.1392875,0.118525
1692595429128,0.50505,-0.54795,10.45005,0.0033,-0.0815375,0.0477125
1692595429156,0.54405004,-0.51405,9.70995,0.0383625,-0.0363,0.0064625
1692595429185,0.83805007,-0.52395004,9.184051,0.051425,0.02365,-0.020624999
1692595429217,0.79995006,-0.77505004,9.217051,0.023924999,0.126225,-0.02805
1692595429238,0.84300005,-0.93105006,9.816001,0.0039875,0.1362625,-0.0275
1692595429270,0.54795,-0.77805007,10.111951,-0.0429,0.091299996,0.0077
1692595429298,0.59205,-0.423,9.47595,-0.069575,0.0694375,0.0479875
1692595429326,0.59595,-0.18405001,8.916,-0.09185,0.0807125,0.079475
1692595429356,0.83100003,-0.31605002,9.562051,-0.0705375,0.1016125,0.047849998
1692595429386,1.2280501,-0.59805006,9.904051,0.0196625,0.1035375,-0.0341
1692595429415,1.6810501,-0.68700004,9.90705,0.0528,0.0727375,-0.0675125
1692595429442,2.157,-0.69600004,9.696,0.0386375,-0.0647625,-0.1288375
1692595429470,2.35605,-0.66795003,9.64305,0.00715,-0.1742125,-0.120175
1692595429500,2.1379502,-0.711,9.0070505,-0.021724999,-0.2963125,-0.07755
1692595429526,1.7689501,-0.75795,9.4800005,-0.0507375,-0.4923875,0.0284625
1692595429556,1.554,-0.82995003,10.17,-0.0556875,-0.527725,0.0631125
1692595429586,1.1659501,-0.61200005,10.5720005,-0.0675125,-0.4360125,0.087175
1692595429611,1.02495,-0.117000006,10.61295,-0.0710875,-0.3311,0.09185
1692595429639,0.77595,0.42495003,10.81095,-0.0595375,-0.2063875,0.077825
1692595429669,0.90000004,0.58605003,10.96905,0.0407,0.0518375,-0.12485
1692595429699,0.41895002,0.19800001,11.115001,0.1197625,0.1568875,-0.3144625
1692595429726,0.015000001,-0.507,12.85095,0.245025,0.29067498,-0.6578
1692595429752,0.99105006,-0.75105006,13.34895,0.24915,0.3482875,-0.74635
1692595429782,1.5949501,0.045,10.45005,0.20253749,0.406175,-0.7618875
1692595429807,2.253,0.08295,8.52795,0.06435,0.3949,-0.6100875
1692595429838,1.338,-0.38505003,9.67695,0.040425,0.2816,-0.5050375
1692595429868,2.0059502,-0.92595005,10.278001,0.0691625,-0.0083875,-0.2981
1692595429897,2.0659502,-0.78705,9.363001,0.064075,-0.1093125,-0.155925
1692595429925,2.2099502,-1.2540001,9.415951,-0.043449998,-0.2550625,0.2222
1692595429955,2.2099502,-1.194,10.455001,-0.1093125,-0.3309625,0.3982
1692595429986,1.5990001,-0.20805001,8.746051,-0.22385,-0.438625,0.59345
1692595430016,1.4770501,0.049950004,8.04405,-0.2561625,-0.4393125,0.5473875
1692595430044,0.975,-0.47595003,8.67105,-0.1838375,-0.327525,0.1574375
1692595430070,0.99105006,-0.54795,9.267,-0.111237496,-0.2431,-0.0583
1692595430103,1.125,-0.57195,8.676001,-0.0364375,-0.056649998,-0.2556125
1692595430131,1.0030501,-0.60300004,8.346001,-0.0413875,0.0248875,-0.2644125
1692595430159,0.546,-0.69105005,8.32695,-0.0598125,0.08195,-0.2701875
1692595430189,0.61305004,-0.94005007,8.394,-0.099825,0.167475,-0.2949375
1692595430219,0.975,-1.39005,8.73795,-0.113575,0.2228875,-0.27775
1692595430247,0.3,-1.3230001,9.70995,-0.132,0.2699125,-0.221375
1692595430276,0.015000001,-1.266,9.579,-0.20927499,0.270875,-0.023375
1692595430305,-0.10395,-0.85905004,9.43305,-0.2594625,0.3315125,0.112475
1692595430333,-0.042000003,-0.90705,9.45195,-0.24475,0.4142875,0.088
1692595430362,0.13395001,-1.35195,9.99495,-0.209825,0.480975,0.0176
1692595430390,-0.71895003,-1.40505,10.12395,-0.1269125,0.490325,0.0017875
1692595430422,-0.60405004,-1.8090001,10.10505,-0.111925,0.4637875,0.0792
1692595430450,-1.1880001,-1.51005,9.21195,-0.1489125,0.47245,0.18975
1692595430479,-1.1689501,-1.39995,9.351001,-0.1780625,0.5031125,0.2476375
1692595430508,-1.1359501,-1.4500501,9.574051,-0.201025,0.5289625,0.3601125
1692595430536,-0.91995007,-1.536,9.765,-0.2066625,0.546975,0.6386875
1692595430565,-1.15005,-1.338,10.12905,-0.195525,0.531025,0.729025
1692595430594,-1.143,-1.074,10.653001,-0.1739375,0.4217125,0.9186375
1692595430621,-0.597,-0.88305,11.154,-0.113299996,0.3020875,1.0153
1692595430654,-0.74505,-0.61995006,10.749001,-0.057475,0.2486,0.983125
1692595430683,-0.70695,-0.74700004,10.52595,0.007975,0.18205,0.9310125
1692595430707,-0.65895003,-1.1770501,11.151001,0.12155,0.0446875,0.8655625
1692595430736,-0.38595003,-1.07895,11.742001,0.1428625,-0.0028875,0.8933375
1692595430766,-0.38205,-0.70605004,10.80405,0.10835,-0.0785125,0.971025
1692595430797,-0.45795003,-0.52395004,9.68595,0.0878625,-0.1172875,0.9263375
1692595430825,-0.35295,-0.78705,10.5379505,0.0875875,-0.14739999,0.79805
1692595430852,-0.59205,-0.66,11.194051,0.127875,-0.1557875,0.426525
1692595430882,-0.85605,-0.17895001,10.078951,0.1373625,-0.1445125,0.2965875
1692595430909,-0.84405005,-0.10005,9.21195,0.1387375,-0.09845,0.1519375
1692595430938,-0.64695,-0.51900005,10.191001,0.163075,-0.048125,0.0378125
1692595430966,-0.56100005,-0.56700003,10.11495,0.2253625,0.054449998,-0.1843875
1692595430997,-0.70005006,-0.28695002,9.061951,0.2184875,0.06655,-0.184525
1692595431025,-0.42705002,-0.33,8.65905,0.1555125,0.0424875,-0.024475
1692595431053,-0.35505003,-0.45705003,9.232051,0.1370875,0.038775,0.037125
1692595431084,-0.17805001,-0.52395004,8.95905,0.116875,0.0166375,0.0581625
1692595431114,-0.18300001,-0.43800002,9.241051,0.0972125,-0.0191125,0.0606375
1692595431143,0.051000003,-0.522,9.727051,0.0727375,-0.0620125,0.0726
1692595431171,-0.08505,-0.30405003,9.430051,0.0363,-0.1299375,0.099275
1692595431205,-0.43905002,-0.109950006,9.54705,0.034649998,-0.1744875,0.053625
1692595431234,-0.82905006,0.028050002,9.30795,0.052249998,-0.17545,-0.0413875
1692595431265,-0.97005004,0.03795,9.18105,0.0815375,-0.14739999,-0.1505625
1692595431292,-1.1209501,-0.028050002,8.93505,0.1505625,-0.00495,-0.2657875
1692595431320,-0.64305,-0.35595003,9.118951,0.1755875,0.08525,-0.2820125
1692595431350,-0.78105,-0.43800002,9.424951,0.17655,0.221925,-0.2776125
1692595431379,-0.96105003,-0.38700002,9.552,0.146575,0.23925,-0.260425
1692595431408,-0.915,-0.186,9.990001,0.0605,0.194425,-0.2578125
1692595431438,-0.882,-0.08295,10.846951,0.0295625,0.171875,-0.2613875
1692595431466,-1.14795,-0.411,12.042001,0.02255,0.1408,-0.2099625
1692595431495,-1.212,-0.69600004,12.736051,0.0413875,0.1232,-0.214775
1692595431522,-1.5469501,-0.615,12.109051,0.0545875,0.1065625,-0.2475
1692595431554,-1.2100501,-1.0720501,11.887951,0.011275,0.1021625,-0.1986875
1692595431582,-1.215,-1.2540001,11.319,-0.0323125,0.122375,-0.1101375
1692595431623,-1.07295,-1.2919501,10.828051,-0.1419,0.1496,0.1029875
1692595431645,-1.0999501,-1.21095,10.44495,-0.211475,0.12979999,0.2267375
1692595431672,-0.64695,-1.18005,10.420951,-0.3218875,0.0600875,0.4373875
1692595431699,-0.81495005,-0.61995006,9.571051,-0.346775,0.0287375,0.5214
1692595431733,-1.0540501,-0.42795002,9.064051,-0.3229875,-0.0378125,0.5405125
1692595431763,-0.46800002,-0.75105006,9.47805,-0.1637625,-0.0385,0.1848
1692595431793,-0.633,-0.98595005,10.05,-0.06765,-0.0088,-0.0589875
1692595431821,-1.0690501,-1.113,9.77505,-0.001925,0.0072875,-0.2781625
1692595431852,-1.0849501,-1.09395,8.877001,0.0044,-0.003025,-0.53185
1692595431880,-0.98505,-1.1080501,9.459001,-0.0286,0.009625,-0.5380375
1692595431914,-0.93900007,-0.591,8.887051,-0.093225,0.061049998,-0.406175
1692595431942,-0.49695003,-0.37305,8.71905,-0.1057375,0.0774125,-0.36135
1692595431970,-1.0710001,0.022950001,8.535001,-0.0375375,0.09075,-0.47575
1692595431998,0.24195,-0.39195,9.05895,0.0540375,0.0968,-0.6441875
1692595432036,-0.64305,0.23400001,8.655001,0.2723875,0.121825,-1.049675
1692595432062,-1.09695,0.351,8.856,0.3509,0.0988625,-1.189375
1692595432090,-0.19005,0.51900005,8.236051,0.43285,-0.0100375,-1.2376375
1692595432119,0.55605,0.20805001,7.6540504,0.4626875,-0.0281875,-1.1935
1692595432148,0.55095005,-0.36405003,9.018001,0.49513748,-0.096525,-0.976525
1692595432176,0.47400004,-0.66795003,10.351951,0.458425,-0.209825,-0.73974997
1692595432206,0.80700004,-0.246,9.78705,0.370425,-0.344025,-0.43395
1692595432235,1.49205,0.117000006,8.14005,0.122237496,-0.5218125,0.09625
1692595432264,1.18005,-0.25305,9.394051,0.0407,-0.5643,0.20185
1692595432294,2.025,-1.2730501,11.158051,0.02145,-0.659175,0.176
1692595432323,2.358,-1.4500501,11.26605,0.0221375,-0.6975375,0.192775
1692595432352,2.535,-1.005,10.857,-0.091437496,-0.7321875,0.506275
1692595432382,1.7670001,-0.57705003,10.917001,-0.2299,-0.799975,0.8349
1692595432410,1.76205,-0.43800002,10.431001,-0.2391125,-0.803275,0.8430125
1692595432440,1.7070001,-0.261,10.09305,-0.2066625,-0.7568,0.74855
1692595432468,1.23105,-0.31305,9.966001,-0.0853875,-0.5555,0.4239125
1692595432499,1.26705,-0.87105006,10.177051,-0.03135,-0.4411,0.272525
1692595432529,0.64695,-1.24905,11.91195,0.0235125,-0.23375,0.087725
1692595432563,0.16305001,-0.54300004,11.920051,-0.028875,-0.02695,0.11385
1692595432591,0.36405003,-0.072000004,11.161051,-0.0735625,0.0895125,0.1665125
1692595432619,0.86895007,0.17595,9.84405,-0.08635,0.2066625,0.1698125
1692595432648,1.56105,-0.093,9.724951,0.025024999,0.3345375,-0.0160875
1692595432678,1.1179501,-0.25305,9.94995,0.100375,0.3014,-0.11
1692595432708,0.81195,-0.21300001,9.865951,0.1736625,0.1057375,-0.157575
1692595432734,0.90495,-0.093,9.61905,0.168575,0.0254375,-0.1412125
1692595432764,1.1730001,-0.112050004,9.259951,0.1199,-0.0011,-0.1670625
1692595432796,0.77595,-0.43500003,9.13095,0.099,0.0097624995,-0.2259125
1692595432825,0.91695005,-0.70305,9.17895,0.066,-0.00495,-0.26345
1692595432854,1.3290001,-0.9979501,8.908051,0.0378125,-0.012925,-0.1923625
1692595432885,1.25205,-1.1080501,8.80095,-0.0545875,-0.0251625,0.0759
1692595432915,0.702,-0.86100006,9.406051,-0.11605,-0.0583,0.22687499
1692595432945,0.59205,-0.72705,9.637951,-0.176,-0.100375,0.34375
1692595432971,0.441,-0.47100002,9.768001,-0.22605,-0.0818125,0.36313748
1692595432999,0.41895002,-0.31605002,9.76095,-0.20253749,-0.0070125,0.2773375
1692595433030,0.18705001,-0.30405003,10.43295,-0.0902,0.1544125,0.0506
1692595433057,0.20895001,-0.354,10.620001,-0.026124999,0.2116125,-0.0455125
1692595433086,0.31605002,-0.39900002,10.43595,0.0583,0.2981,-0.22715
1692595433115,0.45495003,-0.36795002,10.075951,0.06985,0.3256,-0.373725
1692595433145,0.69195,-0.37800002,9.84405,0.056925,0.3073125,-0.632225
1692595433174,0.70605004,-0.45000002,9.550051,0.0485375,0.2578125,-0.6241125
1692595433202,0.864,-0.65595,9.59805,0.0422125,0.190025,-0.5289625
1692595433232,0.79005,-0.76995003,9.5140505,0.0209,0.0512875,-0.2536875
1692595433263,0.864,-0.64095,9.483001,-1.375E-4,-0.0012375,-0.1189375
1692595433296,1.3770001,-0.67905,9.684,-0.04895,-0.073425,0.0983125
1692595433316,1.42005,-0.57705003,9.672001,-0.0639375,-0.0963875,0.1445125
1692595433350,1.5780001,-0.40395,9.670051,-0.0592625,-0.1610125,0.1714625
1692595433379,1.5109501,-0.40395,9.4800005,-0.0422125,-0.2167,0.2123
1692595433407,1.4940001,-0.57705003,9.861,-0.0199375,-0.268125,0.24695
1692595433437,1.302,-0.84900004,10.68,0.0229625,-0.30085,0.18205
1692595433465,2.01105,-0.51705,10.359,0.0314875,-0.2921875,0.139975
1692595433496,2.2339501,0.04695,8.7960005,0.0114124995,-0.2605625,0.1337875
1692595433524,2.0760002,-0.23400001,8.52495,0.0237875,-0.3163875,-0.0045375
1692595433551,1.8240001,-0.59295005,9.47805,0.0567875,-0.375375,-0.1007875
1692595433582,1.48695,-1.1410501,10.49295,0.0867625,-0.41387498,-0.1450625
1692595433606,1.353,-0.97605,10.873951,0.0435875,-0.3542,-0.0559625
1692595433638,1.113,-0.30600002,9.97605,-0.0284625,-0.2586375,0.0077
1692595433665,1.2040501,-0.072000004,9.38895,-0.0946,-0.14025,0.0358875
1692595433695,0.81195,0.26295,9.813001,-0.1010625,0.0708125,-0.0422125
1692595433727,1.1850001,-0.49305,10.174951,0.03575,0.1758625,-0.2800875
1692595433755,0.74205005,-0.69405,10.548,0.101475,0.2072125,-0.4554
1692595433783,0.75000006,-0.94500005,12.61095,0.125125,0.22893749,-0.59482497
1692595433812,0.58695,-0.38700002,11.44995,0.01375,0.26455,-0.6021125
1692595433841,1.4170501,-0.40395,9.64095,-0.06655,0.2981,-0.5581125
1692595433870,1.815,-0.69405,10.82295,-0.115637496,0.329175,-0.5553625
1692595433900,0.726,-1.0309501,11.983951,-0.111237496,0.27665,-0.614075
1692595433929,1.542,-1.5820501,10.00905,-0.1018875,0.1285625,-0.4926625
1692595433962,3.0859501,-1.06005,9.945001,-0.1282875,0.093225,-0.3727625
1692595433989,2.1790502,0.033,7.6399503,-0.17613749,0.0518375,-0.2234375
1692595434020,1.30005,-0.16695,8.403001,-0.2311375,-0.20899999,0.09735
1692595434050,2.25795,-0.70095,9.354,-0.0719125,-0.4420625,0.0829125
1692595434079,3.3420002,-0.75405,9.84,0.014025,-0.447975,-0.0204875
1692595434107,2.08305,0.13095,9.1380005,0.037125,-0.4448125,-0.124575
1692595434139,1.9270501,0.22905001,7.37895,0.013475,-0.504625,-0.1255375
1692595434167,2.11905,-0.24105,7.3020005,0.033275,-0.5174125,-0.24475
1692595434196,1.26705,-1.4959501,8.962951,0.0697125,-0.4379375,-0.34595
1692595434227,0.30405003,-1.26405,9.607051,0.076725,-0.2671625,-0.3069
1692595434265,0.78795004,-0.837,8.05095,-8.25E-4,-0.1450625,-0.105875
1692595434290,0.11805001,-0.20805001,7.5130506,-0.208175,0.18645,0.3194125
1692595434315,-0.123,-0.27495003,8.17095,-0.2366375,0.315975,0.374275
1692595434348,0.74700004,-1.3069501,10.18395,-0.122099996,0.5055875,0.1590875
1692595434377,0.16800001,-1.26405,10.774951,-0.062975,0.59688747,0.027775
1692595434406,-0.33600003,-0.94995004,9.23595,-0.079475,0.669075,0.0862125
1692595434433,-0.20505,-1.029,9.4470005,-0.11385,0.648175,0.1907125
1692595434460,-0.76695,-0.96195006,9.769951,-0.131725,0.62479997,0.2292125
1692595434492,-0.52500004,-1.2760501,10.311001,-0.122237496,0.612975,0.1577125
1692595434522,-0.76695,-1.1770501,9.42105,-0.1078,0.622325,0.143275
1692595434550,-1.011,-1.419,9.411,-0.0856625,0.633325,0.24419999
1692595434579,-1.107,-1.48905,11.118001,-0.098037496,0.608025,0.37015
1692595434608,-0.51600003,-1.098,11.071951,-0.1617,0.511225,0.753775
1692595434637,-0.36495003,-1.0819501,10.906951,-0.1797125,0.4477,0.96745
1692595434666,-0.20205002,-1.314,11.604,-0.17173749,0.3672625,1.1070125
1692595434695,0.16605,-1.5990001,11.73795,-0.0895125,0.198825,0.8751875
1692595434723,-0.15405001,-1.5679501,11.635051,-0.0506,0.122925,0.623975
1692595434755,-0.45795003,-1.503,11.467051,-0.048675,-0.0471625,0.479875
1692595434777,-0.432,-1.3590001,11.200951,-0.0680625,-0.113025,0.5839625
1692595434809,-0.88905007,-0.51195,10.543051,-0.08305,-0.119625,0.7568
1692595434838,-0.90795004,-0.21000001,9.648001,-0.0625625,-0.072875,0.7079875
1692595434869,-0.83400005,-0.17205001,9.14505,-0.0127875,-0.0045375,0.5361125
1692595434894,-0.726,-0.41895002,9.8230505,0.15785,0.150975,-0.0121
1692595434921,-0.88905007,-0.51705,9.861,0.2388375,0.2044625,-0.22715
1692595434951,-0.64005005,-0.56700003,9.571051,0.2954875,0.23375,-0.2946625
1692595434981,-0.693,-0.49995002,9.10005,0.2806375,0.230175,-0.2954875
1692595435011,-0.564,-0.67200005,9.44505,0.23595,0.2000625,-0.4481125
1692595435042,-0.53205,-0.70095,9.315001,0.176,0.138325,-0.405625
1692595435066,-0.504,-0.768,9.66195,0.176,0.138325,-0.405625
1692595435100,-0.324,-0.86895007,9.883051,0.088275,0.0595375,-0.10945
1692595435129,-0.633,-0.85395,9.96195,0.001375,-0.0350625,0.2278375
1692595435158,-0.45105,-0.75105006,9.861,-0.03135,-0.0749375,0.3243625
1692595435186,-0.52305,-0.62205005,9.768001,-0.0617375,-0.0908875,0.348975
1692595435221,-0.70500004,-0.45405003,9.29895,-0.057475,-0.0757625,0.33467498
1692595435251,-0.86805004,-0.43095002,9.35805,-0.038775,-0.0609125,0.3075875
1692595435278,-0.75705004,-0.46905002,9.162001,0.0275,-0.0185625,0.16665
1692595435307,-0.75705004,-0.54105,9.33705,0.058025,0.0155375,0.1049125
1692595435334,-0.777,-0.63195,9.65505,0.0829125,0.0675125,0.1577125
1692595435367,-0.84105,-0.60495,9.528001,0.077825,0.0746625,0.20295
1692595435393,-0.85800004,-0.47400004,9.78195,0.0578875,0.08635,0.0968
1692595435423,-0.80505,-0.052050002,10.198951,0.0499125,0.106837496,-0.0589875
1692595435451,-1.1209501,0.13305001,9.703051,0.0556875,0.0991375,-0.031075
1692595435480,-1.143,-0.15795001,10.488001,0.0801625,0.08415,0.022275
1692595435509,-0.84795004,-0.25095,11.5990505,0.19085,0.100375,-0.0534875
1692595435540,-0.77400005,-0.12900001,10.882951,0.2288,0.12155,-0.122099996
1692595435568,-1.0180501,-0.47100002,10.629001,0.197725,0.0859375,-0.062975
1692595435596,-0.63105005,-1.386,11.58195,0.161975,0.0457875,-0.011
1692595435625,-0.32700002,-1.7809501,12.4129505,0.054175,0.01485,0.0798875
1692595435653,-0.57795,-1.1200501,12.04905,-0.0628375,-0.0132,0.229625
1692595435684,-0.63495004,-0.45000002,11.137051,-0.20625,-0.073975,0.4301
1692595435713,-0.15900001,-0.13905,11.022,-0.3339875,-0.172975,0.5732375
1692595435741,-0.34800002,0.18105,10.395,-0.2652375,-0.168575,0.4310625
1692595435770,-0.44595003,0.23895001,9.2029505,-0.018975,-0.141075,-0.0218625
