@ HyperIMU - ianovir
@ Date:Mon Aug 21 08:56:02 GMT+03:00 2023, Sampling Rate:25ms

timestamp,bma4xy_accelerometer.x,bma4xy_accelerometer.y,bma4xy_accelerometer.z,oem_pseudo_gyro.x,oem_pseudo_gyro.y,oem_pseudo_gyro.z
1692597362526,-0.051000003,-0.28695002,9.97095,0.0086624995,0.072325,0.021724999
1692597362564,0.04605,-0.37800002,9.816001,-0.102437496,-0.15015,-0.256025
1692597362586,0.18495001,-0.49500003,9.80805,-0.1934625,-0.2462625,-0.44701248
1692597362617,-0.50595003,0.10695001,10.134001,-0.2981,-0.341,-0.704
1692597362645,-0.28095,-0.13095,10.078951,-0.3213375,-0.3554375,-0.703725
1692597362692,-0.16905001,-0.13905,9.54705,-0.3117125,-0.3069,-0.5621
1692597362719,-0.51105005,-0.025950002,9.703051,-0.229625,-0.20515,-0.6296125
1692597362749,-0.17595,-0.36105,9.84405,-0.1863125,-0.1662375,-0.69313747
1692597362774,0.10305001,-0.354,10.02105,-0.1232,-0.0935,-0.693825
1692597362800,0.132,-0.52905005,9.828,-0.1142625,-0.0719125,-0.6183375
1692597362825,0.08895,-0.44295,9.66195,-0.122925,-0.0779625,-0.4895
1692597362862,0.076950006,-0.47400004,9.708,-0.158675,-0.1390125,-0.152625
1692597362881,0.13395001,-0.52605003,9.993,-0.1689875,-0.159775,-0.026675
1692597362910,0.93900007,-1.20105,10.2300005,-0.1703625,-0.165825,0.0297
1692597362938,0.87195003,-1.0510501,9.604951,-0.17325,-0.1749,0.0328625
1692597362967,0.23295002,-0.342,9.9210005,-0.1984125,-0.2171125,0.0787875
1692597362995,-0.38595003,0.054,9.84195,-0.231825,-0.2820125,0.1483625
1692597363023,-0.28095,-0.08805001,9.35595,-0.2050125,-0.3040125,0.097625
1692597363051,-0.13005,-0.23205002,9.564,-0.121,-0.2068,-0.0323125
1692597363079,-0.22395001,-0.24105,9.946951,0.0493625,0.0319,-0.209825
1692597363107,-0.126,-0.34695002,10.1650505,0.0840125,0.0952875,-0.2303125
1692597363134,0.028950002,-0.39195,9.892051,0.0812625,0.130625,-0.2574
1692597363162,0.156,-0.37605003,9.76095,0.0672375,0.1252625,-0.2454375
1692597363191,0.29205,-0.43500003,9.981001,0.0276375,0.073699996,-0.161425
1692597363218,0.14895001,-0.411,9.883051,0.00935,0.0352,-0.1464375
1692597363248,-0.022950001,-0.20595,9.658051,-0.014575,-0.0375375,-0.104499996
1692597363276,0.039,-0.22200002,9.552,-0.0163625,-0.05335,-0.055275
1692597363305,0.28305,-0.36105,9.46395,-0.0070125,-0.0484,-0.0264
1692597363329,0.21795002,-0.61995006,10.134001,0.0088,-0.0334125,-0.0259875
1692597363356,0.024,-0.49305,10.321051,0.0144375,-0.0309375,0.0083875
1692597363382,0.19695,-0.31800002,9.918,-0.002475,-0.0429,0.0427625
1692597363427,0.177,-0.40395,10.11495,-0.0320375,-0.0490875,0.0589875
1692597363442,0.177,-0.40395,10.11495,-0.0320375,-0.0490875,0.0589875
1692597363478,-0.094050005,-0.19395001,9.66705,-0.032725,-0.0468875,0.0537625
1692597363512,0.16305001,-0.165,9.250951,-0.0132,-0.0383625,-0.0342375
1692597363543,0.16305001,-0.165,9.250951,-0.0132,-0.0383625,-0.0342375
1692597363594,0.16305001,-0.165,9.250951,-0.0132,-0.0383625,-0.0342375
1692597363632,0.10305001,-0.45405003,9.92595,-0.011275,-0.0506,0.1860375
1692597363681,0.10305001,-0.45405003,9.92595,-0.011275,-0.0506,0.1860375
1692597363724,0.10305001,-0.45405003,9.92595,-0.011275,-0.0506,0.1860375
1692597363752,0.076950006,-0.45405003,9.636001,-0.0188375,0.0561,-0.0609125
1692597363801,0.04605,-0.44295,9.99495,-0.0067375,0.0609125,-0.0438625
1692597363851,-0.078,-0.46905002,9.934951,-0.016224999,0.037125,-0.0977625
1692597363897,-0.015000001,-0.34695002,9.744,-0.027224999,0.026124999,-0.0363
1692597363940,0.15795001,-0.462,9.816001,-0.024475,0.0372625,0.0143
1692597363978,-0.049050003,-0.35595003,9.682051,-0.0037125,0.0242,-0.011
1692597364038,-0.09705,-0.43305,9.95895,0.00605,0.016775,-0.139975
1692597364076,-0.07305,-0.49995002,9.916051,0.017875,0.035475,-0.1874125
1692597364114,-0.006,-0.45000002,9.835051,0.0191125,0.0578875,-0.1579875
1692597364161,0.08205,-0.45900002,9.92805,-0.013612499,0.0358875,-0.0928125
1692597364193,0.14595,-0.46395,9.62895,-0.0248875,0.00715,-0.0955625
1692597364212,0.16605,-0.47100002,9.784051,-0.0287375,-0.0121,-0.054725
1692597364245,0.063,-0.45705003,9.79605,-0.030524999,-0.033275,0.014162499
1692597364270,0.052950002,-0.39195,9.75105,-0.03025,-0.051425,0.0686125
1692597364323,-0.018000001,-0.43800002,9.682051,-0.013475,-0.0504625,0.0661375
1692597364345,0.0,-0.37605003,9.693001,-0.00495,-0.0389125,0.0779625
1692597364375,-0.06105,-0.49500003,9.84195,0.0048125,-0.0143,0.0782375
1692597364402,-0.066,-0.57900006,9.83205,0.0048125,-0.002475,0.073699996
1692597364425,-0.05595,-0.53595,9.81795,5.5E-4,0.0064625,0.10065
1692597364449,-0.078,-0.49800003,9.765,-0.00825,0.01155,0.1656875
1692597364474,-0.07305,-0.55695003,9.765,-0.0281875,0.01705,0.27307498
1692597364507,-0.09,-0.48600003,9.42105,-0.0334125,0.0204875,0.259875
1692597364530,-0.109050006,-0.56700003,9.7890005,-0.03795,0.0265375,0.1637625
1692597364558,-0.17295001,-0.63195,9.8539505,-0.039049998,0.029975,0.1115125
1692597364587,-0.279,-0.51195,9.47295,-0.0400125,0.034375,0.07645
1692597364614,-0.432,-0.65295005,9.555,-0.0468875,0.047025,0.0974875
1692597364643,-0.492,-0.84705,9.49005,-0.048675,0.060775,0.09625
1692597364673,-0.83400005,-0.73005,9.1380005,-0.05115,0.1106875,0.0086624995
1692597364701,-1.0999501,-0.49995002,8.941951,-0.062975,0.1403875,-0.0075625
1692597364728,-1.06605,-0.78495,8.97795,-0.077,0.1764125,0.00495
1692597364756,-0.93900007,-1.02705,9.33405,-0.072325,0.28105,-0.0367125
1692597364784,-1.116,-1.04595,9.516001,-0.0691625,0.3276625,-0.082225
1692597364810,-0.9990001,-0.957,8.62395,-0.0859375,0.35021248,-0.082499996
1692597364840,-1.023,-0.88995004,7.8930006,-0.1496,0.3278,0.0441375
1692597364867,-1.36995,-0.66795003,8.17095,-0.1678875,0.3029125,0.1013375
1692597364897,-1.5259501,-0.71505004,8.523001,-0.166925,0.2712875,0.1464375
1692597364924,-1.4490001,-1.0890001,8.34795,-0.139425,0.2842125,0.105325
1692597364950,-1.6480501,-1.2079501,8.379001,-0.0677875,0.3499375,-0.0506
1692597364978,-1.71,-1.218,9.078,-0.0683375,0.3700125,-0.0895125
1692597365007,-1.9930501,-0.82305,8.27595,-0.093775,0.379225,-0.1172875
1692597365037,-1.9210501,-0.35205,7.7980504,-0.10945,0.413325,-0.36107498
1692597365060,-1.0639501,-0.75105006,8.67105,-0.0496375,0.458425,-0.6446
1692597365092,0.17295001,-1.1010001,8.764951,0.1925,0.505725,-1.37665
1692597365122,0.66300005,-0.53295004,7.3360505,0.253,0.3883,-1.4810125
1692597365151,0.27105,0.022950001,6.4570503,0.2138125,0.1494625,-1.2500125
1692597365179,-0.19005,0.32205,6.7180505,0.087175,-0.3823875,-0.5619625
1692597365205,0.031050002,-0.54300004,8.18295,0.1266375,-0.513425,-0.5058625
1692597365231,0.15405001,-1.36905,10.555051,0.2256375,-0.5286875,-0.628375
1692597365259,-0.03705,-1.20105,11.379001,0.3169375,-0.446875,-0.6906625
1692597365285,-0.147,-1.09095,10.36095,0.21725,-0.44701248,-0.436975
1692597365315,-0.039,-1.09095,9.45405,-0.0298375,-0.4433,0.0504625
1692597365338,0.192,-0.85695004,9.95895,-0.0836,-0.3939375,0.1023
1692597365370,0.45495003,-0.99300003,10.09305,-0.1035375,-0.2875125,0.0757625
1692597365397,0.537,-1.0669501,9.625951,-0.0946,-0.2726625,0.0768625
1692597365425,0.9580501,-1.06005,9.981001,-0.0853875,-0.28435,0.09295
1692597365452,1.353,-1.2760501,10.543051,-0.081675,-0.311575,0.122237496
1692597365482,1.2040501,-1.6660501,11.776051,-0.0782375,-0.41085,0.2407625
1692597365510,0.55305004,-1.113,10.82295,-0.081125,-0.4813875,0.3180375
1692597365537,0.31395,-1.04295,11.07495,-0.1139875,-0.531025,0.347325
1692597365564,0.69000006,-1.4500501,11.778001,-0.1153625,-0.4643375,0.2701875
1692597365594,0.36195,-1.40205,11.44995,-0.0636625,-0.2490125,0.087037496
1692597365617,0.26595002,-1.4790001,10.99995,-0.047849998,-0.1634875,0.0493625
1692597365649,0.24900001,-1.09395,10.67205,-0.050049998,-0.10175,0.0573375
1692597365677,-0.01995,-0.44700003,10.002001,-0.0661375,-0.0138875,0.1249875
1692597365705,-0.32700002,-0.50505,9.097051,-0.0504625,0.022,0.124437496
1692597365734,0.15105,-1.0510501,10.60995,-0.0061875,0.0606375,0.0627
1692597365761,0.72795004,-2.5150502,11.53905,0.1078,0.1519375,-0.1975875
1692597365787,1.48905,-2.709,10.830001,0.112475,0.16499999,-0.2704625
1692597365816,0.52500004,-2.604,10.677,-0.0891,0.0023375,8.25E-4
1692597365843,0.28005,-2.2399502,11.44095,-0.2429625,-0.1265,0.284625
1692597365873,0.33495003,-2.60595,10.407001,-0.4145625,-0.2349875,0.6996
1692597365896,0.20895001,-2.4169502,10.97595,-0.4098875,-0.20047499,0.740575
1692597365929,-0.74100006,-2.0410502,11.28495,-0.3823875,-0.148225,0.7170625
1692597365957,-0.76500005,-2.11995,10.10505,-0.32587498,-0.0383625,0.6098125
1692597365986,0.29205,-2.1319501,10.02105,-0.2794,0.0576125,0.5011875
1692597366014,0.77595,-2.5540502,10.830001,-0.18315,0.24365,0.300025
1692597366041,0.67305005,-2.424,11.269051,-0.1623875,0.2233,0.30855
1692597366068,0.10095,-1.3980001,11.553,-0.1606,0.11055,0.407825
1692597366098,-1.2270001,-1.2760501,12.02505,-0.1073875,-0.117837496,0.5435375
1692597366128,-0.69495004,-1.24695,11.091001,-0.01045,-0.09625,0.41635
1692597366162,0.78795004,-0.57195,9.117001,0.207625,0.170775,0.016775
1692597366179,1.0849501,-0.47100002,8.932051,0.26675,0.2619375,-0.1062875
1692597366222,0.46005002,-0.85395,11.42205,0.3249125,0.128425,-0.2299
1692597366253,-0.37005,-1.608,12.729001,0.3521375,-0.018975,-0.2534125
1692597366284,-0.058050003,-1.4239501,12.0060005,0.35035,-0.1337875,-0.2179375
1692597366310,0.28005,-1.0699501,9.94995,0.2187625,2.75E-4,-0.122237496
1692597366340,0.441,-1.02705,8.841001,0.1549625,0.042625,-0.0724625
1692597366375,1.0180501,-1.21305,8.500951,0.093637496,0.0053625,0.055
1692597366406,1.3099501,-1.383,8.953951,0.0759,-0.053075,0.1617
1692597366438,0.252,-0.39705002,10.13895,0.0350625,-0.1997875,0.3268375
1692597366465,0.30705002,-0.282,10.15305,0.0248875,-0.2464,0.3234
1692597366502,0.108,-0.97605,7.9800005,0.091575,-0.1782,0.0526625
1692597366534,0.537,-0.82605004,10.345051,0.1511125,-0.0994125,-0.13915
1692597366563,0.015000001,-1.14405,10.375951,0.16775,-0.01595,-0.2189
1692597366595,-0.252,0.17400001,9.174001,0.102025,0.003575,-0.0867625
1692597366628,-0.48495004,-0.56205004,9.054001,0.093225,0.0400125,-0.087175
1692597366662,0.73305005,-0.80595005,10.404,0.1739375,0.1643125,-0.22715
1692597366690,0.651,-1.5990001,11.371051,0.199375,0.170775,-0.1304875
1692597366722,0.031050002,-1.4929501,10.857,0.1370875,0.078099996,0.0400125
1692597366754,-0.25005,-0.82305,9.883051,-0.0407,-0.08085,0.3117125
1692597366781,-0.84795004,-0.049950004,9.415951,-0.1098625,-0.066275,0.3669875
1692597366815,0.16800001,-0.711,8.63595,-0.100375,0.0757625,0.2619375
1692597366844,1.1730001,-1.0339501,8.69295,-0.035475,0.1496,0.1354375
1692597366870,0.582,-1.04595,9.259951,0.0213125,0.17613749,0.0309375
1692597366901,0.22800002,-1.2040501,10.953,0.0089375,-0.0023375,-0.0097624995
1692597366935,0.9580501,-1.3470001,9.945001,-0.0275,-0.1170125,-0.0075625
1692597366966,1.74495,-2.085,10.476001,-0.0719125,-0.199375,0.01925
1692597366995,0.58695,-0.91200006,8.88405,-0.148775,-0.3177625,0.2448875
1692597367028,0.78795004,-0.51705,9.603001,-0.1936,-0.4041125,0.3529625
1692597367064,1.176,-1.31595,10.846951,-0.1500125,-0.3903625,0.2314125
1692597367088,0.61605,-0.63195,8.793,-0.0636625,-0.3001625,0.033275
1692597367123,-0.075,0.29595003,8.16405,0.040975,-0.1802625,-0.1500125
1692597367152,-0.36195,0.351,8.30805,0.09735,-0.091299996,-0.08525
1692597367177,0.702,-0.38295,9.607051,0.1705,0.0105875,-0.1802625
1692597367283,0.64395005,-1.1340001,9.19305,0.036575,0.0429,0.0199375
1692597367321,0.076950006,-0.44700003,9.84,-0.0259875,0.066275,0.0836
1692597367352,-0.36195,-0.19800001,9.625951,0.0408375,0.1274625,-0.0815375
1692597367385,-0.74505,-0.45405003,10.593,0.093225,0.160875,-0.130075
1692597367420,0.63195,-2.17995,12.859951,0.182325,0.286275,-0.175725
1692597367445,0.21300001,-1.3740001,11.509951,0.1714625,0.34347498,-0.1255375
1692597367472,0.20595,-0.76605004,11.44095,-0.0187,0.2589125,0.18865
1692597367508,1.6020001,-0.342,10.194,-0.10615,0.1656875,0.2987875
1692597367534,1.6470001,-0.31800002,10.15095,-0.1188,0.099825,0.2899875
1692597367562,0.81900007,-0.47595003,10.71105,0.022824999,-0.0570625,0.0831875
1692597367590,-0.62295,-1.1410501,12.20205,0.090475,-0.182325,8.25E-4
1692597367618,0.42600003,-0.33,10.309051,0.1194875,-0.2952125,-0.1016125
1692597367651,0.010050001,0.009000001,10.122001,0.1057375,-0.22893749,-0.18425
1692597367680,-0.91305006,-0.21495001,11.52,0.1087625,-0.0229625,-0.46915
1692597367710,0.90000004,-0.73005,10.069051,0.1243,0.072875,-0.6567
1692597367741,0.76605004,-1.8379501,9.96195,0.124437496,0.2479125,-0.9612625
1692597367774,-1.128,-1.113,9.93,0.003575,0.157025,-0.9087375
1692597367798,-1.0830001,-0.95205003,9.379951,-0.102025,0.0653125,-0.787325
1692597367832,0.89805007,-1.69395,8.84595,-0.2849,0.136125,-0.6150375
1692597367865,0.10095,-1.575,9.63105,-0.341825,0.201025,-0.5680125
1692597367894,-0.39405003,-1.46895,8.236051,-0.4037,0.145475,-0.4992625
1692597367928,1.07295,-1.524,7.6450505,-0.4052125,0.1309,-0.523875
1692597367959,-0.351,-0.80895007,8.32005,-0.36107498,0.154,-0.6106375
1692597367991,-0.15195,-1.6470001,8.82705,-0.3262875,0.1054625,-0.6045875
1692597368022,0.41400003,-2.19,8.592,-0.2036375,0.0551375,-0.6023875
1692597368055,0.24405001,-2.3449502,9.5140505,-0.19965,0.0834625,-0.4631
1692597368091,-0.20895001,-2.33295,9.315001,-0.278575,0.0411125,-0.2952125
1692597368106,0.031050002,-2.2690501,9.15705,-0.3568125,-0.00605,-0.1500125
1692597368145,-0.432,-1.6489501,7.9030504,-0.42515,0.00275,-0.0526625
1692597368172,-0.48195,-2.0029502,10.041,-0.4002625,0.0658625,-0.0374
1692597368205,-0.25995,-2.1349502,9.94995,-0.36355,0.1007875,-0.0158125
1692597368237,-1.389,-2.082,8.99205,-0.24585,0.174625,0.0213125
1692597368269,-2.29695,-1.9530001,8.688001,-0.1879625,0.1967625,0.02035
1692597368301,-1.6650001,-2.3140502,8.54205,-0.1392875,0.3576375,-0.0452375
1692597368337,-1.0350001,-2.841,8.2879505,-0.1524875,0.65615,-0.117837496
1692597368366,-1.10895,-2.80305,9.02805,-0.1524875,0.65615,-0.117837496
1692597368393,-1.0900501,-2.81205,9.693001,-0.364925,0.3680875,0.678425
1692597368430,-1.3560001,-2.6470501,9.46605,-0.4313375,0.1568875,1.0256125
1692597368456,-1.866,-2.3430002,8.88,-0.4268,-0.098037496,1.3182125
1692597368488,-1.7010001,-2.6830502,10.27005,-0.3806,-0.120175,1.3039125
1692597368522,-1.22895,-2.7499502,10.504951,-0.2701875,-0.037675,1.1966625
1692597368554,-0.77895004,-1.9939501,9.27,-0.1859,-0.02035,1.157475
1692597368584,-1.02795,-1.524,9.351001,-0.1480875,-0.089237496,1.13465
1692597368617,-1.9110001,-1.149,9.064051,-0.0342375,-0.2297625,0.9625
1692597368646,-1.8970501,-1.12695,9.47595,0.065175,-0.2140875,0.7825125
1692597368677,-2.02395,-1.7830501,12.337951,0.1758625,-0.135575,0.5731
1692597368706,-1.23405,-2.4079502,12.550951,0.3540625,0.106837496,0.1491875
1692597368740,-2.0760002,-1.2900001,10.998,0.396825,0.171325,-0.0463375
1692597368769,-1.8540001,-0.93600005,10.479,0.344025,0.0966625,0.0158125
1692597368802,-2.35605,-0.94500005,11.446051,0.2897125,0.0345125,0.0583
1692597368826,-1.9540501,-1.25205,11.946,0.3271125,0.08745,-0.0166375
1692597368856,-1.69095,-1.041,10.584001,0.4145625,0.208175,-0.15675
1692597368884,-2.1670501,-0.81795,9.01605,0.42625,0.216975,-0.2013
1692597368916,-0.61395,-1.5010501,7.7140503,0.367675,0.1615625,-0.188925
1692597368949,-0.29295,-1.6110001,8.49405,0.2993375,0.1381875,-0.0831875
1692597368978,-0.48195,-1.4100001,7.9270506,0.193875,0.0818125,0.10835
1692597369010,-0.669,-1.2970501,6.8190002,-0.1942875,-0.33673748,0.76615
1692597369038,-0.57105005,-1.6300501,7.9200006,-0.251075,-0.4057625,0.8443875
1692597369065,-0.13995,-2.3500502,10.012051,-0.2707375,-0.420475,0.862675
1692597369101,-0.97005004,-1.5630001,9.715051,-0.29205,-0.424875,0.8492
1692597369133,-0.93900007,-1.3980001,10.14795,-0.29535,-0.4525125,0.7601
1692597369158,-0.51795,-1.5340501,10.10805,-0.2352625,-0.40094998,0.63305
1692597369190,-1.36995,-1.1560501,10.675051,-0.0545875,-0.22275,0.3106125
1692597369224,-0.90795004,-1.3930501,10.866,0.0242,-0.1645875,0.1672
1692597369257,-1.0900501,-0.924,9.76305,0.1392875,-0.0639375,-0.014025
1692597369286,-0.83895004,-0.84705,9.234,0.1764125,-0.012375,-0.0785125
1692597369318,-0.69795,-1.24395,9.540001,0.2267375,0.0441375,-0.2652375
1692597369347,-0.43905002,-1.24905,8.81505,0.22715,0.0405625,-0.3025
1692597369380,-0.47700003,-1.12905,8.178,0.1582625,-0.0323125,-0.168025
1692597369419,-0.82005006,-1.4599501,9.44505,0.0658625,-0.11715,-0.010725
1692597369446,-0.55605,-1.8570001,9.816001,0.0331375,-0.1346125,0.0457875
1692597369476,-0.31005,-2.1010501,10.045051,0.0055,-0.1296625,0.0991375
1692597369504,-0.53205,-2.2350001,10.608001,-0.0930875,-0.124437496,0.234025
1692597369536,-0.34095,-2.046,10.455001,-0.22825,-0.1857625,0.35035
1692597369566,-0.28395,-1.98405,10.12905,-0.2671625,-0.2030875,0.3755125
1692597369596,-0.66405004,-1.7760001,10.042951,-0.2794,-0.2024,0.3806
1692597369628,-0.58005005,-2.0299501,10.76595,-0.2453,-0.1898875,0.32065
1692597369659,-0.41505003,-1.9579501,10.395,-0.1637625,-0.12265,0.1618375
1692597369688,-0.324,-1.8400501,10.030951,-0.12815,-0.082499996,0.106425
1692597369722,-0.75495005,-1.5270001,9.828,-0.093637496,-0.077,0.1120625
1692597369753,-0.75000006,-1.5510001,9.74895,-0.0760375,-0.0862125,0.127875
1692597369786,-0.975,-1.6390501,9.898951,-0.009075,-0.0411125,0.097625
1692597369813,-0.93705004,-1.7370001,9.562051,0.0504625,0.0583,-0.0053625
1692597369842,-1.014,-1.71405,9.342,0.0572,0.10285,-0.0576125
1692597369868,-1.116,-1.65795,9.082951,0.0485375,0.1392875,-0.09955
1692597369902,-0.96300006,-1.5679501,8.767051,0.0133375,0.1903,-0.13213749
1692597369935,-0.52005005,-1.58895,8.767051,-0.006875,0.2017125,-0.0077
1692597369961,-0.71895003,-1.9549501,9.066,-0.0138875,0.17847499,0.08855
1692597369995,-0.70995003,-1.55595,10.000051,-0.0246125,0.0757625,0.2374625
1692597370023,-0.48705003,-1.6129501,9.777,-0.01925,0.0204875,0.2695
1692597370057,-0.34305,-1.5319501,10.357051,-0.0026125,-0.0196625,0.252175
1692597370084,0.26595002,-1.5270001,10.91205,0.0397375,-0.0705375,0.11825
1692597370116,0.22305001,-1.3620001,11.292001,0.0790625,-0.161425,-0.02915
1692597370148,0.11505,-0.77505004,10.762951,0.1032625,-0.2305875,-0.1073875
1692597370178,0.12705001,-0.97905004,11.311951,0.1764125,-0.31295,-0.31239998
1692597370211,0.09105001,-1.6320001,12.361951,0.236225,-0.29535,-0.458975
1692597370240,0.29700002,-2.4390001,12.328951,0.3136375,-0.22687499,-0.6521625
1692597370272,-0.55395,-2.259,11.343,0.2729375,-0.2140875,-0.58465
1692597370304,-1.36995,-1.83105,10.78695,0.05335,-0.21835,-0.1859
1692597370331,-1.07595,-2.13,11.026951,-0.1254,-0.076725,0.1170125
1692597370362,-0.906,-2.0770502,10.617001,-0.1584,0.058025,0.15853749
1692597370394,-1.011,-1.8739501,9.9210005,-0.1802625,0.2410375,0.14245
1692597370423,-1.1520001,-1.608,9.09,-0.1827375,0.2682625,0.1062875
1692597370454,-1.9780501,-1.2229501,9.081,-0.1694,0.2844875,-0.001375
1692597370486,-0.9990001,-1.9770001,10.258051,-0.0950125,0.359425,-0.44165
1692597370519,-0.80295,-2.18295,9.99705,-0.0177375,0.4569125,-0.7766
1692597370554,-2.04795,-1.26795,8.55405,-0.0193875,0.4334,-0.784575
1692597370580,-1.28205,-1.2610501,8.02005,-0.0526625,0.331375,-0.7607875
1692597370609,-0.33105,-1.35,7.1730003,-0.01265,0.3806,-0.89196247
1692597370637,-0.28800002,-1.8600001,8.298,0.1288375,0.53735,-1.2909875
1692597370665,-0.70995003,-1.93095,9.682051,0.157575,0.4928,-1.391775
1692597370697,-0.42000002,-1.917,9.468,0.07425,0.1881,-1.1056376
1692597370727,-0.59205,-1.6870501,8.820001,0.01155,0.04895,-0.8536
1692597370761,-0.030000001,-1.419,8.16195,-0.0374,-0.077,-0.6109125
1692597370789,-0.609,-1.11,8.773951,-0.0320375,-0.0818125,-0.6026625
1692597370820,-1.2070501,-0.54300004,8.784,0.0210375,-0.02585,-0.70235
1692597370852,-0.32700002,-0.82800007,7.4149504,0.0977625,0.0471625,-0.9109375
1692597370896,0.86205006,-0.70605004,7.1850004,0.3375625,0.2739,-1.57465
1692597370933,0.61305004,-0.39495003,8.00595,0.4140125,0.0235125,-1.4008499
1692597370945,0.60405004,-0.56700003,8.097,0.4140125,0.0235125,-1.4008499
1692597370976,1.10595,-0.80595005,8.142,0.390775,-0.315425,-1.06975
1692597371002,1.077,-1.43805,9.082951,0.3840375,-0.398475,-0.9549375
1692597371042,0.64695,-2.59395,12.135,0.2767875,-0.5339125,-0.516175
1692597371066,0.22995001,-2.3770502,13.240951,0.159775,-0.60555,-0.1892
1692597371097,-1.0639501,-1.05495,12.0730505,-0.1035375,-0.56925,0.287375
1692597371129,-1.4680501,-0.072000004,11.75895,-0.1035375,-0.56925,0.287375
1692597371155,2.0370002,0.12105001,13.248001,-0.042075,0.0364375,-0.35365
1692597371193,2.9610002,-1.13205,11.46195,0.372075,-0.017875,-1.0396374
1692597371237,2.8180501,-2.35695,9.969001,0.5033875,-0.37675,-0.5603125
1692597371251,3.0550501,-2.70195,9.969001,0.5033875,-0.37675,-0.5603125
1692597371285,2.5159502,-2.2810502,5.82495,0.2624875,-0.81565,0.47355
1692597371308,2.226,-2.8960502,6.4290004,-0.10175,-1.0561374,1.384075
1692597371338,3.03795,-3.90405,9.27495,-0.258775,-1.1356125,1.7392375
1692597371366,4.986,-4.7850003,12.927001,-0.3751,-1.1743875,1.9998
1692597371394,3.6820502,-3.5329502,12.561001,-0.468325,-1.1969374,2.18515
1692597371423,1.5319501,-1.02405,8.50905,-0.5819,-1.2681625,2.2862124
1692597371448,1.76205,-0.53805,6.807,-0.5377625,-1.1994125,2.0664876
1692597371482,3.01605,-0.79905003,9.4800005,-0.2523125,-0.7099125,1.168475
1692597371510,1.764,-0.65805006,10.564951,-0.0708125,-0.44494998,0.68145
1692597371541,0.76905006,-0.53295004,9.80595,0.24887499,-0.1684375,-0.0460625
1692597371570,1.21395,-0.507,10.491,0.3554375,-0.062975,-0.2800875
1692597371602,2.538,-1.194,9.306001,0.443025,0.2237125,-0.566225
1692597371633,1.0680001,-1.3260001,10.087951,0.4280375,0.294525,-0.583825
1692597371662,1.01505,-1.65795,10.029,0.3212,0.2253625,-0.34347498
1692597371692,2.08995,-1.95105,9.19305,0.1942875,0.248325,-0.02475
1692597371721,2.562,-1.86705,9.259951,0.1359875,0.285175,0.1538625
1692597371752,0.75705004,-1.19895,9.363001,0.080575,0.24695,0.3672625
1692597371777,-0.066,-0.73005,9.435,0.005225,5.5E-4,0.6818625
1692597371811,-0.07005,-0.44700003,10.012051,0.056649998,0.11605,0.495
1692597371834,-0.11400001,-0.20805001,9.387,0.056649998,0.11605,0.495
1692597371862,0.45495003,-0.42105,8.899051,0.181775,0.54395,-0.0235125
1692597371898,0.87900007,-0.648,10.075951,0.2805,0.6978125,-0.3763375
1692597371928,0.59895,-0.28005,9.739051,0.309375,0.645975,-0.3994375
1692597371959,1.00995,-0.522,9.86295,0.2987875,0.4301,-0.2743125
1692597371984,1.0489501,-0.88305,10.531051,0.2762375,0.3262875,-0.22
1692597372012,0.56805,-0.9979501,10.561951,0.2380125,0.16665,-0.100375
1692597372040,1.044,-1.1410501,10.57905,0.210375,0.1104125,0.0281875
1692597372068,1.3770001,-1.20105,9.715051,0.1705,0.0792,0.171875
1692597372097,0.62505,-0.71805006,8.83395,0.0638,0.04015,0.3234
1692597372123,-0.40305,-0.42600003,9.16905,0.00935,0.0,0.3007125
1692597372154,1.5439501,-0.99495006,9.295951,-0.0328625,0.0022,0.0682
1692597372184,1.9150501,-1.2760501,8.77005,-0.0116875,0.1035375,-0.0796125
1692597372214,0.70605004,-0.70095,8.937,0.016224999,0.2244,-0.1838375
1692597372249,0.94095004,-0.864,9.555,0.03025,0.2393875,-0.1568875
1692597372276,0.95295006,-0.82305,9.909,0.0037125,0.0452375,0.028875
1692597372308,1.0819501,-0.71505004,9.79605,-0.0067375,-0.0237875,0.111375
1692597372340,1.176,-0.93600005,9.990001,6.875E-4,-0.0853875,0.15125
1692597372369,0.97905004,-0.86895007,10.210951,0.012925,-0.0930875,0.08635
1692597372399,1.008,-0.88500005,10.05,0.01375,-0.113025,-0.0429
1692597372428,1.2589501,-0.99300003,10.155001,0.0056375,-0.113299996,-0.0664125
1692597372453,1.6810501,-0.87600005,10.11495,-0.0072875,-0.09405,-0.0655875
1692597372479,1.8600001,-1.08405,10.239,-0.012925,-0.103125,-0.0523875
1692597372510,1.695,-1.1580001,10.368,-0.027224999,-0.1920875,-0.023375
1692597372542,1.7520001,-1.21095,10.665001,-0.038225,-0.2448875,0.007425
1692597372573,1.60395,-1.04805,11.721001,-0.0594,-0.2745875,0.1106875
1692597372603,1.09395,-0.17400001,10.408951,-0.062425,-0.2492875,0.1331
1692597372634,1.41495,-0.72495,11.412001,-0.028875,-0.1524875,-0.0089375
1692597372663,1.3120501,-0.76305,11.75205,0.0103124995,-0.08745,-0.1450625
1692597372694,0.34995002,0.07095,9.351001,0.0798875,0.0306625,-0.320375
1692597372721,0.66300005,-0.411,10.002001,0.0952875,0.0738375,-0.3531
1692597372752,1.008,-1.29495,11.649,0.12485,0.176275,-0.474925
1692597372780,0.78795004,-0.873,9.5119505,0.1214125,0.2195875,-0.5116375
1692597372805,1.05795,-1.194,9.744,0.0803,0.2363625,-0.4750625
1692597372832,1.5679501,-1.98195,11.482051,-0.0576125,0.2068,-0.2877875
1692597372857,0.97005004,-1.4980501,10.984051,-0.115637496,0.166375,-0.1846625
1692597372887,0.97695005,-0.85395,9.01395,-0.170225,0.110825,-0.0583
1692597372915,0.86895007,-0.78495,8.226001,-0.2184875,0.0561,0.070675
1692597372943,0.67095006,-1.2730501,9.562051,-0.2223375,0.0059125,0.1120625
1692597372972,0.13005,-1.041,9.507001,-0.1793,0.008525,0.0235125
1692597373002,0.35700002,-0.90900004,8.51295,-0.117425,0.054725,-0.065725
1692597373030,0.31905,-1.1920501,8.66205,-0.105325,0.10835,-0.0754875
1692597373059,-0.135,-1.572,9.02805,-0.085525,0.2217875,-0.1634875
1692597373091,-1.026,-1.5409501,9.12405,-0.121275,0.272525,-0.148775
1692597373120,0.034050003,-1.74195,9.423,-0.1621125,0.311575,-0.076175
1692597373146,0.51000005,-1.5649501,9.45705,-0.1984125,0.3785375,0.010175
1692597373173,-0.07005,-1.029,8.157001,-0.2187625,0.4338125,0.1984125
1692597373207,-1.00905,-0.90705,8.01795,-0.20515,0.3471875,0.2795375
1692597373223,-1.72905,-0.9670501,8.809951,-0.1736625,0.2402125,0.295625
1692597373256,-1.41795,-1.2780001,10.12905,-0.055825,0.289025,0.0460625
1692597373294,-1.167,-1.5409501,9.92805,0.0356125,0.58753747,-0.251625
1692597373322,-1.69605,-1.5120001,9.80595,0.0347875,0.65945,-0.2594625
1692597373352,-1.74405,-1.3590001,9.715051,-0.0165,0.630575,-0.096525
1692597373386,-2.3370001,-1.1340001,10.597951,-0.0378125,0.6015625,-0.039325
1692597373411,-1.9849501,-1.5480001,11.3880005,-0.0218625,0.6150375,-0.0947375
1692597373440,-1.6189501,-1.67295,10.548,0.0226875,0.6474875,-0.19635
1692597373466,-0.702,-2.094,9.526051,0.0642125,0.65065,-0.2855875
1692597373500,-0.56595004,-2.4510002,9.44205,0.00605,0.4521,-0.11165
1692597373534,-0.82005006,-2.3170502,9.061951,-0.28655,0.0171875,0.8047875
1692597373549,-1.1719501,-2.01495,8.403001,-0.45265,-0.205975,1.3798125
1692597373578,-1.557,-1.6009501,8.016001,-0.572275,-0.3675375,1.8277875
1692597373610,-1.9159501,-1.07895,8.122951,-0.6191625,-0.4357375,2.0592
1692597373646,-2.0380502,-0.9480001,8.929951,-0.50435,-0.311025,2.0046124
1692597373672,-2.3760002,-0.79005,10.13895,-0.3762,-0.1706375,1.82545
1692597373697,-2.4070501,-0.37995002,10.246051,-0.069025,0.125125,1.28755
1692597373723,-2.26305,-0.201,10.510051,0.0881375,0.2385625,0.968275
1692597373754,-2.32305,-0.483,11.25405,0.401775,0.3680875,0.24695
1692597373789,-1.76505,-0.81405,11.806951,0.51713747,0.3777125,-0.0361625
1692597373804,-1.2430501,-0.97905004,11.955001,0.56595,0.344575,-0.16225
1692597373837,-1.9300501,-0.41400003,12.087001,0.4778125,0.1662375,-0.0484
1692597373872,-1.55505,-0.39000002,10.23705,0.33825,-0.0598125,0.0198
1692597373905,-1.3609501,-0.38700002,9.8539505,0.3102,-0.1266375,-0.032175
1692597373932,-1.62195,-0.19395001,9.01395,0.2765125,-0.1442375,-0.07205
1692597373969,-0.52005005,-0.32295,10.77795,0.2503875,-0.12265,-0.0444125
1692597373994,-0.70500004,-0.08595,10.984051,0.198825,-0.07645,0.0804375
1692597374023,-0.98700005,0.11400001,10.174951,0.1879625,-0.108075,0.13695
1692597374051,-1.6140001,0.44505003,8.938951,0.199925,-0.1838375,0.104775
1692597374080,-2.09805,0.61200005,9.258,0.29067498,-0.2528625,-0.2206875
1692597374104,-1.5979501,0.19605,9.54705,0.3443,-0.1830125,-0.341
1692597374136,-1.5780001,0.40395,9.67695,0.403975,0.032725,-0.3108875
1692597374163,-0.96300006,-0.031050002,10.033051,0.386925,0.0985875,-0.2041875
1692597374189,0.024,-0.80895007,10.014001,0.3400375,0.1161875,-0.073425
1692597374217,0.52500004,-0.90195006,9.61905,0.18205,0.0259875,0.21615
1692597374248,0.60405004,-0.49305,9.318001,-0.1304875,-0.28985,0.7211875
1692597374273,0.28995,0.028050002,8.20905,-0.284075,-0.47465,0.9651125
1692597374303,-0.726,0.708,7.3000503,-0.3568125,-0.6070625,1.0538
1692597374330,-1.0879501,1.1530501,7.3069506,-0.328625,-0.66165,0.9422875
1692597374359,-1.5690001,1.28505,8.904,-0.043725,-0.5083375,0.3546125
1692597374383,-1.3249501,1.12905,9.258,0.154825,-0.3201,0.0309375
1692597374415,-1.33395,0.91395,10.01895,0.4890875,0.0622875,-0.485925
1692597374447,-0.79605,0.49695003,10.687051,0.567325,0.1727,-0.6381375
1692597374476,-0.85095006,0.423,10.713,0.5743375,0.2135375,-0.696575
1692597374501,-1.09695,0.028050002,11.127001,0.4021875,0.1354375,-0.488125
1692597374530,-1.19505,-0.057000004,10.420951,0.1381875,0.0374,-0.0413875
1692597374561,-1.10895,-0.052050002,9.78705,0.024475,0.0298375,0.1233375
1692597374594,-0.70995003,0.126,9.535951,-0.0650375,0.03795,0.2036375
1692597374628,-0.657,0.45900002,9.294001,-0.15565,0.0295625,0.1507
1692597374660,-0.53505003,0.27705002,9.085951,-0.1310375,4.125E-4,0.11165
1692597374684,-0.70695,0.39405003,8.887051,-0.0924,-0.0336875,0.088275
1692597374714,-0.88395005,0.55695003,8.734051,-0.02585,-0.0897875,0.081675
1692597374744,-0.94695,0.40395,9.67695,0.0017875,-0.09515,0.0581625
1692597374772,-1.047,0.25095,10.2300005,0.0297,-0.0765875,0.028324999
1692597374801,-1.2070501,0.37005,10.15995,0.05775,-0.0100375,0.010725
1692597374827,-1.12605,0.47100002,9.523951,0.050049998,0.0155375,-0.0067375
1692597374854,-1.3920001,0.65505004,9.279,0.0306625,0.0638,-0.07205
1692597374880,-1.2030001,0.64095,9.18105,0.037125,0.08965,-0.0895125
1692597374910,-0.81705004,0.44895002,9.66705,0.0831875,0.1318625,-0.106975
1692597374938,-0.91995007,0.49995002,9.556951,0.10615,0.1309,-0.11935
1692597374963,-0.975,0.504,9.16005,0.115225,0.1035375,-0.1208625
1692597374993,-0.69495004,0.26295,9.354,0.0922625,0.02365,-0.0741125
1692597375026,-0.77205,0.40095,9.40095,0.071775,6.875E-4,-0.0419375
1692597375055,-0.98700005,0.51195,9.48795,0.016224999,-0.04455,0.0286
1692597375085,-0.513,0.88500005,8.88,-0.004125,-0.0691625,0.027224999
1692597375112,-0.97800004,1.2540001,9.315001,0.03025,-0.0856625,-0.1486375
1692597375144,-1.8730501,1.5190501,10.038,0.089925,-0.0831875,-0.2855875
1692597375174,-1.2409501,1.2919501,10.744051,0.2717,-0.023375,-0.572
1692597375205,-0.93495005,0.90405005,11.692051,0.3548875,0.0462,-0.664125
1692597375240,-0.82695,0.56700003,12.432,0.3521375,0.104775,-0.535975
1692597375261,-0.63495004,0.279,12.4800005,0.2545125,0.0543125,-0.3504875
1692597375294,-0.72195005,0.35805002,10.40205,-0.00275,-0.08525,0.0020625
1692597375327,-0.726,0.33405003,9.471001,-0.10945,-0.12925,0.15619999
1692597375360,-0.46995002,0.25800002,9.559051,-0.2146375,-0.1332375,0.42405
1692597375388,-0.13995,-0.028050002,9.519,-0.22385,-0.10945,0.524975
1692597375422,0.034050003,-0.246,8.99205,-0.2341625,-0.1106875,0.6721
1692597375450,0.25395,-0.34695002,8.797951,-0.25245,-0.1511125,0.6945125
1692597375481,-0.43005002,-0.29700002,8.78895,-0.3058,-0.25465,0.6290625
1692597375519,-0.20700002,-0.59595,9.54705,-0.3419625,-0.281325,0.647075
1692597375550,-0.72405005,-0.65295005,10.17195,-0.341275,-0.2347125,0.6293375
1692597375579,-0.46995002,-0.70605004,9.945001,-0.3465,-0.1067,0.37565
1692597375611,-0.72900003,-0.66300005,9.315001,-0.3628625,-0.0122375,0.146025
1692597375643,-1.3440001,-0.522,9.835051,-0.3551625,0.0188375,0.04235
1692597375673,-1.03005,-0.61005,9.873,-0.3361875,0.0460625,-0.070125
1692597375699,-1.00395,-0.49800003,9.531,-0.26895,0.13145,-0.2853125
1692597375729,-1.18605,0.045,7.8910503,-0.2259125,0.1782,-0.3848625
1692597375758,-0.88695,0.08805001,7.6009502,-0.120037496,0.237325,-0.59894997
1692597375789,-0.30495003,-0.62700003,9.43995,-0.0413875,0.26125,-0.7429125
1692597375819,-1.07805,-0.58905005,9.592951,0.093637496,0.2453,-0.965525
1692597375849,-0.67095006,-0.32805002,8.632951,0.091575,0.1865875,-0.9417375
1692597375880,-0.61605,-0.47805002,9.30795,0.0198,0.1029875,-0.7634
1692597375913,-0.453,-0.35205,9.16905,0.009075,0.0664125,-0.7390625
1692597375942,-0.91800004,0.09,8.470051,0.0185625,0.02805,-0.777975
1692597375973,-1.3369501,0.30795002,8.470051,0.036575,-0.001375,-0.840675
1692597376008,-1.5139501,0.51405,7.7689505,0.148775,0.04675,-1.070575
1692597376035,-0.95100003,0.016050002,8.52795,0.3304125,0.20845,-1.35905
1692597376065,-0.50895,-0.34905002,9.255,0.39545,0.27225,-1.4612125
1692597376094,-0.45600003,-0.20595,9.255,0.346775,0.215875,-1.2441
1692597376125,-0.30495003,-0.768,10.515,0.2418625,0.104637496,-0.9417375
1692597376154,-0.55605,-0.58395004,10.82295,0.133375,-0.012925,-0.6516125
1692597376185,-0.054,0.18405001,10.179001,-0.032449998,-0.1904375,-0.2893
1692597376216,0.24195,0.44700003,10.522051,-0.065175,-0.2833875,-0.2278375
1692597376249,0.32295,0.67200005,10.49505,-0.0105875,-0.3199625,-0.2641375
1692597376278,-0.00795,0.70995003,11.644051,0.15235,-0.3975125,-0.296175
1692597376304,0.132,0.33195,12.457951,0.2272875,-0.4074125,-0.3392125
1692597376336,0.29205,0.14505,12.16905,0.28105,-0.39214998,-0.4082375
1692597376366,0.80505,-0.402,11.97,0.2690875,-0.3353625,-0.4387625
1692597376395,-0.24495001,0.12900001,10.663051,0.1016125,-0.3177625,-0.216425
1692597376422,0.156,0.040050004,9.05895,0.0028875,-0.324775,-0.0523875
1692597376456,1.6710001,-1.0309501,9.49695,-0.0985875,-0.2325125,0.1606
1692597376478,-0.453,0.38205,11.26395,-0.11385,-0.1524875,0.213125
1692597376508,1.86705,-1.39995,10.054951,-0.146575,-0.139975,0.31185
1692597376540,1.6330501,-0.735,8.73795,-0.2941125,-0.3452625,0.6821375
1692597376571,1.6620001,-1.0360501,9.198001,-0.3647875,-0.4648875,0.8457625
1692597376608,1.2930001,-1.1700001,10.573951,-0.3818375,-0.6114625,0.9315625
1692597376638,0.78495,-1.14405,10.80195,-0.306075,-0.5735125,0.7090875
1692597376670,0.112950005,-0.60105,11.434051,-0.26235,-0.3804625,0.406175
1692597376702,-0.19500001,-0.105000004,10.33005,-0.2327875,-0.24475,0.2844875
1692597376731,0.12495001,-0.39195,9.081,-0.180675,-0.0834625,0.1469875
1692597376764,0.012,-0.66495,9.366,-0.0251625,0.2314125,-0.22275
1692597376791,0.23700002,-0.933,10.167001,0.0400125,0.32505,-0.375925
1692597376818,0.18195,-0.67695004,9.82995,0.06765,0.35433748,-0.4409625
1692597376851,0.67995006,-0.864,9.67905,0.042075,0.3240875,-0.3834875
1692597376884,0.88605005,-0.97905004,10.668,-0.0086624995,0.2341625,-0.201025
1692597376914,0.67095006,-0.87795,10.60995,-0.0279125,0.16335,-0.0884125
1692597376944,0.68700004,-1.0510501,10.62495,-0.07315,-0.00385,0.0474375
1692597376976,0.70395005,-0.86895007,9.877951,-0.0985875,-0.0820875,0.0144375
1692597377004,0.82605004,-0.84000003,9.44505,-0.0999625,-0.084975,-0.0034375
1692597377036,0.537,-0.75600004,9.174001,-0.088275,-0.0812625,-0.016224999
1692597377061,0.56295,-0.89505005,9.52095,-0.07755,-0.084425,-0.0158125
1692597377102,0.22800002,-0.93105006,9.492001,-0.0559625,-0.0743875,0.0242
1692597377121,0.35700002,-1.0309501,9.67905,-0.0504625,-0.055825,0.0688875
1692597377155,0.45495003,-1.0189501,9.62895,-0.0495,-0.02915,0.120175
1692597377182,0.66105,-0.85395,9.468,-0.0559625,0.0254375,0.19305
1692597377205,0.49800003,-0.72705,10.038,-0.0603625,0.0363,0.20253749
1692597377231,1.2090001,-1.0510501,10.287001,-0.058849998,0.0345125,0.195525
1692597377258,1.0819501,-0.61200005,10.227,-0.029424999,2.75E-4,0.184525
1692597377285,0.88095003,-0.43995002,9.19305,-0.0166375,-0.0521125,0.21615
1692597377312,0.76905006,-0.16995001,8.89395,-0.00495,-0.1192125,0.247225
1692597377339,0.33795002,0.0139500005,9.660001,0.0686125,-0.1716,0.1232
1692597377366,1.02705,-0.864,10.30095,0.1252625,-0.144925,-0.0207625
1692597377392,0.83805007,-0.94500005,10.416,0.1860375,-0.0760375,-0.234025
1692597377422,2.35305,-1.8910501,10.926001,0.163625,-0.0584375,-0.231825
1692597377448,2.8969502,-1.9240501,10.500001,0.099825,-0.0771375,-0.1398375
1692597377475,2.40105,-1.5460501,9.828,-0.113299996,-0.32381248,0.25355
1692597377502,2.07795,-1.2900001,9.550051,-0.210375,-0.5086125,0.43147498
1692597377528,1.8079501,-0.94995004,9.94005,-0.264,-0.6428125,0.4943125
1692597377555,-3.14895,1.2540001,10.762951,-0.2498375,-0.6309875,0.29645
1692597377582,2.2699502,-1.3110001,9.636001,-0.1945625,-0.4835875,0.0944625
1692597377609,3.14805,-1.7040001,10.905001,-0.0996875,-0.20845,-0.198
1692597377636,1.0890001,-1.3810501,11.154,0.0859375,0.2382875,-0.739475
1692597377663,2.22405,-1.3399501,10.087951,0.08965,0.1318625,-0.7128
1692597377690,2.53305,-1.14405,12.52305,-0.0193875,-0.1788875,-0.3795
1692597377717,1.4320501,-0.92595005,12.36705,-0.066,-0.1964875,-0.3064875
1692597377746,1.3740001,-1.16805,11.470051,-0.0867625,-0.17655,-0.3034625
1692597377777,2.25,-2.0320501,11.194051,-0.07205,-0.043175,-0.4079625
1692597377807,2.016,-2.0010002,10.713,-0.077,0.033,-0.43065
1692597377836,1.48905,-1.02195,8.905951,-0.1689875,0.0419375,-0.2718375
1692597377866,1.64205,-0.47400004,7.7449503,-0.2275625,-4.125E-4,-0.170225
1692597377894,1.26405,-0.33,7.1350503,-0.2308625,-0.0402875,-0.143
1692597377923,0.78495,-0.62895006,8.04195,-0.1604625,-0.0430375,-0.1931875
1692597377953,1.6300501,-1.077,8.938951,0.005225,-0.02585,-0.3025
1692597377978,1.06095,-0.675,8.511001,0.0510125,0.0122375,-0.3282125
1692597378007,1.2280501,-1.0860001,8.406,0.0683375,0.061875,-0.326425
1692597378035,1.33395,-1.8550501,9.5449505,0.0636625,0.12773749,-0.27995
1692597378065,1.554,-1.9270501,9.49995,0.0375375,0.12595,-0.20019999
1692597378096,0.60405004,-1.4260501,7.9150505,-0.097625,0.0567875,0.2030875
1692597378125,0.14895001,-1.644,8.820001,-0.1670625,0.0166375,0.4192375
1692597378152,0.14205001,-1.9290001,9.93795,-0.2204125,0.0735625,0.542575
1692597378187,-0.19695,-1.623,9.054001,-0.224675,0.179025,0.4753375
1692597378204,-0.62805,-1.39005,8.262,-0.2314125,0.2987875,0.3760625
1692597378235,-1.8349501,-1.3660501,7.80495,-0.2363625,0.5049,0.131175
1692597378264,-1.9279501,-1.7880001,9.01395,-0.2220625,0.605,-0.0226875
1692597378292,-1.30095,-2.2690501,9.892051,-0.18259999,0.88495,-0.3801875
1692597378321,-1.75995,-1.8139501,9.17895,-0.1788875,1.015575,-0.4932125
1692597378350,-2.28495,-1.55295,8.454,-0.1890625,1.081575,-0.499125
1692597378377,-2.08605,-1.6320001,8.217,-0.1915375,1.0692,-0.3953125
1692597378412,-1.9849501,-1.9050001,8.868,-0.1254,1.059575,-0.4593875
1692597378439,-1.8229501,-1.8690001,8.298,-0.091299996,1.0406,-0.508475
1692597378465,-1.41795,-2.26395,8.985001,-0.0694375,0.98835,-0.5198875
1692597378499,-0.89595,-2.9580002,11.02005,-0.122375,0.71555,-0.08085
1692597378524,-1.107,-2.83095,10.89,-0.2250875,0.468875,0.4697
1692597378554,-1.16205,-2.18295,9.399,-0.4670875,-0.109175,1.6473875
1692597378582,-1.1359501,-1.8280501,9.595051,-0.5303375,-0.330275,2.0051625
1692597378612,-1.5190501,-1.55295,10.58895,-0.533225,-0.4657125,2.171125
1692597378642,-1.7149501,-1.9390501,12.424951,-0.3513125,-0.4808375,1.9333875
1692597378669,-1.9260001,-1.845,12.196951,-0.1962125,-0.390775,1.592525
1692597378696,-1.674,-1.8570001,12.262051,-0.0424875,-0.2765125,1.2084875
1692597378726,-1.14495,-1.539,12.243001,0.16335,-0.0691625,0.534875
1692597378756,-0.99000007,-1.12695,10.864051,0.2366375,0.00385,0.1353
1692597378781,-0.47700003,-1.16295,10.524,0.2629,-0.015675,0.00935
1692597378812,-0.30705002,-1.25205,10.45005,0.293975,-0.0488125,-0.1018875
1692597378840,-0.41505003,-1.12905,9.576,0.32587498,-0.1425875,-0.2239875
1692597378870,-0.82395005,-0.897,8.676001,0.270875,-0.25245,-0.1783375
1692597378898,-0.67095006,-1.113,8.829,0.2376,-0.2605625,-0.1788875
1692597378926,-0.80295,-1.2709501,8.96805,0.2149125,-0.2270125,-0.215325
1692597378954,-0.717,-1.4929501,9.658051,0.1705,-0.1293875,-0.2387
1692597378983,-1.0690501,-1.4100001,9.688951,0.132,-0.1007875,-0.181225
1692597379011,-1.2049501,-1.23195,9.247951,0.088,-0.0801625,-0.1117875
1692597379040,-1.12605,-1.5150001,9.954,0.0242,-0.018424999,-0.0235125
1692597379065,-0.99000007,-1.7179501,10.725,0.0116875,0.026124999,1.375E-4
1692597379095,-1.3219501,-1.5010501,10.06005,0.004125,0.0658625,8.25E-4
1692597379123,-1.0330501,-1.2559501,9.5449505,-0.025575,0.09515,-0.06325
1692597379152,-0.84795004,-1.21605,9.736951,-0.044825,0.08745,-1.375E-4
1692597379181,-0.93195003,-1.1179501,9.37005,-0.036575,0.0677875,0.09295
1692597379210,-0.99405,-1.02195,8.772,-0.020624999,0.0339625,0.17325
1692597379240,-0.80295,-1.041,8.740951,0.0248875,-0.0088,0.1398375
1692597379270,-1.059,-1.2199501,9.19305,0.0859375,0.0193875,-0.1137125
1692597379299,-1.04505,-1.503,9.294001,0.1038125,0.028875,-0.1958
1692597379328,-1.04205,-1.5270001,9.28905,0.098037496,0.0317625,-0.2088625
1692597379356,-1.2220501,-1.4140501,9.057,0.0154,0.0364375,-0.1164625
1692597379384,-1.38195,-1.32105,9.672001,-0.037675,0.0375375,-0.0499125
1692597379414,-0.70995003,-1.4100001,10.207951,-0.0969375,0.048675,0.093225
1692597379443,0.28800002,-1.8280501,11.055,-0.100237496,0.0485375,0.16445
1692597379472,-1.23405,-1.5510001,12.228001,-0.10505,-0.1018875,0.3421
1692597379502,-0.094050005,-2.532,14.13405,-0.113437496,-0.2418625,0.439725
1692597379530,-1.0159501,-1.8499501,13.561951,-0.11275,-0.3337125,0.489775
1692597379564,-0.59895,-0.90000004,10.60305,-0.0594,-0.2728,0.319
1692597379594,-0.68100005,-1.43295,12.1039505,-0.0158125,-0.19965,0.142725
1692597379624,-0.73800004,-2.09205,12.178051,0.086899996,-0.0836,-0.2299
1692597379650,-0.34095,-1.81605,8.82195,0.103125,-0.0396,-0.42625
1692597379681,0.36900002,-2.3860502,8.44905,0.040425,-0.050875,-0.337425
1692597379716,-0.50895,-2.77395,11.491051,-0.1535875,-0.1425875,0.1106875
1692597379743,-1.0900501,-2.1400502,10.333051,-0.25465,-0.2121625,0.3452625
1692597379771,-0.00795,-1.7730001,8.70495,-0.33055,-0.2585,0.5146625
1692597379800,0.0,-1.4650501,8.69505,-0.356675,-0.2531375,0.5863
1692597379828,0.29205,-1.51995,8.78895,-0.27995,-0.177375,0.48125
1692597379856,-0.21405001,-1.3879501,8.571,-0.1489125,-0.18095,0.21807499
1692597379885,-0.75000006,-1.575,9.3490505,-0.081675,-0.1848,0.08525
1692597379914,-0.65505004,-1.50495,8.81295,0.0174625,-0.117425,-0.0903375
1692597379942,-0.67800003,-1.8240001,9.550051,0.0429,-0.0372625,-0.1478125
1692597379972,-1.215,-1.575,8.736,0.039049998,0.117837496,-0.2176625
1692597379999,-0.24000001,-1.69395,8.96805,0.0158125,0.1623875,-0.2475
1692597380034,-0.72405005,-1.16805,8.27595,-0.0116875,0.215875,-0.3653375
1692597380062,-0.88695,-0.79200006,8.169001,-0.0094875,0.2151875,-0.3773
1692597380090,-0.46305,-0.402,8.724,0.0097624995,0.198275,-0.3485625
1692597380118,-0.33900002,-0.069000006,8.157001,0.1593625,0.2123,-0.5143875
1692597380146,-0.26895002,-0.009000001,8.346001,0.2853125,0.23925,-0.7748125
1692597380174,-0.513,-0.016050002,8.587951,0.4203375,0.2464,-1.0742875
1692597380204,-0.15195,-0.016050002,8.52105,0.62975,0.19415,-1.55705
1692597380231,0.096,-0.048,8.22105,0.6763625,0.1606,-1.682175
1692597380262,0.32805002,-0.69900006,9.427951,0.66275,0.076175,-1.618375
1692597380290,0.61605,-1.0309501,9.32505,0.6072,-9.625E-4,-1.415975
1692597380319,0.68295,-0.91395,9.042001,0.3782625,-0.2143625,-0.730125
1692597380347,1.1370001,-1.05795,9.330001,0.2308625,-0.315425,-0.3564
1692597380376,1.09905,-1.21305,9.17895,0.0056375,-0.449625,0.196625
1692597380406,1.59195,-1.5820501,9.571051,-0.057475,-0.4937625,0.36905
1692597380435,1.67805,-1.6350001,10.549951,-0.14973749,-0.5839625,0.6408875
1692597380463,1.9729501,-1.728,11.055,-0.19525,-0.63745,0.781275
1692597380493,2.50605,-1.33305,11.127001,-0.238425,-0.730675,0.96648747
1692597380519,2.6089501,-0.94305,10.974001,-0.2215125,-0.7563875,0.9689625
1692597380548,1.932,-0.51195,10.503,-0.1782,-0.77,0.906675
1692597380579,1.5469501,-0.47595003,10.62195,-0.0210375,-0.7326,0.6194375
1692597380610,1.40505,-0.99300003,11.529,0.07205,-0.6573875,0.455675
1692597380640,0.95295006,-1.31895,11.127001,0.20487499,-0.4134625,0.2459875
1692597380669,0.76905006,-1.20105,10.783051,0.1838375,-0.15455,0.2072125
1692597380697,1.3429501,-1.48905,10.91205,0.13255,-0.0364375,0.22165
1692597380726,1.09905,-1.3090501,10.9789505,0.080025,0.0683375,0.2288
1692597380756,0.73005,-0.87105006,10.15095,0.0345125,0.1447875,0.20295
1692597380785,1.1520001,-0.92805004,9.63105,-0.024475,0.1931875,0.0677875
1692597380819,0.66105,-1.1869501,9.93,-0.0171875,0.171875,-0.0334125
1692597380845,0.50805,-1.386,10.10295,-0.007975,0.152075,-0.04895
1692597380874,0.402,-1.2730501,9.552,-0.012375,0.1375,-0.0353375
1692597380903,0.73005,-1.2349501,8.953951,-0.0539,0.1516625,0.0730125
1692597380931,0.85995007,-1.2870001,8.877001,-0.07425,0.1684375,0.115225
1692597380958,1.1730001,-1.4239501,9.066,-0.09515,0.1434125,0.16293749
1692597380987,1.2379501,-1.6129501,10.309051,-0.098725,0.0950125,0.2215125
1692597381020,0.89595,-1.5649501,10.854,-0.1104125,-0.01925,0.351175
1692597381051,-1.404,1.368,12.121051,-0.1155,-0.0603625,0.39545
1692597381080,0.915,-0.27495003,9.47805,-0.071225,-0.0463375,0.4015
1692597381108,0.44295,0.03795,9.186001,0.0254375,0.02035,0.26345
1692597381136,-0.034950003,-0.651,9.379951,0.29425,0.1689875,-0.2336125
1692597381166,1.36995,-1.69395,9.837001,0.3667125,0.201025,-0.4054875
1692597381196,0.975,-1.6609501,9.85095,0.30153748,0.18975,-0.378125
1692597381226,-0.44400004,-0.78495,9.66705,0.164175,0.13859999,-0.1607375
1692597381254,0.048,-0.39705002,9.418051,-0.109725,-0.0086624995,0.379775
1692597381283,0.252,-0.48105,9.607051,-0.1252625,6.875E-4,0.451275
1692597381311,0.15105,-0.79905003,9.102,0.022824999,0.160325,0.185075
1692597381348,0.41700003,-1.3759501,10.31295,0.08525,0.19525,0.0589875
1692597381378,1.0849501,-1.1890501,9.17205,0.080575,0.1507,0.088
1692597381401,0.68700004,-1.074,9.658051,0.022,0.101475,0.20253749
1692597381435,1.164,-1.16295,10.11495,-0.09405,-0.0551375,0.3689125
1692597381464,1.6330501,-1.3450501,10.10295,-0.1027125,-0.1153625,0.3344
1692597381493,1.4250001,-0.79905003,9.28905,-0.059675,-0.18493749,0.1788875
1692597381522,1.67595,-1.09605,9.904051,-0.0517,-0.253275,0.1683
1692597381550,1.6519501,-1.1029501,10.201051,-0.0515625,-0.3312375,0.1885125
1692597381581,1.7329501,-0.873,9.79905,-0.029975,-0.4068625,0.1815
1692597381609,1.94895,-1.1580001,10.351951,-0.0138875,-0.4074125,0.1577125
1692597381638,1.8600001,-1.2400501,10.62705,0.0116875,-0.3804625,0.099
1692597381668,1.53495,-1.0890001,10.1959505,0.014162499,-0.3685,0.0814
1692597381694,1.57305,-1.0819501,10.23705,1.375E-4,-0.3260125,0.0792
1692597381724,1.02195,-1.041,10.866,-0.008525,-0.2783,0.0616
1692597381754,0.82095003,-0.91605,10.854,-0.024475,-0.1412125,-0.0726
1692597381782,0.052950002,-0.32505003,10.396951,-0.0254375,-0.052525,-0.1522125
1692597381811,0.51495004,-0.31800002,10.351951,0.0066,0.15853749,-0.27555
1692597381842,0.34305,-0.29895002,10.81095,0.0521125,0.2699125,-0.3667125
1692597381870,-0.82005006,-0.08595,11.674951,0.170775,0.43835,-0.56595
1692597381898,-0.05595,-0.43305,11.806951,0.20693749,0.4778125,-0.6155875
1692597381928,1.2,-0.75105006,11.09595,0.22247499,0.5176875,-0.6502375
1692597381957,0.49800003,-0.47805002,10.953,0.1978625,0.5163125,-0.687225
1692597381990,1.37205,-1.2040501,10.854,0.155375,0.4065875,-0.64955
1692597382020,2.0329502,-1.314,10.194,0.065725,0.187,-0.5665
1692597382047,0.74205005,-0.59295005,7.8,0.01485,0.1035375,-0.5047625
1692597382076,0.76395005,-0.78000003,7.1130004,-0.094325,-0.127325,-0.2486
1692597382104,1.28805,-1.71405,9.069,-0.111375,-0.1947,-0.1511125
1692597382133,0.55605,-1.8880501,9.262951,-0.1335125,-0.18425,-0.0589875
1692597382162,-0.50895,-0.47595003,7.4080505,-0.1997875,-0.175725,0.0451
1692597382190,1.67805,-0.77805007,8.39595,-0.2836625,-0.1524875,0.174625
1692597382218,1.25205,-0.66300005,8.644951,-0.3102,0.0397375,0.1527625
1692597382248,0.36900002,-0.76305,7.8190503,-0.2369125,0.0873125,0.0044
1692597382275,0.40500003,-1.8210001,9.865951,-0.0818125,-0.024475,-0.20253749
1692597382307,1.05795,-2.0770502,11.053051,-0.0528,-0.021175,-0.2281125
1692597382334,0.78495,-1.6470001,9.588,-0.1489125,0.0944625,-0.135575
1692597382359,0.27105,-1.1580001,8.454,-0.2297625,0.100925,-0.0642125
1692597382390,0.40695003,-1.23195,8.406,-0.276375,0.0820875,-0.04015
1692597382422,0.52005005,-1.5439501,8.925,-0.23539999,0.1012,-0.1368125
1692597382450,0.015000001,-1.6180501,8.54895,-0.1931875,0.1343375,-0.1975875
1692597382478,-0.47295,-1.6849501,8.095051,-0.16733749,0.1623875,-0.20845
1692597382509,-0.59505004,-2.3430002,8.944051,-0.1780625,0.18535,-0.17325
1692597382537,-1.2430501,-2.19705,8.146951,-0.232375,0.3069,-0.0482625
1692597382568,-1.9849501,-1.77795,7.3170004,-0.283525,0.3730375,0.0897875
1692597382595,-2.05695,-1.812,7.6800003,-0.3735875,0.5146625,0.412225
1692597382625,-2.05695,-1.89795,7.9560003,-0.374275,0.6271375,0.5027
1692597382654,-1.94895,-2.6899502,9.259951,-0.3091,0.83765,0.5740625
1692597382680,-2.2729502,-2.90295,10.668,-0.29535,0.84741247,0.6582125
1692597382712,-1.6860001,-2.8819501,11.338051,-0.3216125,0.7701375,0.83105
1692597382748,-1.0519501,-2.355,9.909,-0.407825,0.4659875,1.230625
1692597382781,-0.81705004,-2.2350001,10.998,-0.3592875,0.1672,1.2516625
1692597382807,-0.52305,-2.39295,11.721001,-0.2904,0.039325,1.125575
1692597382834,-0.83400005,-2.298,12.003,-0.20845,-0.07315,0.9480625
1692597382870,-0.79605,-2.1780002,11.352,-0.0512875,-0.2365,0.63827497
1692597382895,-1.52295,-1.3470001,10.255951,0.0463375,-0.3048375,0.5468375
1692597382922,-0.16395001,-2.01,10.54605,0.0779625,-0.2946625,0.503525
1692597382949,-0.504,-2.18295,11.6629505,0.11,-0.263175,0.41635
1692597382976,-0.50895,-2.4409502,11.592001,0.1513875,-0.242,0.236775
1692597383003,-0.75495005,-1.9909501,10.534051,0.1431375,-0.2633125,0.2046
1692597383034,-0.92700005,-1.8720001,10.39995,0.0996875,-0.2424125,0.1335125
1692597383067,-1.16205,-1.6990501,10.033051,0.08525,-0.180675,0.0510125
1692597383098,-1.2049501,-1.4260501,9.46605,0.089237496,-0.0298375,-0.1502875
1692597383125,-0.83400005,-1.5409501,9.696,0.104637496,0.039875,-0.23773749
1692597383155,-0.31005,-1.761,10.15095,0.1483625,0.14685,-0.3342625
1692597383182,-0.38895002,-1.71405,9.765,0.1593625,0.1489125,-0.3221625
1692597383207,-0.46800002,-1.71105,9.67695,0.14795,0.098037496,-0.25025
1692597383238,-0.56595004,-1.8379501,9.745951,0.084425,-0.0677875,-0.0231
1692597383264,-0.53505003,-1.8280501,9.688951,0.056375,-0.117837496,0.047575
1692597383292,-0.69495004,-1.644,9.253051,0.011825,-0.13695,0.11275
1692597383320,-0.92700005,-1.644,9.093,-0.00825,-0.1302125,0.1450625
1692597383347,-1.04205,-1.8880501,9.495001,-0.02145,-0.1115125,0.1560625
1692597383376,-0.80805004,-2.058,9.93,-0.0319,-0.025575,0.1170125
1692597383403,-0.84795004,-1.70895,9.4129505,-0.0418,0.0160875,0.1288375
1692597383431,-0.95400006,-1.44105,8.71905,-0.063525,0.0331375,0.230175
1692597383463,-1.06095,-1.2709501,8.644951,-0.056375,0.02915,0.2512125
1692597383489,-1.095,-1.5319501,9.95895,0.01375,0.0694375,0.1445125
1692597383515,-1.46595,-1.36905,9.868051,0.05995,0.1056,0.0704
1692597383542,-1.58595,-1.21305,9.34395,0.0974875,0.1390125,0.0127875
1692597383571,-1.677,-1.31895,9.966001,0.1489125,0.215875,-0.142175
1692597383603,-1.167,-1.4290501,10.510051,0.17215,0.26633748,-0.23127499
1692597383632,-0.54705,-1.29495,10.648951,0.20487499,0.318175,-0.3394875
1692597383659,-0.453,-1.2970501,10.6390505,0.2112,0.278575,-0.3876125
1692597383688,-0.89100003,-1.04595,10.52595,0.204325,0.0644875,-0.37785
1692597383716,-0.46995002,-1.5150001,11.91195,0.19195,-0.052525,-0.277475
1692597383743,-0.50595003,-1.6660501,11.886001,0.176275,-0.1364,-0.14575
1692597383770,-0.65205,-2.19705,11.754001,0.15619999,-0.1846625,-0.0160875
1692597383802,-0.87495005,-2.66895,12.8890505,0.07535,-0.2292125,0.2189
1692597383831,-1.2910501,-2.5489502,12.066001,6.875E-4,-0.24007499,0.31075
1692597383859,-1.54305,-1.6489501,10.203,-0.171325,-0.207625,0.384175
1692597383888,-1.19295,-1.1340001,9.141001,-0.2322375,-0.1568875,0.4250125
1692597383918,-0.98205006,-0.94500005,8.611951,-0.22715,-0.0254375,0.4764375
1692597383948,-0.78105,-0.85695004,7.83795,-0.1516625,0.0391875,0.3796375
1692597383979,-0.60195005,-1.0669501,8.856,0.0396,0.12155,0.020624999
1692597384002,-0.777,-0.864,7.9219503,0.10725,0.1287,-0.1529
1692597384033,-1.2030001,-0.65805006,7.3840504,0.180675,0.105875,-0.49774998
1692597384062,-0.64005005,-1.182,9.0400505,0.2000625,0.1021625,-0.6424
1692597384088,-0.513,-1.23,9.47805,0.213125,0.1111,-0.7341125
1692597384115,-0.68295,-0.79395,8.262,0.197725,0.0831875,-0.7106
1692597384145,-0.26700002,-0.94500005,8.19705,0.1711875,0.0308,-0.628925
1692597384175,-0.39105,-1.2900001,10.182,0.1577125,-0.036849998,-0.5990875
1692597384206,-0.68100005,-0.615,8.478001,0.161425,-0.0543125,-0.6325
1692597384240,-0.39600003,-0.924,8.805,0.139425,-0.100099996,-0.6480375
1692597384268,-1.677,-0.90195006,9.02595,0.1412125,-0.095425,-0.680625
1692597384295,-1.6290001,-0.91200006,9.78195,0.17325,-0.01375,-0.774125
1692597384326,-0.9990001,-0.29205,8.35305,0.1769625,0.0831875,-0.8053375
1692597384352,-0.003,-0.20805001,7.6660504,0.1931875,0.32395,-0.9625
1692597384380,0.45795003,-0.71805006,7.9750504,0.242,0.3639625,-1.1070125
1692597384409,0.67095006,-1.419,9.253051,0.3001625,0.30965,-1.1980375
1692597384438,0.25605002,-1.1080501,9.00405,0.2644125,-0.0424875,-0.836825
1692597384467,0.61800003,-1.0189501,8.458051,0.155925,-0.25025,-0.44907498
1692597384498,0.81195,-1.5630001,9.54705,-0.0474375,-0.47905,0.1065625
1692597384527,1.0180501,-1.2919501,9.613951,-0.1073875,-0.5256625,0.2402125
1692597384557,0.87900007,-0.81795,9.19095,-0.1750375,-0.6015625,0.43835
1692597384584,1.0849501,-0.91905004,9.745951,-0.1695375,-0.6147625,0.4464625
1692597384619,0.69195,-0.90000004,11.178,-0.059125,-0.5666375,0.21615
1692597384644,0.86205006,-0.84195006,11.72595,6.875E-4,-0.5182375,0.0906125
1692597384672,1.1920501,-0.23400001,11.356951,0.0721875,-0.374,-0.07095
1692597384699,2.1790502,0.19095,10.347,0.1049125,-0.3130875,-0.104225
1692597384729,2.39205,0.20805001,10.408951,0.15565,-0.29205,-0.1078
1692597384759,2.14995,-0.43305,11.532001,0.307175,-0.39833748,-0.115225
1692597384788,1.7740501,-0.78000003,10.993051,0.368225,-0.487575,-0.12705
1692597384816,1.28805,-1.59105,11.710951,0.348975,-0.5539875,-0.0746625
1692597384844,0.42405003,-2.0700002,13.428,0.26125,-0.5027,-0.020624999
1692597384872,0.19395001,-1.848,13.132951,0.1348875,-0.399025,0.0427625
1692597384900,0.024,-0.23400001,10.510051,-0.136125,-0.064625,0.18095
1692597384925,-0.13305001,-0.124050006,9.696,-0.202675,0.11495,0.18933749
1692597384953,-0.31905,-0.81600004,10.6369505,-0.111375,0.365475,-0.014575
1692597384986,-0.46500003,-1.16805,10.9810505,-0.018975,0.4318875,-0.1885125
1692597385015,0.20595,-0.90705,9.315001,0.037125,0.5025625,-0.4497625
1692597385042,0.71595,-0.78000003,8.04705,-0.003025,0.5102625,-0.4637875
1692597385069,0.76395005,-0.78495,8.037001,-0.070125,0.4002625,-0.3707
1692597385099,0.44595003,-0.79395,8.691,-0.0792,0.2721125,-0.31405
1692597385130,0.48405004,-0.66,8.35305,-0.0798875,0.1315875,-0.2475
1692597385156,0.642,-0.72,8.190001,-0.0749375,0.021724999,-0.1648625
1692597385187,0.582,-0.98295003,8.253,-0.052249998,-0.066,0.0122375
1692597385215,0.52905005,-1.19895,9.68595,-0.03355,-0.10285,0.1915375
1692597385243,0.37605003,-1.39005,10.783051,-0.0400125,-0.1181125,0.277475
1692597385272,0.63195,-1.2610501,10.725,-0.0930875,-0.09295,0.3733125
1692597385308,0.68295,-0.67905,9.688951,-0.122237496,-0.0609125,0.3790875
1692597385336,1.06095,-0.63600004,9.62895,-0.117425,-0.0257125,0.256025
1692597385366,1.2550501,-0.74700004,9.729,-0.0694375,-0.0301125,0.1194875
1692597385394,1.4170501,-0.86595005,9.47595,0.044275,-0.0988625,-0.0853875
1692597385422,1.5010501,-1.005,9.19095,0.0704,-0.1617,-0.0858
1692597385451,1.5949501,-1.39995,7.7710505,0.0598125,-0.2833875,0.0471625
1692597385481,2.5900502,-1.1869501,9.78195,0.0363,-0.32725,0.14905
1692597385511,2.193,-1.2060001,8.941951,0.0092124995,-0.3634125,0.254375
1692597385539,1.932,-1.3399501,9.96195,-0.0331375,-0.45319998,0.39627498
1692597385568,1.9939501,-1.50495,11.05095,-0.0466125,-0.4984375,0.39985
1692597385598,0.86205006,-0.85905004,9.670051,-0.07535,-0.4970625,0.3012625
1692597385626,0.9480001,-0.66300005,10.15995,-0.0881375,-0.435875,0.231
1692597385653,0.63705003,-0.81600004,10.9789505,-0.0842875,-0.325325,0.141625
1692597385683,0.92205006,-0.69105005,11.400001,-0.021724999,0.004675,-0.101475
1692597385713,1.2090001,-1.074,12.52995,0.0353375,0.2671625,-0.3773
1692597385739,1.3069501,-1.17495,12.67605,0.0433125,0.3179,-0.4994
1692597385770,1.4389501,-1.1200501,11.34,0.04015,0.3243625,-0.58245
1692597385799,0.52500004,-1.4239501,10.60095,0.02035,0.2685375,-0.6056875
1692597385826,1.554,-2.6230502,11.56305,0.001375,0.2355375,-0.5680125
1692597385856,1.6300501,-2.35995,10.584001,-0.0895125,0.2072125,-0.4456375
1692597385885,2.29605,-2.3770502,10.12905,-0.174625,0.164175,-0.32587498
1692597385918,1.9339501,-2.283,9.861,-0.3441625,-0.0488125,0.0308
1692597385947,1.8030001,-1.7950501,9.32505,-0.3862375,-0.17379999,0.2013
1692597385976,1.8750001,-1.2970501,9.4129505,-0.380325,-0.3405875,0.363825
1692597386004,2.6860502,-1.161,8.93505,-0.3350875,-0.3584625,0.3141875
1692597386034,2.3770502,-0.80595005,7.46505,-0.1791625,-0.3548875,0.0738375
1692597386062,1.7170501,-0.94995004,7.5730505,-0.0935,-0.3806,-0.031075
1692597386091,1.7740501,-1.27995,9.27705,-0.0193875,-0.418275,-0.09405
1692597386121,1.34595,-1.2610501,8.87205,0.06765,-0.3947625,-0.126775
1692597386151,1.863,-1.64205,8.928,0.0754875,-0.2985125,-0.1452
1692597386180,0.38595003,-1.8600001,9.576,0.044275,-0.06655,-0.1925
1692597386209,-0.21195,-1.917,9.46605,-0.046475,0.1023,-0.10285
1692597386238,0.68700004,-2.0370002,8.722051,-0.111925,0.2099625,-0.028324999
1692597386267,0.71595,-1.43805,7.9290004,-0.1722875,0.3309625,0.0196625
1692597386295,-0.42000002,-1.24395,7.5990005,-0.2363625,0.4525125,0.0105875
1692597386326,-1.04505,-1.2730501,7.4359503,-0.22687499,0.44055,-0.0284625
1692597386354,-0.47505003,-1.8280501,8.3220005,-0.1934625,0.4547125,-0.08305
1692597386384,-0.40800002,-2.2759502,8.19495,-0.13145,0.696575,-0.22275
1692597386412,-1.0879501,-2.11995,7.9990506,-0.133925,0.8025875,-0.234575
1692597386439,-0.975,-2.2090502,8.97795,-0.2110625,0.760375,0.0273625
1692597386469,-1.08105,-2.01795,10.278001,-0.2569875,0.715825,0.1926375
1692597386499,-0.84405005,-1.7329501,9.780001,-0.2660625,0.6859875,0.3746875
1692597386527,-1.0210501,-1.5990001,9.27705,-0.2123,0.6601375,0.3806
1692597386558,-0.99195004,-2.3430002,10.552951,-0.042625,0.56925,0.2311375
1692597386586,-0.564,-3.0970502,11.56095,0.0268125,0.51301247,0.1651375
1692597386615,-0.29805002,-3.01605,10.254001,0.003575,0.29975,0.5038
1692597386645,-0.13305001,-2.6880002,10.392,-0.1128875,0.081125,1.0632875
1692597386674,-0.46500003,-2.43195,10.96905,-0.2531375,-0.1841125,1.731125
1692597386703,-0.19695,-1.9860001,10.878,-0.3092375,-0.4010875,2.4033625
1692597386732,-0.09195001,-1.64205,10.750951,-0.20487499,-0.328075,2.25115
1692597386762,-0.13005,-1.6699501,10.996051,-0.1271875,-0.363825,1.9173
1692597386790,0.12495001,-1.266,11.802001,0.0807125,-0.326425,1.2222375
1692597386819,-0.22095,-1.2040501,10.73505,0.24653749,-0.279125,0.71005
1692597386847,-0.13995,-1.8910501,12.87705,0.3144625,-0.247775,0.4492125
1692597386877,-0.52995,-1.6180501,12.09,0.3762,-0.1744875,0.0545875
1692597386901,-0.40995002,-1.1920501,10.219951,0.3443,-0.1456125,0.02475
1692597386932,0.003,-0.96195006,9.354,0.2476375,-0.0856625,0.1398375
1692597386963,0.22800002,-1.1850001,9.14805,0.2314125,-0.0551375,0.1577125
1692597386991,0.18900001,-1.266,8.89605,0.2292125,-0.040975,0.1324125
1692597387023,-0.102000006,-1.36395,9.16695,0.1904375,-0.08635,0.083325
1692597387052,0.30705002,-1.3879501,8.856,0.1502875,-0.119075,0.08635
1692597387081,0.24195,-0.97605,8.217,0.07315,-0.126225,0.0837375
1692597387110,0.015000001,-0.8880001,8.425051,0.044,-0.1263625,0.0862125
1692597387139,-0.87000006,-0.80595005,9.30105,0.0363,-0.1483625,0.094875
1692597387165,-0.19995001,-1.2760501,9.96405,0.0653125,-0.1175625,0.068475
1692597387200,-0.61905,-1.67505,10.467001,0.1346125,0.0636625,-0.01045
1692597387226,-0.99000007,-1.5649501,9.729,0.135025,0.134475,0.006875
1692597387254,-1.1520001,-1.2589501,9.18105,0.0999625,0.159225,0.0939125
1692597387285,-1.0879501,-0.89295006,9.247951,-0.01045,0.186175,0.39105
1692597387313,-0.62805,-1.1220001,9.684,-0.031625,0.275275,0.45374998
1692597387339,-0.46995002,-0.96195006,9.378,0.00385,0.308,0.3235375
1692597387368,-0.59205,-0.9480001,9.361051,0.048125,0.304425,0.1507
1692597387398,-0.549,-0.837,9.11205,0.1034,0.1931875,-0.0836
1692597387429,0.14595,-1.0360501,9.933001,0.1123375,0.1274625,-0.101475
1692597387458,-0.24795002,-0.43500003,9.81105,0.111375,0.0218625,-0.087037496
1692597387488,0.087000005,-0.08295,10.23705,0.1159125,-0.02805,-0.136675
1692597387522,0.60795003,-0.048,11.067,0.198275,-0.109175,-0.3804625
1692597387546,0.45495003,-0.74895006,11.625001,0.2773375,-0.1387375,-0.54202497
1692597387575,0.59205,-1.9030501,13.120951,0.3872,-0.22715,-0.72105
1692597387604,0.36705002,-2.15595,13.2619505,0.3568125,-0.275275,-0.6397875
1692597387633,-0.23805001,-1.67295,11.170051,0.0974875,-0.3194125,-0.15413749
1692597387662,-1.0519501,-1.8720001,10.857,-0.0592625,-0.309375,0.105325
1692597387692,-1.19805,-2.535,11.88405,-0.1739375,-0.2646875,0.2888875
1692597387723,-0.89895004,-2.4049501,11.92395,-0.240625,-0.1766875,0.4156625
1692597387752,-0.54705,-1.6200001,9.09,-0.3328875,0.0534875,0.6326375
1692597387785,-1.3099501,-1.761,10.098001,-0.384175,0.1648625,0.58025
1692597387809,-1.00605,-1.5820501,9.70995,-0.3612125,0.17765,0.436425
1692597387844,-1.2,-0.837,8.358001,-0.262625,0.251625,0.1832875
1692597387870,-0.72195005,-0.60300004,8.391001,-0.1241625,0.36685,-0.0983125
1692597387898,-0.44400004,-0.57900006,8.08005,-0.0248875,0.4057625,-0.32505
1692597387927,-1.15005,-0.95205003,5.2870502,0.08635,0.427075,-0.5960625
1692597387956,-1.0639501,-2.38905,8.868,0.238425,0.4266625,-0.9922
1692597387986,-0.76500005,-2.8290002,10.55805,0.2182125,0.4170375,-0.955625
1692597388014,-1.44,-2.094,8.925,-0.1029875,0.275825,-0.2894375
1692597388043,-0.24300002,-2.12505,8.488951,-0.3084125,0.14739999,0.111237496
1692597388070,-0.73800004,-1.539,7.8930006,-0.43505,0.0463375,0.323125
1692597388100,-0.55905,-1.2229501,9.291,-0.42295,-0.0031625,0.161425
1692597388130,-0.975,-0.273,8.51295,-0.33605,0.011825,-0.0556875
1692597388160,-0.27195,0.26295,7.7310004,-0.022824999,0.100375,-0.7297125
1692597388188,-0.34095,-0.282,8.773951,0.213125,0.1912625,-1.2826
1692597388216,-0.65505004,-0.23895001,9.373051,0.6743,0.31913748,-2.374075
1692597388246,-0.109050006,-0.12195001,9.303,0.7876,0.2946625,-2.5810125
1692597388274,0.37095,-0.00705,8.805,0.7869125,0.1733875,-2.3868625
1692597388307,0.71805006,-0.49005002,9.556951,0.7393375,0.091025,-2.1509125
1692597388336,-0.094050005,-0.024,8.217,0.6004625,-0.1662375,-1.5054874
1692597388364,-0.16905001,0.00405,7.5460505,0.5154875,-0.2959,-1.1485375
1692597388393,0.41700003,-0.049950004,6.60795,0.37125,-0.36685,-0.599775
1692597388423,1.5490501,-1.35195,8.49705,0.3295875,-0.3089625,-0.4580125
1692597388451,1.41495,-2.25,11.139001,0.2893,-0.2644125,-0.342375
1692597388482,1.0699501,-2.592,12.858001,0.0408375,-0.4499,0.253275
1692597388510,1.8910501,-2.11605,12.879001,-0.1684375,-0.606925,0.68694997
1692597388539,2.66895,-1.6510501,11.938951,-0.4565,-0.6774625,1.089825
1692597388567,2.5849502,-1.4140501,11.47395,-0.47465,-0.663575,1.03235
1692597388602,1.5490501,-1.51005,12.642,-0.333025,-0.729575,0.74965
1692597388632,1.2550501,-1.9650002,13.320001,-0.2336125,-0.7420875,0.58575
1692597388658,1.2550501,-2.1420002,12.36705,-0.1040875,-0.5566,0.2743125
1692597388689,1.44105,-2.02005,11.383051,-0.0933625,-0.3909125,0.1769625
1692597388717,0.91995007,-1.6150501,10.46895,-0.1104125,-0.237325,0.14465
1692597388747,0.41400003,-1.05795,9.59805,-0.1500125,-0.0743875,0.2349875
1692597388776,0.46695003,-1.48905,9.636001,-0.1095875,0.0306625,0.217525
1692597388805,0.16095,-2.0770502,10.828051,-0.071775,0.100925,0.131175
1692597388833,0.35205,-1.9480501,10.351951,-0.050875,0.20487499,0.0411125
1692597388862,0.642,-1.572,9.250951,-0.07975,0.2385625,0.0528
1692597388891,0.34695002,-1.2079501,7.8289504,-0.1348875,0.26455,0.0339625
1692597388927,0.097950004,-1.2280501,9.045,-0.1340625,0.245575,-0.0119624995
1692597388941,0.39495003,-1.3780501,9.562051,-0.115225,0.2189,-0.0587125
1692597388979,0.38595003,-1.1200501,8.616,-0.0512875,0.2050125,-0.1159125
1692597389009,0.642,-1.36905,8.575951,0.0048125,0.18755,-0.1254
1692597389038,0.73800004,-1.74195,9.942,0.018975,0.1522125,-0.106425
1692597389067,0.57705003,-1.6350001,10.60995,0.02035,0.102575,-0.0507375
1692597389095,0.381,-1.2780001,9.736951,-0.0022,-0.01595,0.1997875
1692597389124,0.546,-1.2900001,9.94005,-0.0070125,-0.0515625,0.308825
1692597389153,0.9480001,-1.6369501,11.356951,0.017875,-0.0422125,0.2685375
1692597389183,0.76605004,-1.46895,11.448001,0.0334125,-0.028324999,0.161975
1692597389212,0.63705003,-1.3740001,11.11995,0.0334125,-0.028324999,0.161975
1692597389240,1.1040001,-1.0720501,9.583051,0.055825,-0.032175,-0.0935
1692597389268,1.33095,-1.13205,9.247951,0.0726,-0.0204875,-0.1568875
1692597389297,0.97200006,-1.24905,9.612,0.103125,-0.0496375,-0.21779999
1692597389326,1.0320001,-1.59105,9.459001,0.102575,-0.1010625,-0.2011625
1692597389361,1.40295,-1.62705,9.397051,0.067375,-0.1681625,-0.09955
1692597389390,1.28805,-1.3260001,8.545051,-0.0048125,-0.1835625,0.0570625
1692597389419,1.4440501,-1.383,8.76,-0.0372625,-0.2079,0.1188
1692597389449,1.72395,-1.6350001,10.069051,-0.0576125,-0.2754125,0.20405
1692597389475,1.9630501,-1.39995,10.05,-0.0495,-0.29865,0.2360875
1692597389503,2.1450002,-0.933,9.92595,-0.036025,-0.3146,0.252175
1692597389535,2.4469502,-0.92595005,10.549951,0.0224125,-0.3551625,0.24255
1692597389559,2.2699502,-0.89505005,10.732051,0.0768625,-0.383075,0.21835
1692597389590,2.2429502,-1.062,11.553,0.135575,-0.4032875,0.1683
1692597389620,1.48395,-0.708,10.266001,0.2047375,-0.3650625,-0.0154
1692597389649,1.33605,-0.95505005,10.066951,0.21505,-0.301125,-0.1122
1692597389678,0.81900007,-1.2970501,11.11095,0.2091375,-0.1161875,-0.264
1692597389706,2.26005,-1.6819501,11.103001,0.1816375,-0.017324999,-0.3135
1692597389736,2.43195,-1.23195,10.549951,0.0661375,0.1353,-0.3081375
1692597389765,1.8940501,-1.5990001,13.288951,0.0050875,0.132825,-0.2611125
1692597389796,1.19505,-0.97605,11.577001,-0.056649998,-0.0176,-0.2044625
1692597389822,2.43,-1.08405,10.43295,-0.0617375,-0.0427625,-0.2391125
1692597389852,2.20005,-1.041,9.471001,-0.059675,-0.003025,-0.2915
1692597389879,1.16805,-0.81600004,9.624001,-0.0438625,0.0397375,-0.2979625
1692597389908,1.7209501,-1.55805,10.155001,-0.0358875,-0.0116875,-0.26345
1692597389938,1.50405,-1.5270001,8.6640005,-0.03355,-0.0539,-0.221375
1692597389967,1.18005,-1.04295,7.7239504,-0.050875,-0.0268125,-0.1797125
1692597389998,1.79805,-1.0699501,8.49405,-0.079475,-0.0088,-0.113575
1692597390026,1.6210501,-0.76305,8.46105,-0.106975,-0.0072875,-0.0086624995
1692597390061,1.4680501,-1.16295,9.106951,-0.069299996,-0.01815,-0.0154
1692597390087,1.5949501,-1.8790501,10.878,-0.0474375,-0.0328625,-0.0396
1692597390126,0.711,-1.5840001,11.235001,-0.033275,-0.0308,-0.0515625
1692597390149,0.55095005,-0.77505004,8.71905,-0.0565125,0.0086624995,-0.0284625
1692597390177,0.642,-0.55005,8.17095,-0.1126125,0.198275,-0.0605
1692597390204,-0.762,-0.62205005,8.28405,-0.098725,0.2954875,-0.1579875
1692597390235,-1.5690001,-0.85200006,8.21205,0.0056375,0.4384875,-0.3971
1692597390265,-0.88905007,-1.69395,8.7619505,0.0446875,0.55962497,-0.5036625
1692597390294,-0.26700002,-2.21895,8.944051,0.0518375,0.7236625,-0.5929
1692597390321,-0.64500004,-2.286,8.84895,-0.0567875,0.9317,-0.53625
1692597390350,-0.97305006,-1.9530001,8.05605,-0.173525,0.8696875,-0.3031875
1692597390378,-0.66195005,-1.9770001,7.12305,-0.39421248,0.601425,0.3128125
1692597390408,-0.48000002,-2.331,8.089951,-0.4406875,0.531025,0.5006375
1692597390436,-1.6020001,-2.1079502,8.7619505,-0.4602125,0.4555375,0.6711375
1692597390466,-2.04495,-1.3570501,7.15395,-0.46461248,0.4016375,0.7291625
1692597390494,-1.8010501,-1.3429501,7.668,-0.44825,0.3982,0.7008375
1692597390526,-1.4089501,-1.9339501,9.95895,-0.276375,0.6439125,0.274175
1692597390555,-1.5810001,-2.39295,10.55805,-0.0595375,0.7649125,-0.049775
1692597390583,-1.7680501,-2.77395,10.732051,-0.027775,0.6576625,0.0251625
1692597390609,-1.5829501,-2.9940002,12.312,-0.059675,0.4904625,0.2528625
1692597390639,-1.62195,-2.355,11.503051,-0.2237125,0.1742125,0.8845375
1692597390668,-1.2409501,-1.8790501,11.352,-0.278575,0.0716375,1.05325
1692597390696,-0.846,-1.9480501,12.130051,-0.265925,0.019524999,1.01585
1692597390726,-0.73095006,-2.0730002,12.25695,-0.0831875,-0.0264,0.675675
1692597390754,-0.84405005,-2.0029502,11.24205,0.069025,-0.179575,0.5454625
1692597390784,-0.14205001,-2.4820502,11.97,0.0928125,-0.2671625,0.5941375
1692597390813,-0.16605,-2.2780502,11.166,0.0562375,-0.397375,0.8261
1692597390842,-0.063,-2.01,10.689,0.015675,-0.45374998,0.8889375
1692597390869,-0.31005,-1.7350501,10.371,-0.0246125,-0.5014625,0.8900375
1692597390900,-0.42000002,-1.07895,8.83905,-0.0507375,-0.5207125,0.793375
1692597390928,-0.216,-0.82995003,8.71905,-0.0240625,-0.4785,0.6854375
1692597390959,-0.64500004,-0.66,8.676001,0.0889625,-0.3262875,0.3056625
1692597390984,-0.35505003,-0.68205005,8.722051,0.1618375,-0.24447499,0.0785125
1692597391014,-0.70695,-0.56700003,8.18295,0.2963125,-0.087175,-0.3081375
1692597391043,-0.79095006,-0.84195006,8.793,0.34045,-0.028324999,-0.41415
1692597391071,-0.41295,-1.35,9.613951,0.3634125,0.00605,-0.436425
1692597391101,-0.99705005,-1.4770501,9.981001,0.33261248,0.0457875,-0.282975
1692597391132,-0.92700005,-1.55295,10.01895,0.1857625,0.064899996,-0.0067375
1692597391166,-0.86295,-1.383,9.77505,0.108075,0.0793375,0.0776875
1692597391194,-0.76905006,-1.5510001,10.27995,0.008525,0.122237496,0.115225
1692597391221,-0.966,-1.5460501,10.182,-0.0251625,0.117975,0.17173749
1692597391248,-1.07595,-1.3450501,9.574051,-0.0532125,0.09515,0.259875
1692597391281,-0.975,-1.21605,9.96195,-0.0842875,0.057475,0.3826625
1692597391307,-0.78105,-1.161,9.79395,-0.081125,0.0576125,0.39545
1692597391337,-0.70695,-0.95205003,9.48795,-0.06435,0.063525,0.376475
1692597391364,-0.77400005,-0.73905003,8.865001,0.001375,0.0592625,0.2347125
1692597391394,-0.73095006,-0.72495,8.604,0.0455125,0.0490875,0.13213749
1692597391424,-0.66405004,-1.1560501,9.423,0.1324125,0.0383625,-0.048125
1692597391452,-0.76905006,-1.0890001,9.436951,0.16335,0.0408375,-0.1197625
1692597391483,-0.94905007,-0.591,8.089951,0.16499999,0.042075,-0.22247499
1692597391511,-0.90795004,-0.91200006,9.13605,0.114125,0.0286,-0.193875
1692597391540,-0.51795,-1.3450501,10.774951,0.103675,0.0372625,-0.164175
1692597391569,-0.47505003,-0.75405,10.11495,0.098037496,0.0490875,-0.149325
1692597391597,-1.03695,-0.35895002,8.913,0.0562375,-0.0045375,-0.0539
1692597391627,-0.58005005,-1.04595,10.59105,0.0578875,-0.043449998,-0.0033
1692597391654,-0.45600003,-1.50495,11.367001,0.095975,-0.0441375,-0.014162499
1692597391686,-1.44,-1.7569501,10.96905,0.141625,-0.0221375,-0.0562375
1692597391715,-0.52005005,-2.73105,11.500951,-0.0290125,-0.1078,0.1973125
1692597391743,-1.116,-2.74005,13.309951,-0.1518,-0.1260875,0.3653375
1692597391771,-1.8319501,-3.07095,13.102051,-0.2745875,-0.12155,0.519475
1692597391800,-2.4109502,-2.84295,12.05805,-0.4657125,-0.0710875,0.6358
1692597391832,-1.9660501,-2.295,11.11095,-0.505725,0.001925,0.5765375
1692597391854,-1.6360501,-2.19705,10.5070505,-0.5093,0.1049125,0.494725
1692597391887,-2.055,-2.0299501,9.13305,-0.42185,0.2905375,0.2875125
1692597391916,-1.9090501,-1.8360001,8.470051,-0.2569875,0.392975,-0.0930875
1692597391945,-1.6570501,-1.9549501,8.643001,-0.1909875,0.4288625,-0.265375
1692597391974,-1.593,-2.0029502,8.71905,-0.1909875,0.4288625,-0.265375
1692597392001,-1.7680501,-1.6900501,8.145,-0.083325,0.4255625,-0.51755
1692597392031,-1.50705,-1.7689501,7.7880006,-0.0537625,0.396,-0.589325
1692597392060,-1.0710001,-1.8600001,7.9800005,0.0111375,0.37675,-0.7613375
1692597392091,-1.03695,-1.9960501,7.68795,0.033,0.3636875,-0.8006625
1692597392120,-1.0690501,-2.32605,7.5610504,0.014575,0.2454375,-0.6769125
1692597392148,-0.20895001,-2.8939502,9.208051,-0.0331375,0.1667875,-0.5457375
1692597392178,-0.12105001,-2.12805,9.61695,-0.1969,-0.0375375,-0.1857625
1692597392205,-0.19305001,-1.1580001,8.10705,-0.2633125,-0.19305,-0.0449625
1692597392234,-1.21695,-0.531,7.21395,-0.264825,-0.334125,-0.036849998
1692597392263,-0.61605,-1.029,8.32905,-0.0026125,-0.3510375,-0.4536125
1692597392294,-0.37905002,-1.7040001,9.865951,0.3790875,-0.0906125,-1.0646625
1692597392322,-1.176,-1.761,10.347,0.482075,0.005775,-1.2766875
1692597392348,-1.0849501,-1.0510501,8.343,0.5028375,0.0433125,-1.375825
1692597392377,-0.10395,-1.4100001,9.436951,0.4120875,0.0848375,-1.327425
1692597392407,0.11505,-1.5600001,9.18105,0.368225,0.11165,-1.242725
1692597392434,0.30705002,-1.7809501,8.974951,0.3309625,0.08855,-1.105775
1692597392464,0.079050004,-1.9620001,7.9630504,0.225225,-0.117699996,-0.726
1692597392494,-0.231,-2.049,8.24505,0.0598125,-0.2993375,-0.32587498
1692597392522,-0.40800002,-2.32905,9.366,-0.0380875,-0.3447125,-0.085525
1692597392550,-0.61395,-1.98405,10.134001,-0.1332375,-0.3608,0.1574375
1692597392582,0.58695,-1.55805,9.342,-0.2355375,-0.291775,0.410025
1692597392610,1.5510001,-1.51005,10.668,-0.1489125,-0.1973125,0.2888875
1692597392637,1.29495,-1.19895,11.853001,-0.0661375,-0.251075,0.2380125
1692597392667,1.86705,-1.1179501,12.175951,0.0253,-0.3779875,0.2222
1692597392695,1.1040001,-1.029,12.8869505,0.23127499,-0.6293375,0.1571625
1692597392726,0.99105006,-1.0170001,13.66005,0.3210625,-0.6705875,0.091575
1692597392754,0.93600005,-1.146,12.4150505,0.4109875,-0.547525,-0.1211375
1692597392782,0.87900007,-1.455,11.85,0.4147,-0.4329875,-0.2374625
1692597392818,0.32595003,-1.7830501,12.133051,0.34045,-0.2534125,-0.2957625
1692597392843,-0.21405001,-1.2420001,11.235001,0.2695,-0.1951125,-0.2112
1692597392871,0.15405001,-1.0360501,10.062,0.124575,-0.05775,-6.875E-4
1692597392900,0.42405003,-1.16805,9.226951,0.082499996,0.02255,0.0248875
1692597392928,0.12495001,-1.16505,9.23595,0.065725,0.0858,8.25E-4
1692597392956,-0.01305,-1.1389501,9.16005,0.0499125,0.126775,-0.0572
1692597392986,-0.09,-1.00995,8.68605,0.0312125,0.1287,-0.0924
1692597393011,0.120000005,-0.87600005,8.299951,0.011825,0.1368125,-0.1445125
1692597393043,0.060000002,-0.924,8.266951,-0.0023375,0.1612875,-0.21835
1692597393071,0.25395,-1.1149501,8.269051,0.0055,0.1626625,-0.2072125
1692597393102,0.109950006,-1.35405,9.44505,0.022824999,0.128425,-0.12375
1692597393132,-0.063,-1.43805,9.717,0.0133375,0.099825,-0.064075
1692597393161,0.11505,-1.55595,10.189051,-0.0446875,0.05775,0.100099996
1692597393189,0.216,-1.3279501,10.31295,-0.073975,0.0529375,0.181225
1692597393216,0.32295,-1.3110001,10.41195,-0.095837496,0.053625,0.23773749
1692597393245,-0.109050006,-1.02195,10.225051,-0.0829125,0.04015,0.2256375
1692597393276,-0.43905002,-0.933,10.428,-0.0259875,0.0077,0.167475
1692597393301,-0.26205,-0.99105006,10.531051,0.01375,0.025024999,0.083325
1692597393331,0.063,-0.9670501,10.189051,0.056925,0.0708125,-0.0328625
1692597393361,0.31395,-0.82605004,9.196051,0.117975,0.151525,-0.1926375
1692597393390,0.59895,-0.81405,8.181001,0.128975,0.1012,-0.170225
1692597393418,0.80205005,-0.864,7.8930006,0.1255375,0.0394625,-0.132275
1692597393453,1.2550501,-1.21605,9.03495,0.0991375,-0.118525,0.0061875
1692597393482,1.401,-1.0360501,8.77005,0.0716375,-0.2129875,0.1087625
1692597393512,1.4130001,-1.0860001,8.43,0.0353375,-0.3147375,0.22385
1692597393539,1.2709501,-1.4119501,9.567,-0.02695,-0.4882625,0.412225
1692597393566,1.7689501,-1.536,10.74705,-0.039875,-0.517,0.4351875
1692597393599,1.5300001,-1.074,10.1320505,-0.065725,-0.476025,0.36313748
1692597393629,1.7260501,-0.90900004,9.904051,-0.0801625,-0.451825,0.306075
1692597393655,2.016,-0.96405005,11.13195,-0.0422125,-0.3966875,0.128425
1692597393683,1.5439501,-0.73695004,10.897051,0.0055,-0.36685,0.0210375
1692597393713,0.59595,-0.79695004,10.75395,0.055,-0.3425125,-0.064075
1692597393742,0.18900001,-1.4260501,12.349951,0.132,-0.23595,-0.1860375
1692597393770,0.651,-1.25205,13.717051,0.1428625,-0.1148125,-0.25905
1692597393801,1.3219501,-0.39705002,10.689,0.0966625,0.163625,-0.316525
1692597393836,0.762,0.48795003,8.37495,0.0727375,0.2608375,-0.30745
1692597393864,0.99600005,-0.29700002,8.98005,0.1216875,0.2299,-0.365475
1692597393894,1.1520001,-1.8210001,11.680051,0.19813749,0.1725625,-0.4472875
1692597393923,-0.079950005,-2.0989501,12.939001,0.2393875,0.054725,-0.4202
1692597393951,0.60105,-1.67805,11.802001,0.139425,0.0273625,-0.2387
1692597393980,0.726,-1.1560501,9.17205,-0.1478125,0.1181125,0.036025
1692597394009,1.67805,-1.2280501,9.904051,-0.2319625,0.18205,9.625E-4
1692597394038,1.9200001,-1.7569501,10.648951,-0.2330625,0.127325,-0.1373625
1692597394068,2.394,-1.4070001,9.28905,-0.201025,0.0127875,-0.1332375
1692597394096,2.5849502,-1.4650501,8.67405,-0.1819125,-0.247775,0.03355
1692597394126,1.5160501,-1.0669501,8.458051,-0.18493749,-0.3686375,0.12045
1692597394154,1.1539501,-0.87600005,8.358001,-0.1648625,-0.5358375,0.1947
1692597394184,0.67095006,-0.90900004,8.323951,-0.135025,-0.5212625,0.1901625
1692597394213,0.771,-1.3780501,8.784,-0.09515,-0.427075,0.1469875
1692597394241,0.70605004,-1.9650002,9.220051,-0.033,-0.1354375,-0.020075
1692597394272,0.61995006,-1.503,8.7960005,-0.0735625,0.098175,-0.01485
1692597394301,0.53400004,-1.1080501,7.79295,-0.122375,0.175175,0.0515625
1692597394336,-0.40800002,-1.45305,8.262,-0.17379999,0.25135,0.0818125
1692597394364,-0.87495005,-1.8090001,8.829,-0.1648625,0.268675,0.0477125
1692597394392,-0.81195,-1.6489501,9.327001,-0.1461625,0.3840375,0.0182875
1692597394420,-0.31005,-1.5120001,8.63805,-0.15675,0.510675,0.0092124995
1692597394449,-0.46800002,-1.6699501,7.8220506,-0.1692625,0.6408875,-0.027775
1692597394478,-0.63105005,-1.8600001,6.8500504,-0.1733875,0.7192625,-0.1375
1692597394507,0.81195,-3.8509502,7.9560003,-0.1859,0.65945,-0.125125
1692597394535,-1.5520501,-2.9149501,10.053,-0.3007125,0.4648875,0.22893749
1692597394564,-0.19305001,-2.19195,8.47995,-0.4329875,0.29315,0.68365
1692597394591,-2.3800502,-0.81600004,6.6199503,-0.57722497,0.0726,1.2456125
1692597394620,-2.8950002,-0.8880001,7.4080505,-0.5801125,-0.1170125,1.7158625
1692597394650,-1.4899501,-1.4929501,9.04695,-0.39105,0.0840125,1.3963125
1692597394679,-1.2360001,-2.2470002,10.078951,0.061875,0.7027625,0.33935
1692597394708,-1.3750501,-2.8909502,11.788051,0.1881,0.8100125,0.050875
1692597394738,-1.2600001,-2.9320502,12.463051,0.1500125,0.5655375,0.260975
1692597394764,-0.70995003,-2.93895,12.717001,0.0474375,0.372075,0.5324
1692597394794,-0.63105005,-2.69295,13.791,-0.052249998,0.1835625,0.7874625
1692597394823,-0.99195004,-2.15205,13.19505,-0.11605,-0.1243,0.9546625
1692597394853,-1.2070501,-1.8070501,11.812051,-0.0757625,-0.2211,0.8179875
1692597394882,-0.62100005,-2.0080502,12.349951,0.0763125,-0.225225,0.3361875
1692597394908,-0.56595004,-2.0010002,12.493951,0.15125,-0.150975,0.0845625
1692597394939,-1.4299501,-1.43295,10.194,0.22247499,-0.0543125,-0.198275
1692597394970,-1.2409501,-1.764,10.09605,0.21779999,-0.0682,-0.158125
1692597394998,-0.77400005,-2.14905,10.455001,0.17325,-0.0688875,0.1010625
1692597395025,-0.82395005,-1.6369501,9.792001,0.1346125,-0.0375375,0.217525
1692597395058,-1.2550501,-0.88305,7.76205,0.03135,-0.045925,0.3862375
1692597395085,-0.18300001,-1.3039501,8.06805,0.0099,-0.054175,0.4035625
1692597395112,-0.24495001,-1.3570501,8.101951,0.0671,0.0053625,0.2602875
1692597395142,-0.72900003,-1.40505,8.20695,0.0900625,-0.0042625,0.19813749
1692597395171,-0.84795004,-1.5460501,8.86095,0.0567875,-0.117837496,0.2046
1692597395200,-0.57105005,-1.5990001,8.99505,0.0270875,-0.1401125,0.24365
1692597395236,-1.0330501,-1.6660501,9.76095,-0.0138875,-0.103125,0.340175
1692597395264,-1.4280001,-1.6300501,10.15305,-0.0243375,-0.0818125,0.3669875
1692597395292,-1.34895,-1.6110001,10.1320505,-0.029975,-0.0578875,0.37675
1692597395319,-1.4089501,-1.40505,10.1320505,-0.018424999,0.0358875,0.35145
1692597395352,-1.5949501,-1.3590001,9.90705,0.028324999,0.13805,0.2275625
1692597395378,-1.57605,-1.36395,9.904051,0.028324999,0.13805,0.2275625
1692597395408,-1.4610001,-1.2060001,9.415951,0.0867625,0.2099625,0.0356125
1692597395437,-1.42305,-1.16805,9.196051,0.1054625,0.2322375,-0.005775
1692597395465,-1.10895,-1.16805,9.31995,0.1164625,0.2297625,0.0253
1692597395495,-1.1689501,-1.098,9.430051,0.1214125,0.1771,0.0204875
1692597395525,-1.02795,-1.1389501,9.59805,0.120725,0.127325,0.0397375
1692597395553,-0.44400004,-1.0860001,10.48095,0.1175625,0.028324999,0.101475
1692597395582,-0.21405001,-0.85395,10.677,0.121,-0.0202125,0.1051875
1692597395608,-0.71400005,-0.67200005,10.774951,0.1342,-0.08635,0.071225
1692597395643,-0.39105,-1.0510501,11.955001,0.21065,-0.2206875,-0.1706375
1692597395670,-0.16605,-1.4980501,12.87195,0.275,-0.2682625,-0.3639625
1692597395697,-0.65895003,-1.6150501,13.606951,0.2481875,-0.292325,-0.28105
1692597395725,-1.4110501,-1.4239501,11.665951,0.1876875,-0.3257375,-0.1159125
1692597395755,-1.2720001,-1.77795,11.611051,0.0642125,-0.296725,0.14795
1692597395786,-1.9060501,-1.797,11.833051,0.0155375,-0.19607499,0.22
1692597395814,-2.2680001,-1.4430001,9.865951,-0.089375,0.020075,0.38279998
1692597395843,-1.69605,-1.3279501,8.62395,-0.1326875,0.1016125,0.4360125
1692597395871,-1.437,-1.43805,8.920051,-0.15455,0.18535,0.4302375
1692597395901,-1.353,-0.99105006,8.169001,-0.163075,0.308825,0.3518625
1692597395928,-1.04505,-1.161,7.7310004,-0.1518,0.27719998,0.2336125
1692597395959,-0.018000001,-1.608,8.37495,-0.1153625,0.2506625,0.0716375
1692597395988,0.112950005,-1.4860501,9.20505,-0.07205,0.2212375,-0.12265
1692597396016,-1.6860001,-0.67905,8.35995,-0.062425,0.0229625,-0.2981
1692597396044,-2.22495,-0.53595,8.16195,-0.0625625,-0.091299996,-0.3421
1692597396075,-1.57605,-0.75600004,10.17195,-0.0088,-0.0911625,-0.5036625
1692597396104,-0.88695,-0.75105006,9.813001,0.23155,0.245025,-1.14455
1692597396135,-0.72405005,-0.47100002,7.5919504,0.427075,0.4114,-1.6836874
1692597396163,-0.46095002,-0.56505,8.2240505,0.4640625,0.3598375,-1.782825
1692597396190,-0.43905002,-0.42795002,9.042001,0.462,0.2094125,-1.763025
1692597396220,-0.48495004,-0.25800002,9.330001,0.4437125,0.1225125,-1.6834124
1692597396251,-0.71895003,-0.18405001,8.004001,0.4214375,-0.0545875,-1.4883
1692597396281,-0.19695,-0.73905003,8.37705,0.4365625,-0.0859375,-1.4509
1692597396310,-0.22800002,-0.67905,8.83395,0.429825,-0.06765,-1.3008875
1692597396337,-0.37005,-0.44295,7.9249506,0.355575,-0.0875875,-1.060675
1692597396365,-0.28395,-0.261,7.1509504,0.2492875,-0.1337875,-0.749375
1692597396396,-0.049050003,-0.462,7.7449503,0.100925,-0.2030875,-0.296725
1692597396425,0.35505003,-0.624,8.820001,0.0908875,-0.208175,-0.2415875
1692597396454,-0.06105,-0.30405003,8.68605,0.0996875,-0.2156,-0.247775
1692597396483,0.41895002,-0.45000002,8.2240505,0.0840125,-0.30085,-0.1573
1692597396511,0.76905006,-1.1560501,9.745951,0.0702625,-0.3711125,-1.375E-4
1692597396541,0.8880001,-1.5480001,10.693951,0.061325,-0.390775,0.0840125
1692597396570,1.13505,-1.4119501,10.26105,0.014025,-0.4279,0.23567499
1692597396598,1.7520001,-1.23,10.45695,-0.1758625,-0.5314375,0.6562875
1692597396629,2.4510002,-1.23195,11.92695,-0.275,-0.636625,0.924825
1692597396662,2.571,-0.47400004,11.06295,-0.259875,-0.71389997,0.979275
1692597396690,2.15505,-0.076050006,10.57905,-0.2112,-0.8003875,0.9538375
1692597396718,2.0059502,-0.13095,10.222051,-0.0196625,-0.868725,0.61036247
1692597396748,1.7719501,-1.2400501,12.517951,0.0994125,-0.8157875,0.3977875
1692597396776,1.4100001,-1.43805,12.642,0.2305875,-0.6127,0.1533125
1692597396806,1.02495,-1.1730001,11.75895,0.193875,-0.4912875,0.1181125
1692597396832,1.1179501,-0.87600005,11.166,0.0204875,-0.22605,0.1040875
1692597396861,0.69000006,-0.65805006,11.055,-0.036575,-0.1012,0.078099996
1692597396891,0.70395005,-0.67695004,10.431001,-0.04455,0.091299996,-0.036849998
1692597396919,0.95295006,-0.87600005,10.206,-0.020624999,0.1607375,-0.113025
1692597396948,0.83805007,-1.18005,10.33695,0.0017875,0.20693749,-0.1769625
1692597396978,0.64395005,-1.3759501,10.833,-1.375E-4,0.205975,-0.210375
1692597397010,0.54795,-1.07895,10.26105,-0.033825,0.1841125,-0.201575
1692597397040,0.34305,-0.79005,9.37005,-0.1230625,0.1804,-0.20927499
1692597397068,0.33795002,-0.82095003,9.28905,-0.144925,0.1958,-0.2380125
1692597397099,0.41205,-0.98100007,9.093,-0.117975,0.2319625,-0.311025
1692597397127,0.50295,-1.1560501,9.49005,-0.087725,0.23925,-0.2919125
1692597397156,0.52005005,-1.2420001,9.483001,-0.0627,0.230175,-0.2118875
1692597397186,0.37605003,-1.1530501,9.44505,-0.0594,0.1678875,0.031075
1692597397217,0.38805002,-1.0170001,9.44205,-0.0944625,0.1018875,0.2319625
1692597397245,0.55995005,-0.91905004,9.504001,-0.10065,0.0864875,0.288475
1692597397274,0.70395005,-0.90900004,9.729,-0.0704,0.077,0.2365
1692597397303,0.771,-0.95205003,9.8539505,-0.0433125,0.0639375,0.160875
1692597397332,0.74505,-0.90195006,9.885,0.0055,0.00935,0.085525
1692597397429,1.2210001,-1.1850001,9.44505,0.056649998,-0.0650375,0.0187
1692597397470,1.5679501,-1.3230001,9.84195,0.0457875,-0.1208625,0.0748
1692597397489,1.67805,-1.194,9.768001,0.0193875,-0.1725625,0.16293749
1692597397523,1.6690501,-0.82995003,9.45705,-0.034649998,-0.28861248,0.3207875
1692597397549,1.8240001,-0.72300005,9.52095,-0.0407,-0.3377,0.364375
1692597397576,1.8769501,-0.933,10.31595,0.001925,-0.380325,0.300025
1692597397604,1.52505,-0.82605004,10.561951,0.032725,-0.37895,0.2080375
1692597397632,1.3789501,-0.72495,10.099951,0.06765,-0.337425,0.0496375
1692597397660,1.386,-0.65595,10.48305,0.0738375,-0.28393748,-0.01375
1692597397690,1.1400001,-0.28500003,10.91895,0.093775,-0.1401125,-0.1299375
1692597397719,-0.28605002,0.20805001,10.737,0.114675,-0.0768625,-0.171875
1692597397746,-0.01305,-0.112050004,12.355051,0.143825,-0.009075,-0.2314125
1692597397775,1.35,-0.21795002,12.669001,0.2121625,0.216975,-0.49665
1692597397806,1.60905,0.36105,9.411,0.2316875,0.3344,-0.6336
1692597397834,0.84105,0.009000001,8.54895,0.2369125,0.3757875,-0.69355
1692597397867,0.84105,0.009000001,8.54895,0.2369125,0.3757875,-0.69355
1692597397892,0.58695,-1.4430001,10.57905,0.1626625,0.065175,-0.374
1692597397924,0.46695003,-1.062,8.604,0.0675125,0.0908875,-0.224125
1692597397953,0.42600003,-1.386,9.880051,-0.041249998,0.1342,-0.0532125
1692597397981,0.28005,-1.7370001,11.74995,-0.1959375,0.1782,0.2083125
1692597398009,0.060000002,-1.1920501,11.002951,-0.24365,0.1835625,0.27005
1692597398039,0.20400001,-0.98295003,10.333051,-0.3053875,0.21835,0.2607
1692597398068,0.21795002,-1.1200501,10.6390505,-0.300025,0.2492875,0.19855
1692597398098,-0.48195,-1.125,10.47105,-0.2220625,0.2866875,0.026675
1692597398127,-1.5810001,-0.43800002,9.583051,-0.1810875,0.2891625,-0.040975
1692597398153,-0.21195,0.009000001,7.8840003,-0.1500125,0.30635,-0.09735
1692597398182,0.45495003,0.26295,7.4890504,-0.066,0.3966875,-0.2937
1692597398213,1.24995,-0.95505005,10.213051,0.011275,0.4222625,-0.440825
1692597398242,1.695,-1.40205,10.464001,0.1648625,0.2762375,-0.61861247
1692597398270,1.79805,-0.97905004,7.5850506,0.1115125,-0.1227875,-0.3961375
1692597398298,0.73995006,-0.75405,7.4119506,0.020624999,-0.3114375,-0.1728375
1692597398327,0.86205006,-1.7040001,9.423,-0.052249998,-0.4503125,0.0565125
1692597398356,-0.26895002,-1.5439501,8.238,-0.0972125,-0.51713747,0.3623125
1692597398385,-0.88695,-1.8259501,8.24295,-0.1186625,-0.425975,0.4343625
1692597398414,-1.04205,-1.9219501,9.045,-0.220275,-0.0584375,0.466125
1692597398444,-1.42005,-1.4959501,7.9150505,-0.280775,0.164175,0.411675
1692597398472,-1.5139501,-1.1560501,7.04895,-0.330825,0.37125,0.323125
1692597398501,-1.03695,-1.2349501,7.12305,-0.340175,0.67595,0.104499996
1692597398532,0.21795002,-2.26395,8.128051,-0.293975,0.777425,-0.0187
1692597398560,-1.07595,-2.3860502,8.302951,-0.2399375,0.7060625,5.5E-4
1692597398587,-0.85605,-2.4100502,8.28405,-0.298375,0.498575,0.2443375
1692597398618,-0.58005005,-2.6209502,8.748,-0.3936625,0.2913625,0.51645
1692597398646,-1.3440001,-2.43195,7.695,-0.521675,0.1472625,0.7337
1692597398676,-2.3400002,-2.14695,9.0379505,-0.5509625,0.1126125,0.8617125
1692597398703,-1.8229501,-2.5180502,10.857,-0.536525,0.1310375,0.932525
1692597398732,-1.9879501,-2.12505,10.528951,-0.3980625,0.3366,0.75941247
1692597398760,-1.9950001,-2.21595,10.29405,-0.2783,0.43285,0.5418875
1692597398790,-2.01405,-2.0340002,10.897051,-0.1494625,0.4750625,0.330825
1692597398820,-1.15995,-2.4439502,12.384001,0.0493625,0.4538875,0.103125
1692597398850,-1.0849501,-2.094,11.85,0.0999625,0.392425,0.117699996
1692597398878,-1.3560001,-1.5409501,10.561951,0.1018875,0.0939125,0.368225
1692597398908,-0.91305006,-1.9150501,11.604,0.0933625,-0.0702625,0.4846875
1692597398936,-0.693,-2.17995,11.965051,0.1280125,-0.22165,0.5493125
1692597398966,-0.42195,-2.18505,11.601001,0.1392875,-0.2558875,0.5715875
1692597398994,-0.32205,-2.1780002,10.82295,0.0818125,-0.3832125,0.7717875
1692597399026,-0.22800002,-2.355,11.998951,0.0317625,-0.4543,0.91685
1692597399054,-0.56100005,-1.74195,11.367001,-0.047025,-0.52525,1.029325
1692597399083,-0.84405005,-1.21305,10.617001,-0.062425,-0.5201625,0.950125
1692597399113,-0.822,-0.91605,9.471001,-0.0460625,-0.4813875,0.8097375
1692597399141,-0.72195005,-0.98295003,8.767051,0.0952875,-0.292875,0.4269375
1692597399174,-0.39600003,-1.503,9.92595,0.2459875,-0.084425,0.0587125
1692597399195,-0.39795002,-1.644,9.8230505,0.2459875,-0.084425,0.0587125
1692597399227,-0.60195005,-1.19895,8.805,0.2487375,-0.03025,-0.0433125
1692597399258,-0.78900003,-0.80895007,8.571,0.15015,-0.073699996,0.034925
1692597399287,-0.39795002,-0.89505005,8.475,0.1241625,-0.0691625,0.03355
1692597399314,-0.47700003,-0.97200006,8.808001,0.1331,-0.043449998,-0.0133375
1692597399343,-0.14895001,-1.3740001,10.28205,0.1934625,0.004125,-0.1596375
1692597399379,-0.36,-1.3950001,10.76595,0.1736625,-0.0457875,-0.1582625
1692597399407,-0.43905002,-1.3759501,10.219951,0.1307625,-0.104775,-0.0556875
1692597399440,-0.66405004,-1.113,10.087951,0.045649998,-0.1827375,0.1681625
1692597399468,-0.86295,-0.71295005,9.366,0.0199375,-0.1428625,0.2239875
1692597399499,-1.3219501,-0.31095,8.32005,0.036575,-0.10285,0.24007499
1692597399525,-1.09695,-0.46605003,7.8430505,0.075625,-0.0482625,0.2297625
1692597399555,-0.82695,-1.1029501,8.51595,0.1929125,0.12979999,0.0132
1692597399587,-0.48900002,-1.5169501,8.809951,0.2311375,0.2121625,-0.1027125
1692597399616,-1.401,-1.2589501,8.83905,0.1450625,0.212575,0.011825
1692597399644,-1.6860001,-0.90705,8.974951,0.0378125,0.15015,0.2003375
1692597399673,-1.18095,-1.077,9.68595,-0.055275,0.1148125,0.3612125
1692597399702,-1.62195,-0.84900004,11.869051,-0.0966625,0.2123,0.437525
1692597399730,-1.9710001,-0.77295005,13.108951,-0.061049998,0.2729375,0.3826625
1692597399758,-2.1460502,-0.56505,12.043951,0.059675,0.2828375,0.196625
1692597399789,-1.2049501,-0.97905004,12.999001,0.1353,0.280775,0.0523875
1692597399816,-1.6500001,-0.94305,12.184951,0.2135375,0.297,-0.13805
1692597399846,-2.4070501,-0.46905002,9.98595,0.2938375,0.2822875,-0.44907498
1692597399873,-1.0540501,-1.45305,10.986,0.229075,0.2079,-0.4417875
1692597399902,-1.02795,-1.4980501,9.910951,0.18259999,0.1904375,-0.3680875
1692597399931,-2.22705,-1.4599501,9.174001,0.1101375,0.15235,-0.214225
1692597399960,-1.2739501,-2.2999501,10.266001,-0.1247125,-0.0050875,0.28435
1692597399988,-1.50705,-2.08695,10.222051,-0.232375,-0.04675,0.479325
1692597400021,-2.0760002,-1.2079501,8.793,-0.3966875,-0.0292875,0.6397875
1692597400048,-1.88505,-1.01205,7.5870004,-0.428725,-0.0070125,0.5460125
1692597400081,-1.26705,-1.4430001,9.01605,-0.2789875,0.13859999,-0.017875
1692597400108,-1.3630501,-1.4479501,9.214951,-0.2789875,0.13859999,-0.017875
1692597400136,-1.8420001,-1.6300501,7.9489503,-0.0185625,0.252725,-0.597025
1692597400166,-1.87995,-2.22105,9.784051,-0.01925,0.22605,-0.60513747
1692597400193,-1.84695,-2.1420002,10.58205,-0.03355,0.232375,-0.606375
1692597400224,-1.3630501,-1.338,8.70705,-0.0873125,0.2717,-0.6439125
1692597400252,-1.6309501,-1.4500501,7.6060505,-0.104637496,0.2146375,-0.7018
1692597400284,-2.1360002,-1.9770001,10.31595,-0.06215,0.2008875,-0.7596875
1692597400323,-1.0690501,-1.194,8.66205,0.0389125,0.22935,-0.866525
1692597400350,-1.815,-0.31605002,7.6849504,0.0704,0.223575,-0.9004875
1692597400384,-1.2100501,-0.24105,7.1710505,0.180125,0.15345,-1.1059124
1692597400414,-0.32895002,-1.3759501,8.700001,0.47079998,0.2162875,-1.6314375
1692597400442,0.10305001,-1.51995,9.315001,0.5797,0.2371875,-1.7534
1692597400470,0.08895,-1.0360501,9.45195,0.4169,-0.0609125,-1.086525
1692597400499,0.9889501,-0.69900006,8.17095,0.2410375,-0.313225,-0.5570125
1692597400527,1.125,-0.76305,8.073,0.124437496,-0.5269,-0.184525
1692597400556,0.31395,-0.711,9.873,0.111375,-0.7808625,0.0177375
1692597400584,0.29505002,-0.67200005,10.732051,0.1442375,-0.850575,0.00715
1692597400610,0.87195003,-0.58095,9.904051,0.17765,-0.8611625,-0.027775
1692597400640,1.88205,-0.99105006,10.278001,0.213125,-0.8045125,-0.0741125
1692597400666,2.013,-1.12905,12.1039505,0.263725,-0.6956125,-0.01045
1692597400696,2.3410501,-1.1010001,11.71905,0.212025,-0.8311875,0.3290375
1692597400725,2.1090002,-0.81795,10.837951,0.17105,-0.9015875,0.4538875
1692597400754,2.4750001,-1.09605,11.191951,0.124575,-0.9114875,0.5108125
1692597400784,1.33605,-1.3570501,11.862,0.1109625,-0.877525,0.489225
1692597400812,0.89595,-1.33095,11.304001,0.0939125,-0.828575,0.461175
1692597400847,0.51705,-1.0189501,10.00695,0.041249998,-0.626725,0.4268
1692597400876,0.42195,-1.43295,10.42395,0.002475,-0.247775,0.3554375
1692597400905,0.252,-1.4980501,10.384951,-0.005775,-0.073975,0.2938375
1692597400933,0.04605,-0.93795,9.049951,-0.0518375,0.1401125,0.197175
1692597400963,0.08895,-0.90000004,8.87205,-0.0847,0.205425,0.1698125
1692597400998,0.37395,-1.3980001,11.28495,-0.0947375,0.3029125,0.0449625
1692597401023,0.63000005,-0.9979501,10.17195,-0.078375,0.32725,-0.072875
1692597401052,0.59400004,-0.675,8.710051,-0.0625625,0.3267,-0.191125
1692597401082,0.57705003,-0.94305,8.932051,-0.02805,0.2536875,-0.32587498
1692597401110,0.651,-1.2229501,9.591001,-0.0053625,0.1956625,-0.3480125
1692597401139,0.52005005,-1.4449501,10.383,0.0196625,0.093225,-0.3268375
1692597401166,0.41700003,-1.3429501,10.081051,0.0031625,0.05995,-0.2682625
1692597401194,0.81195,-1.2730501,10.189051,-0.0661375,0.0295625,-0.1115125
1692597401220,0.89805007,-1.1770501,10.254001,-0.0903375,0.02915,-0.0572
1692597401257,0.75705004,-1.194,10.255951,-0.088825,-1.375E-4,-1.375E-4
1692597401285,0.9480001,-1.2229501,9.969001,-0.0697125,-0.0314875,0.0180125
1692597401312,1.2349501,-1.3570501,10.002001,-0.047025,-0.0589875,0.0430375
1692597401339,1.23105,-1.48395,10.717951,-0.015675,-0.104225,0.13915
1692597401365,1.4580001,-1.35195,10.395,-0.01485,-0.141625,0.2008875
1692597401393,1.8030001,-1.24395,10.066951,-0.0240625,-0.1874125,0.2556125
1692597401420,2.1400502,-0.90900004,9.27705,-0.0407,-0.26427498,0.284075
1692597401451,2.0760002,-0.82605004,8.724,-0.0312125,-0.3097875,0.2671625
1692597401485,1.53495,-1.26405,10.375951,0.022,-0.4494875,0.231
1692597401515,1.5439501,-1.16295,10.048051,0.07315,-0.4835875,0.16445
1692597401538,1.245,-0.924,9.8560505,0.0760375,-0.4197875,0.14685
1692597401571,1.0680001,-0.66300005,9.942,0.06545,-0.3289,0.1307625
1692597401603,0.41400003,-0.14595,9.957001,0.0595375,-0.137775,-0.013062499
1692597401630,0.8880001,-0.71505004,10.689,0.106975,0.054175,-0.2396625
1692597401658,0.77595,-0.92100006,10.852051,0.12979999,0.139425,-0.3273875
1692597401688,0.606,-0.72705,11.09895,0.1420375,0.2050125,-0.3925625
1692597401714,0.31905,-0.32505003,10.704,0.1373625,0.28393748,-0.4569125
1692597401745,1.1730001,-0.711,11.553,0.131725,0.3139125,-0.4632375
1692597401775,0.46905002,-0.03795,11.26605,0.1452,0.331925,-0.4802875
1692597401802,0.51495004,-0.43800002,11.235001,0.1599125,0.3163875,-0.5132875
1692597401836,1.49205,-1.266,11.299951,0.18493749,0.27885,-0.6457
1692597401862,2.3149502,-0.85905004,9.430051,0.1606,0.2308625,-0.644325
1692597401891,1.8030001,-0.32295,7.7449503,0.00165,-0.033825,-0.3141875
1692597401918,1.8100501,-1.1850001,8.7619505,-0.054725,-0.2099625,-0.124575
1692597401948,1.7190001,-1.5270001,10.720051,-0.065175,-0.3507625,-0.0125124995
1692597401979,1.7329501,-0.45405003,8.7960005,-0.080575,-0.438625,0.0528
1692597402007,1.0320001,-0.37095,6.912,-0.1205875,-0.4049375,0.067375
1692597402035,0.864,-1.9579501,10.653001,-0.129525,-0.3012625,-0.0155375
1692597402066,1.1730001,-1.764,10.773001,-0.098725,-0.23595,-0.10285
1692597402093,1.69305,-0.86100006,7.83795,-0.160325,-0.0405625,-0.087037496
1692597402127,1.10895,-0.66,7.03905,-0.21779999,0.0375375,-0.0097624995
1692597402158,0.71805006,-0.70605004,8.02005,-0.229075,0.0642125,0.0281875
1692597402184,0.12705001,-0.66,7.9440002,-0.133925,0.0254375,-0.036025
1692597402215,-0.13995,-1.536,8.547,-0.044,0.1139875,-0.1722875
1692597402244,-1.014,-1.8139501,8.82705,-0.0356125,0.2176625,-0.202125
1692597402271,-1.1209501,-1.9429501,9.262951,-0.06765,0.3276625,-0.159775
1692597402299,-0.08505,-1.7689501,11.09595,-0.2347125,0.60555,0.010725
1692597402328,-0.79605,-1.8090001,9.082951,-0.3174875,0.746075,0.0444125
1692597402358,-0.73800004,-1.9720501,8.98005,-0.3708375,0.82555,0.0507375
1692597402387,-1.07295,-2.1709502,10.062,-0.37675,0.810975,0.011275
1692597402414,-1.28205,-2.082,9.83205,-0.3018125,0.75845,-0.0814
1692597402445,-1.8589501,-1.9530001,9.603001,-0.2608375,0.7172,-0.0517
1692597402474,-2.3419502,-1.7569501,9.825001,-0.19965,0.6127,0.171875
1692597402500,-1.4800501,-2.19,10.26795,-0.179575,0.6087125,0.256025
1692597402530,-1.62405,-1.845,9.67395,-0.1364,0.6392375,0.3023625
1692597402561,-2.2060502,-1.7659501,10.09605,-0.1392875,0.5671875,0.446325
1692597402589,-2.26095,-1.8019501,10.90005,-0.1698125,0.4354625,0.728475
1692597402620,-2.21805,-1.2970501,10.926001,-0.1958,0.2481875,1.220175
1692597402649,-1.095,-1.314,10.524,-0.1574375,0.22495,1.277925
1692597402678,-0.777,-0.9670501,9.8230505,-0.0479875,0.1590875,1.237775
1692597402709,-1.5660001,-1.0390501,10.243951,5.5E-4,0.0726,1.2199
1692597402730,-1.6840501,-1.4599501,11.023951,0.040425,-0.0496375,1.1977625
1692597402760,-0.762,-1.8499501,12.111001,0.0925375,-0.2215125,1.0869375
1692597402786,-1.45905,-1.2060001,11.352,0.08635,-0.2332,1.0536625
1692597402815,-1.76505,-0.507,10.10295,0.012375,-0.2748625,1.0769
1692597402843,-1.74405,-0.30600002,9.318001,0.01485,-0.27101249,0.9763875
1692597402871,-1.9380001,-0.273,9.44505,0.180125,-0.0815375,0.4085125
1692597402902,-1.8390001,-0.354,9.460951,0.2811875,0.036575,0.126775
1692597402927,-1.2600001,-0.14595,8.20695,0.353925,0.127325,-0.0611875
1692597402958,-1.36995,-0.44505003,8.455951,0.4114,0.1991,-0.26895
1692597402977,-1.1400001,-0.87105006,9.63405,0.4037,0.1810875,-0.32587498
1692597403009,-1.4989501,-0.79695004,9.47805,0.3029125,0.0933625,-0.242275
1692597403040,-1.8199501,-0.73695004,8.755051,0.2112,0.0411125,-0.0966625
1692597403069,-1.61205,-1.1179501,10.167001,0.038775,-0.0042625,0.1995125
1692597403098,-1.69095,-1.2060001,11.094001,-0.0061875,0.0281875,0.2490125
1692597403128,-2.08395,-1.0510501,10.573951,-0.037675,0.0625625,0.243375
1692597403157,-1.7389501,-0.90405005,9.658051,-0.1137125,0.051975,0.2754125
1692597403187,-1.7680501,-0.81600004,9.757951,-0.13475,0.04675,0.3067625
1692597403213,-1.7200501,-0.864,10.057051,-0.125125,0.0600875,0.2926
1692597403243,-1.8679501,-0.85695004,9.78195,-0.0540375,0.0771375,0.1722875
1692597403270,-1.7890501,-0.75600004,9.44505,-0.0188375,0.0512875,0.1535875
1692597403305,-1.5450001,-0.69405,9.361051,-0.014162499,0.0446875,0.1596375
1692597403332,-1.6789501,-0.66300005,9.198001,-0.0033,0.045375,0.13475
1692597403361,-1.7530501,-0.53595,9.18795,0.0297,0.0391875,0.053075
1692597403390,-1.9210501,-0.54495,9.174001,0.0424875,0.0301125,0.0851125
1692597403418,-2.055,-0.43095002,9.15705,0.0488125,0.0389125,0.1101375
1692597403446,-2.1460502,-0.105000004,8.905951,0.058849998,0.056925,0.114125
1692597403476,-1.8730501,-0.49500003,9.2029505,0.092125,0.123475,0.0488125
1692597403504,-1.6170001,-0.045,9.691051,0.11495,0.1584,-0.0020625
1692597403530,-1.5139501,0.17400001,9.7890005,0.1398375,0.1684375,-0.0411125
1692597403565,-1.4250001,0.006,10.43295,0.20927499,0.0798875,-0.0765875
1692597403597,-0.762,-0.66,11.43105,0.29273748,-0.0639375,-0.1794375
1692597403622,-0.39105,-0.88995004,12.279,0.2949375,-0.1452,-0.2217875
1692597403650,-0.79605,-0.82800007,12.0060005,0.242825,-0.24585,-0.1907125
1692597403676,-1.9900501,-0.85200006,11.07705,0.0400125,-0.45815,0.0408375
1692597403712,-1.0639501,-1.7329501,11.34,-0.1018875,-0.4514125,0.2303125
1692597403740,-0.88005006,-1.7260501,11.88405,-0.1546875,-0.3466375,0.319275
1692597403768,-1.9759501,-1.01205,10.632001,-0.2223375,-0.2475,0.4074125
1692597403794,-2.8279502,-0.49995002,9.1050005,-0.350075,-0.1882375,0.4514125
1692597403822,-1.8180001,-0.897,9.82005,-0.3436125,-0.1381875,0.3724875
1692597403853,-1.9969501,-0.08295,9.705001,-0.18425,0.1332375,0.063525
1692597403883,-2.4520502,0.531,8.57295,-0.0814,0.2523125,-0.1379125
1692597403912,-1.746,0.141,7.3620005,0.1929125,0.3788125,-0.6958875
1692597403941,-1.64295,-0.768,8.820001,0.36574998,0.444675,-1.0294625
1692597403970,-0.528,-1.419,9.97395,0.49445,0.4879875,-1.2566125
1692597404004,-0.79095006,-1.3470001,8.226001,0.375925,0.33673748,-0.9725375
1692597404030,-1.4110501,-1.2229501,8.53005,0.1568875,0.14465,-0.570075
1692597404059,-0.432,-0.41895002,8.391001,-0.20295,-0.1722875,-0.038225
1692597404086,-0.10605001,-0.031050002,7.1389503,-0.2607,-0.2066625,-0.01155
1692597404114,-0.39600003,-0.42600003,7.9170003,-0.2358125,-0.20845,-0.093775
1692597404144,-0.32205,-1.12695,10.30605,-0.03575,-0.292325,-0.4048
1692597404172,-0.86295,-0.59595,9.214951,0.0561,-0.33935,-0.5423
1692597404202,-0.94695,-0.36405003,9.114,0.097625,-0.3485625,-0.6232875
1692597404229,-0.61905,-0.26505002,9.49995,0.095425,-0.3034625,-0.6370375
1692597404259,-0.633,0.45195,8.097,0.1640375,-0.1533125,-0.8050625
1692597404290,-0.97305006,0.57405,7.32105,0.297825,-0.081675,-1.055725
1692597404319,-0.86805004,0.078,8.86095,0.3876125,-0.060775,-1.1671
1692597404350,-0.59205,-0.68895006,9.93,0.5160375,0.01595,-1.1897875
1692597404378,-0.46995002,-0.74700004,9.4800005,0.4714875,0.0259875,-1.030975
1692597404406,-0.34800002,-0.72705,9.96195,0.3444375,-0.003025,-0.7841625
1692597404438,-0.10605001,-0.30795002,9.258,0.038775,-0.1142625,-0.2630375
1692597404466,0.726,-0.048,9.061951,-0.058575,-0.1728375,-0.074525
1692597404494,1.212,0.076050006,9.6,-0.0842875,-0.2992,0.059125
1692597404523,1.4100001,0.44505003,9.65505,-0.0275,-0.385275,0.036849998
1692597404551,1.779,0.33705002,9.78705,0.0468875,-0.495275,0.0121
1692597404582,2.0970001,0.17400001,11.22795,0.186175,-0.715275,0.0204875
1692597404610,2.0970001,0.17400001,11.22795,0.186175,-0.715275,0.0204875
1692597404637,1.8460501,0.423,11.734951,0.234575,-0.87505,0.1139875
1692597404668,1.55595,0.411,10.990951,0.2154625,-0.84865,0.1106875
1692597404693,1.1880001,0.08295,11.19705,0.194975,-0.68585,0.0174625
1692597404728,0.58395004,-0.186,11.412001,0.188375,-0.5825875,-0.011825
1692597404752,0.66795003,-0.43500003,11.24205,0.1285625,-0.33165,0.0488125
1692597404780,0.69195,-0.162,10.054951,0.0704,-0.1857625,0.120725
1692597404813,1.06605,-0.13395001,9.97605,0.008525,-0.0559625,0.193875
1692597404840,0.78795004,0.16005,9.16005,-0.065725,0.0743875,0.25135
1692597404872,0.91695005,-0.12900001,9.351001,-0.054449998,0.059125,0.14093749
1692597404901,0.51000005,-0.77295005,10.79205,-0.0372625,0.0339625,0.047575
1692597404930,0.13695,-0.84000003,11.185051,-0.033,0.0171875,-0.0235125
1692597404960,0.333,-0.094950005,9.196051,-0.1126125,0.05995,0.0187
1692597404989,0.69000006,0.105000004,8.425051,-0.1703625,0.1159125,0.07975
1692597405018,0.81195,-0.186,9.83205,-0.1637625,0.16775,0.0369875
1692597405047,0.89805007,-0.31305,10.2630005,-0.10395,0.1379125,-0.040975
1692597405081,1.13505,-0.21495001,9.18105,-0.0196625,0.0466125,-0.0702625
1692597405113,1.12995,-0.27495003,9.80805,-0.0171875,-0.0325875,0.0253
1692597405142,0.91995007,-0.34695002,11.059951,-0.017875,-0.0782375,0.045649998
1692597405168,1.17795,-0.057000004,10.761001,-0.0165,-0.116875,0.024475
1692597405197,1.3789501,-0.040050004,10.27305,-0.02145,-0.1263625,-0.123475
1692597405226,1.5660001,-0.23400001,10.491,-0.0185625,-0.111925,-0.186725
1692597405256,1.79295,-0.294,10.419001,0.0103124995,-0.1282875,-0.1387375
1692597405291,1.8550501,-0.024,9.715051,0.0191125,-0.1632125,-0.0609125
1692597405307,1.91805,0.069000006,9.45405,0.0176,-0.2055625,0.0088
1692597405344,1.575,-0.016050002,9.636001,0.017324999,-0.28655,0.070675
1692597405374,0.69900006,0.076050006,9.31305,0.0308,-0.3114375,0.0539
1692597405403,0.16605,0.34395,9.28695,0.0515625,-0.2715625,-0.078099996
1692597405431,0.41400003,0.46095002,9.648001,0.0506,-0.1753125,-0.1837
1692597405458,0.537,0.69795,9.366,0.0713625,0.1203125,-0.366025
1692597405487,0.73995006,0.648,9.79605,0.1043625,0.2352625,-0.41854998
1692597405518,1.01505,0.80805004,9.978001,0.1852125,0.2985125,-0.4860625
1692597405547,1.21605,0.82995003,10.44705,0.2140875,0.2693625,-0.47808748
1692597405577,0.80205005,0.73395,10.60995,0.2341625,0.1579875,-0.44233748
1692597405604,1.0390501,-0.12900001,10.941001,0.2343,0.1005125,-0.46254998
1692597405640,1.7410501,-0.12900001,9.784051,0.171875,0.0268125,-0.4305125
1692597405666,1.8390001,0.19305001,9.92595,0.090475,0.001375,-0.2915
1692597405695,2.334,0.08295,12.5130005,-0.0501875,-0.117975,0.091575
1692597405723,2.6260502,0.411,13.00905,-0.06655,-0.2041875,0.22013749
1692597405752,3.1980002,0.13800001,10.63395,-0.0628375,-0.2776125,0.2888875
1692597405781,3.1699502,-1.44105,11.830951,-0.052249998,-0.3920125,0.3125375
1692597405810,1.353,-1.21095,10.60995,-0.060775,-0.45787498,0.3298625
1692597405839,0.064950004,-0.18900001,7.4749503,-0.18425,-0.5176875,0.5165875
1692597405871,0.19395001,0.025950002,7.11105,-0.18425,-0.5176875,0.5165875
1692597405894,3.0910501,-0.67005,8.559,-0.2910875,-0.3003,0.5273125
1692597405926,-0.20700002,-0.54300004,10.60095,-0.1370875,-0.18933749,0.1909875
1692597405954,0.192,0.08805001,7.3740005,-0.0677875,-0.275275,0.0702625
1692597405984,1.0699501,-0.83295006,7.5439506,-0.1144,-0.117975,0.003025
1692597406012,0.333,-1.24905,6.0930004,-0.15455,0.1354375,-0.134475
1692597406041,-0.61095005,-1.4100001,6.2110505,-0.2041875,0.4081,-0.306625
1692597406071,-0.67605,-2.226,8.956051,-0.3598375,0.4472875,-0.17215
1692597406098,0.90000004,-1.96695,9.19095,-0.484,0.5599,-0.095425
1692597406129,1.0510501,-1.2060001,7.0410004,-0.61105,0.70015,-0.0284625
1692597406159,1.16805,-1.6609501,8.575951,-0.72008747,0.632775,0.14245
1692597406185,-0.47295,-2.28795,10.617001,-0.667425,0.417175,0.19167499
1692597406215,0.62700003,-2.8170002,9.672001,-0.5075125,0.10725,0.1478125
1692597406246,2.42505,-2.5470002,8.607,-0.476575,0.1038125,0.120175
1692597406275,1.6279501,-1.90005,8.986951,-0.4862,0.1288375,0.13365
1692597406303,0.32805002,-1.4650501,9.34605,-0.5176875,-0.095975,0.344025
1692597406331,0.18900001,-1.7710501,9.375,-0.467775,-0.26221249,0.4230875
1692597406361,-0.666,-1.6180501,9.073951,-0.23567499,-0.2008875,0.3014
1692597406390,-0.77400005,-1.6900501,9.31305,-0.131175,-0.0418,0.2239875
1692597406419,-0.56100005,-2.1420002,10.861951,-0.0303875,0.2602875,0.2344375
1692597406447,-0.67605,-2.3770502,10.78695,-0.010175,0.3884375,0.2776125
1692597406477,-0.62295,-2.8600502,11.392951,-0.007975,0.4989875,0.4613125
1692597406504,0.18900001,-3.3649502,12.3820505,-0.0334125,0.4695625,0.6120125
1692597406536,-0.279,-3.0300002,11.362051,-0.13653749,0.30415,0.9711625
1692597406563,-1.389,-2.14695,10.392,-0.2066625,0.15235,1.1969374
1692597406594,-0.89400005,-2.32395,10.363951,-0.268125,-0.010725,1.406075
1692597406621,0.50505,-2.6899502,10.809001,-0.2814625,-0.1337875,1.5860626
1692597406657,-0.34800002,-2.295,9.61905,-0.242825,-0.124575,1.57465
1692597406685,-0.88395005,-2.59905,10.43805,-0.1727,-0.1903,1.337325
1692597406713,-0.74100006,-2.9850001,12.06795,-0.1167375,-0.174625,1.03785
1692597406742,-1.7509501,-2.2090502,10.929001,-0.0968,-0.1084875,0.97625
1692597406777,-1.78005,-1.692,9.4129505,-0.0801625,-0.034375,0.925375
1692597406800,-2.0760002,-1.39995,8.956051,0.0031625,0.1711875,0.64955
1692597406829,-1.7080501,-1.39005,9.765,0.0748,0.311025,0.435875
1692597406858,-1.4800501,-1.4650501,9.885,0.152075,0.44715,0.220275
1692597406887,-0.97800004,-1.4670001,9.741,0.29479998,0.6180625,-0.23155
1692597406916,-0.74295,-1.5510001,9.504001,0.3774375,0.534325,-0.6446
1692597406944,-0.69000006,-1.6870501,10.278001,0.37867498,0.42405,-0.732875
1692597406974,-0.91095006,-1.62705,10.02105,0.3540625,0.3091,-0.74181247
1692597407003,-0.9799501,-1.8259501,9.868051,0.2630375,0.11385,-0.5869875
1692597407031,-0.80100006,-2.082,10.498051,0.214225,0.0427625,-0.422125
1692597407060,-1.07295,-1.93605,10.36095,0.1219625,-0.0457875,-0.078925
1692597407089,-1.12605,-1.79295,9.97095,0.0713625,-0.0765875,0.05335
1692597407118,-1.07805,-1.4119501,9.92595,-0.0202125,-0.1067,0.3128125
1692597407148,-0.64305,-1.09095,8.974951,-0.0317625,-0.091575,0.3669875
1692597407177,-1.014,-0.67200005,8.679001,-0.0108624995,-0.069575,0.3276625
1692597407206,-1.06095,-0.50505,7.65705,0.0908875,-0.0598125,0.150975
1692597407233,-1.14795,-0.67905,7.86705,0.2344375,0.0059125,-0.0342375
1692597407262,-1.2889501,-0.8880001,8.809951,0.292325,0.0664125,-0.1034
1692597407293,-1.6099501,-0.53295004,8.82495,0.3037375,0.1496,-0.039325
1692597407323,-1.53795,-0.30105,7.8889503,0.2795375,0.172975,0.023375
1692597407350,-1.4989501,-0.43800002,8.442,0.26895,0.2006125,0.0229625
1692597407381,-1.30305,-0.83295006,10.191001,0.3158375,0.2794,-0.1623875
1692597407409,-1.07595,-0.85905004,11.434051,0.3389375,0.29865,-0.2649625
1692597407437,-1.3060501,-0.86595005,11.87205,0.3125375,0.210375,-0.3433375
1692597407468,-0.61395,-1.2589501,11.689951,0.273625,0.1115125,-0.307725
1692597407497,-0.51105005,-1.644,12.312,0.18493749,-0.06545,-0.146025
1692597407526,-1.212,-1.6540501,12.784051,0.1203125,-0.1408,-0.031625
1692597407556,-1.284,-1.4310001,11.886001,0.034649998,-0.21807499,0.1016125
1692597407585,-1.0570501,-1.5600001,11.331,-0.0510125,-0.272525,0.2204125
1692597407614,-1.38495,-2.3500502,12.23595,-0.1720125,-0.177925,0.328625
1692597407643,-1.4299501,-1.9219501,12.23295,-0.216425,-0.145475,0.392425
1692597407672,-0.85800004,-1.7689501,10.878,-0.27775,-0.1318625,0.492525
1692597407701,-0.75495005,-1.386,10.029,-0.33165,-0.1062875,0.539275
1692597407729,-1.677,-1.0699501,9.18795,-0.28861248,-0.094875,0.428725
1692597407759,-1.31295,-1.1179501,9.387,-0.163075,-0.0708125,0.2068
1692597407786,-0.24495001,-1.33095,10.053,-0.102575,-0.0099,0.100099996
1692597407816,-1.2,-0.20295002,7.7830505,0.0240625,0.1442375,-0.2525875
1692597407848,-0.84105,-0.009000001,6.6940503,0.0768625,0.1442375,-0.421025
1692597407876,-0.27600002,-0.98100007,8.442,0.20295,0.080025,-0.7085375
1692597407905,-0.87495005,-1.50495,8.929951,0.27555,0.07425,-0.85305
1692597407934,-0.61395,-1.7040001,9.378,0.25905,0.0176,-0.8771125
1692597407961,-0.53205,-1.4119501,8.892,0.1519375,-0.0276375,-0.7524
1692597407993,-0.36495003,-1.4070001,7.8550506,-0.0793375,-0.08195,-0.44233748
1692597408020,-0.68100005,-1.422,7.9489503,-0.1461625,-0.1040875,-0.304975
1692597408050,-1.11195,-1.4449501,9.504001,-0.1736625,-0.113575,-0.2382875
1692597408078,-1.0570501,-0.69105005,8.025001,-0.1538625,-0.027775,-0.3922875
1692597408107,-1.8199501,-0.055050004,6.12195,-0.119075,0.054449998,-0.5366625
1692597408137,-1.38495,-0.37305,7.2300005,-0.0545875,0.14739999,-0.6881875
1692597408163,-1.27005,-1.0170001,9.427951,0.18645,0.3832125,-1.131075
1692597408193,-1.2600001,-0.52905005,8.33205,0.380875,0.53061247,-1.5349125
1692597408217,-1.42305,-0.10305001,7.3500004,0.3925625,0.5093,-1.5631
1692597408249,-0.109050006,-0.66495,8.24295,0.3881625,0.463925,-1.557325
1692597408280,-0.30705002,-1.02195,9.739051,0.4233625,0.3510375,-1.5236375
1692597408310,-0.04695,-0.072000004,8.02305,0.308825,-0.0235125,-0.877525
1692597408338,0.47895002,0.23595001,7.6639504,0.2237125,-0.2233,-0.4939
1692597408366,0.9580501,-0.31605002,8.82195,0.1970375,-0.336325,-0.269775
1692597408394,0.86700004,-0.81405,11.218051,0.286825,-0.467225,-0.1546875
1692597408425,0.47700003,-0.38700002,10.543051,0.30621248,-0.5731,-0.09515
1692597408453,0.66300005,-0.36105,9.768001,0.2129875,-0.7250375,0.1040875
1692597408480,1.176,-1.0309501,10.76805,0.169125,-0.7117,0.144925
1692597408512,1.8460501,-1.149,12.09405,0.14533749,-0.658075,0.130075
1692597408540,1.9030501,-0.48795003,11.118001,0.0600875,-0.5935875,0.2058375
1692597408568,1.8580501,-0.28500003,10.309051,-6.875E-4,-0.6235625,0.33935
1692597408599,1.94895,-0.48105,11.383051,-0.013062499,-0.6829625,0.4002625
1692597408627,1.7170501,-0.735,11.869051,0.0309375,-0.6689375,0.29205
1692597408655,1.0890001,-0.75105006,11.44305,0.082775,-0.5768125,0.097075
1692597408685,0.63900006,-0.62895006,10.842001,0.0691625,-0.497475,0.0485375
1692597408713,0.62700003,-0.92805004,11.448001,0.0240625,-0.26345,0.017875
1692597408742,0.91200006,-0.78000003,10.728001,0.0092124995,-0.133375,0.0209
1692597408771,1.03695,-0.33,9.436951,-0.0248875,0.061325,0.032725
1692597408798,0.82605004,-0.20805001,8.99505,-0.03795,0.0924,0.0361625
1692597408829,1.0030501,-0.9670501,10.870951,-0.0323125,0.080025,0.0160875
1692597408858,0.66795003,-1.0170001,10.821,0.022824999,0.0287375,-0.0917125
1692597408886,0.62700003,-0.54300004,9.96195,0.0199375,0.0301125,-0.1271875
1692597408916,1.09395,-0.59595,9.38895,-0.06215,0.0686125,-0.179575
1692597408943,1.5949501,-0.768,8.997001,-0.0829125,0.0735625,-0.1970375
1692597408973,1.2570001,-0.99495006,9.559051,-0.0726,-0.021724999,-0.0792
1692597409003,1.6300501,-1.1029501,9.078,-0.0741125,-0.108625,0.029424999
1692597409031,1.83405,-1.0530001,9.0709505,-0.0859375,-0.187,0.12485
1692597409061,1.5799501,-1.0339501,9.84195,-0.1172875,-0.2740375,0.220275
1692597409087,1.40505,-1.1850001,10.158001,-0.1247125,-0.2954875,0.24007499
1692597409124,1.4820001,-1.419,11.304001,-0.1258125,-0.2849,0.2443375
1692597409149,0.92205006,-1.3470001,11.304001,-0.13035,-0.2413125,0.215875
1692597409176,1.4100001,-0.94995004,9.550051,-0.144925,-0.106975,0.137225
1692597409204,1.7329501,-1.28295,10.543051,-0.1436875,-0.0411125,0.093775
1692597409234,1.5319501,-1.1530501,10.177051,-0.1342,0.001925,0.0389125
1692597409263,1.9009501,-1.1410501,9.265051,-0.1007875,-0.0188375,-0.0485375
1692597409291,2.1349502,-1.0720501,9.097051,-0.066275,-0.1021625,0.0108624995
1692597409320,1.9339501,-0.91905004,9.27495,-0.066275,-0.1021625,0.0108624995
1692597409350,1.3909501,-1.1580001,9.8230505,-0.0358875,-0.1882375,0.1276
1692597409376,1.161,-0.77805007,9.504001,-0.0097624995,-0.1991,0.0963875
1692597409408,1.5589501,-0.40395,9.394051,0.00275,-0.141075,0.02915
1692597409436,1.5990001,-0.25095,9.4129505,0.0517,0.0026125,-0.09185
1692597409467,1.72395,-0.18405001,10.11705,0.094325,0.034925,-0.14575
1692597409494,2.2840502,-0.105000004,10.785001,0.1808125,0.016224999,-0.238425
1692597409522,2.9350502,-0.28905,11.47395,0.2162875,-0.0097624995,-0.2721125
1692597409553,1.50405,-0.684,10.540951,0.2646875,-0.100099996,-0.2682625
1692597409582,0.95100003,-1.01505,10.254001,0.2608375,-0.143,-0.21945
1692597409609,1.09695,-1.9980001,10.440001,0.2281125,-0.1403875,-0.155925
1692597409639,0.57195,-1.40205,8.722051,0.062425,0.007975,0.04235
1692597409666,1.18305,-1.4809501,9.097051,-0.0545875,0.0930875,0.1945625
1692597409697,2.1400502,-1.4959501,10.77105,-0.230725,0.1852125,0.4362875
1692597409729,1.3120501,-0.69105005,10.375951,-0.2585,0.173525,0.4932125
1692597409759,1.2550501,-0.78705,9.98805,-0.2030875,0.0807125,0.4805625
1692597409786,3.6030002,-0.31800002,10.246051,-0.131175,0.0605,0.3650625
1692597409815,2.22405,-1.098,10.953,0.0336875,0.015262499,0.0765875
1692597409846,0.31605002,-1.90005,14.701051,0.104499996,-0.099825,0.014025
1692597409875,-1.27005,-1.81605,11.005051,0.1249875,-0.25465,0.0292875
1692597409903,1.2430501,-1.4239501,7.1470504,0.043175,-0.081675,0.0518375
1692597409931,2.69805,-1.5840001,7.22805,-0.0633875,0.1918125,0.060225
1692597409960,2.121,-1.8400501,8.74995,-0.2132625,0.37193748,0.16293749
1692597409990,0.52695,-1.3590001,7.18305,-0.243375,0.1716,0.34375
1692597410020,0.558,-1.4670001,7.65705,-0.2322375,-0.25905,0.69519997
1692597410048,0.15405001,-1.182,7.9249506,-0.2132625,-0.27335,0.752125
1692597410076,-0.61605,-0.72,7.9530005,-0.1533125,-0.0369875,0.7162375
1692597410106,-0.87495005,-1.5700501,9.088051,-0.1032625,0.109175,0.65174997
1692597410134,-0.034950003,-1.4599501,7.1710505,0.0174625,0.4536125,0.3931125
1692597410165,0.61095005,-1.50495,7.4599504,0.0457875,0.6136625,0.271425
1692597410193,-0.022950001,-1.4790001,10.213051,-0.0268125,0.6204,0.2850375
1692597410222,-1.19505,-1.04805,9.583051,-0.0752125,0.4794625,0.3509
1692597410252,-0.62805,-1.2610501,8.439,-0.0875875,0.3661625,0.3568125
1692597410281,-0.15195,-1.6369501,8.734051,-0.0628375,0.349525,0.2877875
1692597410309,-1.2,-2.0320501,10.290001,0.0026125,0.4582875,0.126775
1692597410337,-1.143,-2.1040502,12.12495,-0.0341,0.48688748,0.2134
1692597410368,-1.107,-1.6489501,10.042951,-0.0757625,0.4939,0.3139125
1692597410400,-1.4899501,-1.5409501,9.114,-0.1225125,0.47341248,0.398475
1692597410429,-1.79595,-2.0389502,10.30095,-0.113575,0.4477,0.3361875
1692597410454,-1.7320501,-2.295,11.24205,-0.0774125,0.456225,0.1280125
1692597410482,-1.44,-2.05605,11.041051,-0.083875,0.4791875,0.120175
1692597410510,-1.7560501,-1.32105,9.89505,-0.1500125,0.4134625,0.444675
1692597410539,-1.7869501,-1.00695,9.33405,-0.1552375,0.3408625,0.58245
1692597410568,-1.3609501,-1.4119501,9.34605,-0.015262499,0.296725,0.447425
1692597410597,-1.04505,-2.01495,11.236951,0.0749375,0.3070375,0.312125
1692597410627,-1.368,-1.7760001,10.897051,0.1175625,0.282425,0.2666125
1692597410655,-1.9759501,-1.5169501,8.98305,0.036575,0.0952875,0.4725875
1692597410686,-1.5589501,-1.9270501,10.198951,-0.0180125,0.0254375,0.5861625
1692597410714,-1.626,-2.0059502,11.59605,-0.08525,0.0446875,0.7414
1692597410744,-2.29695,-1.23705,10.210951,-0.1276,0.043449998,0.832425
1692597410773,-2.23005,-0.79200006,8.748,-0.159775,0.0105875,0.881375
1692597410802,-1.485,-1.21305,9.4800005,-0.0859375,0.0380875,0.6832375
1692597410831,-1.3750501,-1.4650501,10.17,-1.375E-4,0.1175625,0.5042125
1692597410860,-1.14495,-1.51995,9.583051,0.1117875,0.1615625,0.2220625
1692597410889,-1.3270501,-1.4569501,8.599951,0.1166,0.1049125,0.123475
1692597410918,-1.19805,-1.51995,9.48795,0.058575,-0.01925,0.0166375
1692597410945,-1.353,-1.4070001,10.231951,0.0191125,-0.055825,0.0251625
1692597410974,-2.05005,-0.59595,9.47595,-0.0100375,-0.073975,0.0504625
1692597411006,-1.9609501,-0.24105,8.86095,0.0259875,-0.0570625,-0.023924999
1692597411034,-1.5190501,-0.74700004,9.95895,0.2358125,0.0972125,-0.3422375
1692597411062,-1.49205,-0.9979501,10.368,0.2358125,0.0972125,-0.3422375
1692597411092,-1.12395,-1.3879501,10.30095,0.3702875,0.149875,-0.3817
1692597411117,-0.49695003,-1.4599501,10.1959505,0.2850375,0.0627,-0.20515
1692597411149,-0.123,-1.2420001,9.717,0.05995,-0.15125,0.16115
1692597411178,-0.37905002,-1.0000501,9.208051,-0.0237875,-0.271975,0.2690875
1692597411206,-0.86295,-0.70305,8.427,-0.0715,-0.383625,0.3144625
1692597411243,-1.34895,-0.735,8.557051,-0.061875,-0.453475,0.2996125
1692597411269,-1.2790501,-0.86895007,9.1380005,-0.021175,-0.388575,0.27719998
1692597411298,-1.7320501,-0.615,9.12405,0.0551375,-0.168575,0.2431
1692597411327,-1.7580001,-0.34395,8.50395,0.0749375,-0.06545,0.24585
1692597411355,-1.3249501,-0.507,9.15495,0.1205875,0.1007875,0.234025
1692597411384,-1.9570501,-0.58605003,10.740001,0.158125,0.1639,0.1810875
1692597411412,-1.746,-0.63900006,10.75905,0.19139999,0.201025,0.1144
1692597411448,-1.10895,-0.75795,10.44495,0.2063875,0.19305,0.0056375
1692597411473,-1.26705,-0.91200006,10.938001,0.2000625,0.1661,-0.0636625
1692597411502,-0.96300006,-1.12695,12.49905,0.17379999,0.055275,-0.2286625
1692597411528,-1.248,-1.6489501,11.97,0.1384625,-0.0198,-0.254925
1692597411557,-1.4280001,-1.8859501,15.670051,0.0188375,-0.1463,-0.07315
