@ HyperIMU - ianovir
@ Date:Mon Aug 21 09:20:01 GMT+03:00 2023, Sampling Rate:25ms

timestamp,bma4xy_accelerometer.x,bma4xy_accelerometer.y,bma4xy_accelerometer.z,oem_pseudo_gyro.x,oem_pseudo_gyro.y,oem_pseudo_gyro.z
1692598802023,-0.03705,-0.56700003,9.80805,-0.1463,-0.4989875,-2.4433749
1692598802072,-0.89400005,-0.21000001,10.27005,-0.2718375,-0.6587625,-6.8162875
1692598802084,-0.54,-0.14805001,10.111951,-0.275275,-0.65835,-8.6218
1692598802114,-0.37695003,-0.30405003,9.94995,-0.2013,-0.443025,-10.27235
1692598802144,-0.32700002,-0.294,9.86295,-0.1508375,-0.3106125,-10.064588
1692598802172,-0.18495001,-0.30105,9.68595,-0.117425,-0.21505,-9.241512
1692598802208,-0.04695,-0.354,9.696,-0.104637496,-0.121825,-6.81945
1692598802238,0.18495001,-0.39000002,9.82005,-0.10835,-0.10505,-5.8675375
1692598802261,0.16605,-0.44505003,9.81795,-0.120175,-0.1183875,-3.6678126
1692598802297,0.15105,-0.42795002,9.83205,-0.13585,-0.1582625,-2.1027875
1692598802323,0.075,-0.46905002,9.877951,-0.141075,-0.1727,-1.62415
1692598802355,-0.17295001,-0.32505003,9.94995,-0.143,-0.176275,-1.3102375
1692598802398,-0.33600003,-0.15,9.753,-0.1233375,-0.105875,-0.7734375
1692598802417,-0.28395,-0.064050004,9.567,-0.099825,-0.0548625,-0.6914875
1692598802441,-0.030000001,-0.30105,9.562051,-0.0691625,-0.00385,-0.6582125
1692598802467,-0.06795,-0.33705002,9.792001,-0.0394625,0.0331375,-0.659175
1692598802500,-0.15900001,-0.27705002,9.9210005,-0.0081124995,0.0418,-0.5971625
1692598802527,-0.19005,-0.16995001,9.732,-0.0059125,0.0264,-0.48675
1692598802553,-0.29805002,-0.033,9.636001,0.001375,0.013612499,-0.295075
1692598802579,-0.231,-0.060000002,9.540001,0.012375,0.0198,-0.26015
1692598802607,-0.09195001,-0.16995001,9.733951,0.027775,0.0279125,-0.24007499
1692598802633,-0.14505,-0.201,9.780001,0.0430375,0.0317625,-0.207625
1692598802665,-0.14895001,-0.28905,10.182,0.049225,0.0160875,-0.0614625
1692598802692,-0.09,-0.261,10.005,0.0383625,0.00495,0.004125
1692598802717,-0.29505002,-0.15495001,10.01895,0.0209,-0.0015125,0.012375
1692598802746,0.108,-0.36105,10.081051,-0.0132,-0.0100375,-0.060775
1692598802778,-0.09195001,-0.13395001,9.415951,-0.0188375,-0.0301125,-0.010725
1692598802811,-0.18795002,-0.031050002,9.418051,-0.0188375,-0.0301125,-0.010725
1692598802862,-0.09705,-0.08595,9.670051,-0.0092124995,-0.0526625,0.032449998
1692598802893,-0.09705,-0.08595,9.670051,-0.0092124995,-0.0526625,0.032449998
1692598802917,-0.09705,-0.08595,9.670051,-0.0092124995,-0.0526625,0.032449998
1692598802957,-0.079950005,-0.25305,9.825001,0.019524999,6.875E-4,-0.2564375
1692598802994,-0.079950005,-0.25305,9.825001,0.019524999,6.875E-4,-0.2564375
1692598803039,-0.079950005,-0.25305,9.825001,0.019524999,6.875E-4,-0.2564375
1692598803070,-0.027,-0.28005,9.744,-0.015675,4.125E-4,0.0022
1692598803104,-0.147,-0.24105,9.813001,-0.0100375,-4.125E-4,0.010175
1692598803133,-0.71205,0.13305001,10.10505,-0.0108624995,-0.0100375,-0.0276375
1692598803177,-0.40605003,-0.048,10.038,-0.0108624995,-0.0103124995,-0.0561
1692598803239,-0.35805002,-0.093,10.086,0.061875,0.097075,-0.4690125
1692598803301,-0.147,-0.112050004,9.868051,0.0738375,0.0977625,-0.2706
1692598803355,-0.039,-0.07395,9.636001,0.0540375,0.0386375,-0.0495
1692598803391,-0.058050003,-0.09105001,9.94005,0.0314875,-0.0114124995,0.1491875
1692598803434,-0.087000005,-0.016050002,9.574051,0.018424999,-0.0493625,0.2063875
1692598803465,0.00795,-0.08595,9.769951,0.0103124995,-0.05995,0.166375
1692598803497,-0.16095,0.054,9.538051,0.0083875,-0.057475,0.1390125
1692598803528,-0.054,0.034950003,9.682051,0.010175,-0.05335,0.161425
1692598803538,-0.043950003,0.018000001,9.777,0.01705,-0.0496375,0.215875
1692598803555,-0.027,0.009000001,9.86295,0.01705,-0.0496375,0.215875
1692598803577,0.10095,-0.093,9.871051,0.036849998,-0.038225,0.29315
1692598803601,-0.078,-0.028050002,9.768001,0.039325,-0.0383625,0.3364625
1692598803623,-0.15195,0.064050004,9.70995,0.034925,-0.044,0.39325
1692598803660,0.003,0.028050002,9.684,0.026124999,-0.0477125,0.348425
1692598803684,-0.01305,-0.028050002,9.913951,0.027775,-0.0391875,0.241725
1692598803711,-0.11595,-0.057000004,9.909,0.0303875,-0.030524999,0.163075
1692598803741,-0.26700002,0.009000001,9.8539505,0.021724999,-0.025575,0.148225
1692598803768,-0.15705001,0.049950004,9.603001,0.012925,-0.017875,0.1524875
1692598803794,-0.34095,0.08805001,9.54705,0.006325,-0.0017875,0.1376375
1692598803825,-0.39105,-0.016050002,9.712951,0.0083875,0.037125,0.078375
1692598803851,-0.52995,-0.033,9.792001,0.014575,0.0556875,0.0427625
1692598803881,-0.73605,-0.036000002,9.708,0.018424999,0.095975,-0.061325
1692598803907,-1.10895,-0.09105001,9.772051,0.0125124995,0.1183875,-0.1274625
1692598803937,-1.095,-0.28695002,9.693001,-0.0015125,0.1863125,-0.2985125
1692598803963,-1.16205,-0.34005,9.361051,-0.007975,0.2365,-0.4192375
1692598803992,-1.7629501,-0.162,9.262951,-0.016775,0.287375,-0.5462875
1692598804022,-1.79595,-0.11505,8.868,-0.03135,0.36781248,-0.7467625
1692598804049,-1.5450001,-0.20595,8.81295,-0.025575,0.4156625,-0.82005
1692598804077,-1.3410001,-0.21795002,9.162001,0.00385,0.50435,-0.840675
1692598804103,-1.248,-0.072000004,9.29895,0.011825,0.504625,-0.782375
1692598804131,-1.2720001,0.16905001,8.985001,0.0114124995,0.4670875,-0.6985
1692598804163,-1.07805,0.351,8.092051,0.014025,0.328625,-0.4752
1692598804191,-1.19805,0.36795002,8.53005,0.0397375,0.2611125,-0.3793625
1692598804218,-1.62195,0.21000001,8.98005,0.141625,0.168575,-0.3408625
1692598804247,-1.8370501,0.058950003,8.98005,0.1874125,0.141625,-0.3551625
1692598804273,-2.0070002,-0.12195001,9.073951,0.2066625,0.153175,-0.3477375
1692598804303,-2.3370001,-0.32805002,9.492001,0.1816375,0.1934625,-0.3689125
1692598804331,-2.87805,-0.51705,9.226951,0.143275,0.2437875,-0.4455
1692598804363,-2.8330503,0.11895001,7.4119506,0.0683375,0.363275,-0.7330125
1692598804389,-2.3130002,0.117000006,7.4029503,0.056375,0.4362875,-0.8754625
1692598804417,-1.22895,-0.32505003,8.334001,0.1126125,0.5614125,-1.004575
1692598804445,-0.25005,-0.20805001,8.32695,0.13915,0.5553625,-0.946275
1692598804472,-0.23805001,0.028050002,6.2080503,0.120725,0.453475,-0.7778375
1692598804502,0.20400001,-0.651,8.54895,-0.0276375,-0.006875,-0.1337875
1692598804528,0.27105,-0.60495,9.45405,-0.1010625,-0.25905,0.23773749
1692598804558,0.37605003,0.31995,7.0249505,-0.24213749,-0.6447375,0.851125
1692598804586,-0.03705,0.25995,6.4020004,-0.2932875,-0.769175,1.1147125
1692598804612,-0.33105,-0.52905005,9.889951,-0.284625,-0.8311875,1.347225
1692598804641,0.18900001,-1.89795,13.462951,-0.1419,-0.762575,1.495725
1692598804669,0.55305004,-1.6819501,11.556001,-0.1331,-0.6832375,1.385725
1692598804697,0.22800002,-1.24395,10.617001,-0.374825,-0.6111875,1.1937749
1692598804725,-0.19995001,-1.2730501,11.022,-0.5025625,-0.61545,1.2249875
1692598804752,-0.54705,-1.2970501,11.7619505,-0.5559125,-0.6043125,1.2799875
1692598804783,0.52500004,-0.93600005,9.238951,-0.480425,-0.4481125,1.16765
1692598804810,0.78795004,-0.92805004,9.222,-0.4107125,-0.33055,1.0085624
1692598804837,0.75195,-1.4260501,10.6390505,-0.2853125,-0.2651,0.8820625
1692598804864,0.83100003,-1.8880501,11.42205,-0.236775,-0.3320625,0.952875
1692598804893,0.96495,-2.01,10.849951,-0.21133749,-0.4049375,1.0225875
1692598804921,1.14705,-1.9770001,10.15995,-0.25795,-0.46365,0.9642875
1692598804950,1.3770001,-1.93095,9.303,-0.3031875,-0.464475,0.8798625
1692598804977,1.1400001,-1.764,10.086,-0.33715,-0.4701125,0.82445
1692598805004,0.88095003,-1.8790501,10.038,-0.3425125,-0.5108125,0.834625
1692598805034,1.281,-2.19495,10.10505,-0.2787125,-0.476025,0.7855375
1692598805058,1.9150501,-2.4169502,10.857,-0.249975,-0.418825,0.7128
1692598805087,1.26405,-1.9410001,9.89505,-0.23539999,-0.3793625,0.6656375
1692598805117,0.85695004,-1.8000001,10.12695,-0.2211,-0.426525,0.7162375
1692598805148,0.22995001,-1.8859501,11.92695,-0.2013,-0.4362875,0.7005625
1692598805177,0.58005005,-1.8360001,10.996051,-0.170775,-0.3711125,0.57145
1692598805203,0.12705001,-1.23705,8.805,-0.101475,-0.076725,0.0682
1692598805231,-0.025050001,-1.10595,10.357051,-0.0749375,0.0642125,-0.1661
1692598805257,0.13695,-1.59105,11.7640505,-0.053075,0.169125,-0.3344
1692598805284,0.063,-1.6110001,11.995951,0.0092124995,0.33715,-0.6347
1692598805311,0.53895,-1.8910501,11.72595,0.0463375,0.4120875,-0.8028625
1692598805340,0.98700005,-1.9579501,11.323951,0.074525,0.4563625,-0.9708875
1692598805367,0.65895003,-1.7020501,10.870951,0.0595375,0.4076875,-0.93775
1692598805396,0.51705,-1.812,10.68,0.032725,0.3152875,-0.841775
1692598805424,0.57495004,-1.9339501,10.41405,-0.0232375,0.121825,-0.6149
1692598805451,-0.12795001,-1.9120501,10.750951,-0.044825,0.0831875,-0.571175
1692598805479,-0.33405003,-2.1060002,11.55105,-0.0911625,0.113299996,-0.6667375
1692598805513,-0.26205,-2.16405,11.376,-0.1120625,0.1788875,-0.8017625
1692598805546,-0.03705,-1.5319501,10.036051,-0.1285625,0.3531,-1.02685
1692598805579,0.06705,-0.81600004,9.526051,-0.1145375,0.403425,-0.9403625
1692598805610,0.44805002,-1.00995,10.09605,-0.0754875,0.386925,-0.8963625
1692598805638,-0.20895001,-1.182,11.091001,0.0785125,0.2899875,-0.7709625
1692598805669,0.64695,-1.8600001,11.6320505,0.1505625,0.21573749,-0.64556247
1692598805697,0.66300005,-1.5409501,10.552951,0.1909875,0.1065625,-0.4555375
1692598805727,0.16305001,-1.1029501,9.80805,0.1617,0.0528,-0.3708375
1692598805762,0.12705001,-0.591,8.937,0.099275,-0.0562375,-0.198275
1692598805791,0.54795,-0.66300005,8.30805,0.107525,-0.0484,-0.199375
1692598805819,0.582,-0.684,8.724,0.1821875,0.0163625,-0.256025
1692598805849,0.47205,-0.73905003,8.962951,0.2096875,0.0048125,-0.2454375
1692598805881,0.31395,-0.94995004,9.68595,0.2184875,-0.032175,-0.2244
1692598805914,0.54405004,-1.1890501,10.366051,0.1766875,-0.0820875,-0.1582625
1692598805938,0.60795003,-1.2610501,10.54605,0.1452,-0.073975,-0.120037496
1692598805972,0.68295,-1.23195,10.488001,0.10395,-0.0735625,-0.0627
1692598806004,0.88605005,-1.194,10.366051,0.0273625,-0.0983125,0.0917125
1692598806036,1.03005,-1.125,9.934951,0.0067375,-0.1159125,0.1780625
1692598806066,1.1520001,-1.0699501,9.64095,-0.005225,-0.1667875,0.3557125
1692598806098,1.0009501,-0.92595005,10.255951,0.005225,-0.2382875,0.5017375
1692598806131,1.3789501,-0.84705,9.61005,0.018424999,-0.26345,0.5300625
1692598806161,2.0370002,-1.1370001,9.613951,0.0369875,-0.27115,0.5259375
1692598806188,2.5140002,-1.16295,9.624001,0.07865,-0.30195,0.5886375
1692598806221,2.36505,-0.77805007,9.00195,0.1071125,-0.506825,0.9816125
1692598806247,1.7260501,-0.069000006,8.583,0.1285625,-0.6395125,1.238875
1692598806281,2.01105,-0.052050002,9.37005,0.238425,-0.7684875,1.5327125
1692598806312,1.48905,-0.057000004,10.584001,0.3172125,-0.716925,1.4284875
1692598806341,1.4100001,-0.55005,12.37695,0.42295,-0.4703875,0.859375
1692598806371,-2.33505,-0.048,13.582951,0.4186875,-0.324775,0.531575
1692598806401,1.008,0.061950002,11.637,0.2882,0.0166375,-0.22453749
1692598806434,1.95105,-0.32505003,10.099951,0.1898875,0.35021248,-0.8630875
1692598806466,1.1329501,-0.33,9.198001,0.2052875,0.3873375,-0.8718875
1692598806495,0.89295006,-0.33195,10.536,0.2349875,0.310475,-0.66275
1692598806526,2.7120001,-1.194,11.41695,0.219725,0.1161875,-0.30855
1692598806552,4.2180004,-1.02705,8.616,0.152625,0.0902,-0.3586
1692598806581,2.46795,-0.38700002,10.905001,0.0064625,-0.1271875,-0.1571625
1692598806618,1.67595,-0.009000001,9.741,-0.01265,-0.512325,0.5028375
1692598806653,1.5319501,-0.052050002,7.1470504,0.0017875,-0.5234625,0.4915625
1692598806682,2.46105,-0.98295003,7.37895,0.0072875,-0.2563,-0.0847
1692598806710,3.3439503,-1.31895,9.17895,0.0042625,-0.165825,-0.2563
1692598806742,1.09905,-0.21000001,8.278951,-0.0543125,-0.26235,0.025024999
1692598806776,-0.36195,0.62895006,8.178,-0.15455,-0.392425,0.3213375
1692598806805,2.6550002,-1.1149501,9.588,-0.181225,-0.2487375,2.75E-4
1692598806831,2.42505,-1.0819501,8.69505,-0.185625,0.0017875,-0.5369375
1692598806873,1.5870001,0.303,7.3740005,-0.1819125,0.190575,-0.8479625
1692598806896,1.8649501,0.18795002,7.06995,-0.1819125,0.190575,-0.8479625
1692598806926,2.15205,-0.24105,8.17605,-0.122375,0.0688875,-0.5141125
1692598806954,0.63495004,-1.4929501,9.816001,-0.0336875,0.0353375,-0.472725
1692598806986,0.18495001,-1.9099501,9.93,-0.0094875,-0.0664125,-0.5336375
1692598807019,1.968,-1.79295,9.8230505,-0.4008125,0.1606,-1.0505
1692598807050,1.79295,-0.66795003,8.62395,-0.61448747,0.3322,-1.32935
1692598807084,0.74505,-0.38505003,8.592,-0.70565,0.3474625,-1.3055625
1692598807122,0.039,-0.9979501,9.682051,-0.3862375,0.20405,-0.8817875
1692598807153,0.27105,-1.7539501,10.6390505,-0.2369125,0.2344375,-0.7753625
1692598807178,0.44595003,-1.8499501,9.89505,-0.1769625,0.460075,-0.8061625
1692598807218,0.333,-1.6870501,8.75805,-0.3146,0.5907,-0.7733
1692598807247,-0.19005,-1.194,8.133,-0.37867498,0.5647125,-0.68585
1692598807275,0.0,-1.35,8.343,-0.4038375,0.482075,-0.541475
1692598807308,0.20595,-1.5319501,8.52105,-0.356675,0.4819375,-0.4978875
1692598807333,0.12195001,-2.25495,10.40205,-0.2429625,0.4607625,-0.3268375
1692598807365,-1.3219501,-1.58895,10.668,-0.22893749,0.390775,-0.1758625
1692598807401,-1.57095,-1.1890501,9.5449505,-0.2292125,0.3598375,-0.108625
1692598807431,-0.66195005,-1.536,9.52095,-0.1865875,0.5099875,-0.295075
1692598807458,-0.17595,-1.6800001,9.580951,-0.0477125,0.8234875,-0.6402
1692598807497,-0.11400001,-1.4790001,9.282001,-0.0243375,0.6370375,-0.4129125
1692598807523,-0.19005,-1.623,10.840051,-0.046475,0.433125,-0.1379125
1692598807561,0.52500004,-2.1370502,11.211,-0.066,0.0713625,0.4778125
1692598807589,1.1899501,-2.23095,12.589951,-0.06325,-0.075625,0.75941247
1692598807620,-1.164,-1.8049501,12.520051,-0.081125,-0.40865,1.2687125
1692598807651,-1.3770001,0.054,12.781051,-0.0919875,-0.54614997,1.4289
1692598807683,0.54105,-0.97605,11.71605,0.034375,-0.334125,1.0577875
1692598807712,0.10095,-1.02195,10.357051,0.26221249,0.03795,0.506825
1692598807740,-0.010950001,-1.3450501,10.339951,0.26221249,0.03795,0.506825
1692598807770,0.00795,-1.43805,11.383051,0.27719998,-0.0127875,0.582725
1692598807800,-1.03695,-1.0170001,10.290001,0.157025,-0.120175,0.8188125
1692598807831,-1.026,-0.68700004,9.327001,0.11275,-0.099275,0.8768375
1692598807862,-1.23105,-0.25095,8.69295,0.0968,0.089237496,0.71335
1692598807894,-1.023,-0.47100002,8.652,0.1172875,0.1912625,0.53625
1692598807926,-1.2270001,-0.39000002,8.986951,0.151525,0.2668875,0.3425125
1692598807955,-0.48495004,-0.85395,10.62195,0.2215125,0.339075,0.0320375
1692598807985,-0.36195,-0.50505,10.30605,0.23155,0.3108875,0.0254375
1692598808016,-0.54405004,-0.19800001,9.366,0.2041875,0.2393875,0.1678875
1692598808047,-0.10395,-0.19095,9.241051,0.1364,0.03025,0.555225
1692598808080,0.29505002,-0.462,9.76095,0.16335,-0.0694375,0.5971625
1692598808105,0.28305,-0.31095,9.67395,0.1802625,-0.10835,0.58245
1692598808139,-0.16095,-0.06705,9.538051,0.172425,-0.1742125,0.6584875
1692598808172,-0.95895004,0.08295,9.556951,0.1274625,-0.3026375,0.9273
1692598808197,-0.762,-0.043050002,9.61695,0.12979999,-0.3040125,0.941875
1692598808230,-1.5829501,0.35805002,9.0379505,0.182325,-0.1628,0.6243875
1692598808263,-1.27695,0.126,9.00195,0.2347125,0.089237496,0.0504625
1692598808295,-0.79800004,0.19095,8.937,0.2585,0.212025,-0.24447499
1692598808325,-0.86805004,0.423,8.016001,0.2811875,0.340725,-0.5671875
1692598808362,-0.66195005,0.564,8.986951,0.2651,0.268675,-0.4543
1692598808391,-0.91995007,0.78195006,9.705001,0.2712875,0.2154625,-0.409475
1692598808422,-0.09900001,0.63405,10.086,0.29479998,0.172975,-0.42734998
1692598808456,-0.60705,1.2100501,10.47105,0.3504875,0.0963875,-0.46254998
1692598808487,-0.975,0.97800004,12.019951,0.3716625,-0.0099,-0.2418625
1692598808519,-0.71205,0.57600003,12.274051,0.38334998,-0.0567875,-0.0782375
1692598808545,-0.657,0.38895002,11.967001,0.341275,-0.0405625,-0.08305
1692598808573,-1.1910001,0.59295005,11.58705,0.1494625,-0.0262625,-0.0094875
1692598808605,-1.2910501,0.45195,11.199,0.06875,-0.0292875,0.0572
1692598808635,-2.0329502,0.27705002,11.42895,0.0229625,-0.0177375,0.05995
1692598808664,-2.5500002,0.081,12.063001,-9.625E-4,0.0650375,-0.202125
1692598808697,-2.4520502,-0.42105,12.27105,-0.0023375,0.142725,-0.4279
1692598808724,-2.09805,-0.23895001,10.761001,-0.0231,0.3554375,-0.90035
1692598808755,-1.9060501,0.07095,9.48495,-0.0548625,0.4269375,-1.0164
1692598808786,-1.7170501,0.21000001,8.03505,-0.1122,0.423775,-0.930325
1692598808818,-1.3800001,-0.30600002,9.342,-0.099,0.3881625,-0.82981247
1692598808849,-1.61205,-0.093,9.0379505,-0.0308,0.29535,-0.7013875
1692598808879,-1.3560001,0.15195,7.7569504,-0.032175,0.164175,-0.6565625
1692598808912,-1.0639501,-0.03795,8.16195,-0.032449998,0.1232,-0.6384125
1692598808943,-1.2030001,-0.079050004,8.370001,0.0099,0.0818125,-0.5770875
1692598808969,-1.3249501,-0.048,8.643001,0.022275,0.048675,-0.5226375
1692598809001,-1.3630501,-0.00405,8.398951,0.0143,-0.0125124995,-0.4499
1692598809029,-1.6380001,0.27,7.6060505,0.0077,-0.022824999,-0.4368375
1692598809056,-0.62100005,-0.26295,8.18295,0.01705,0.004675,-0.3760625
1692598809091,-0.76500005,-0.31605002,9.226951,0.032175,0.028324999,-0.336325
1692598809124,-1.2580501,0.069000006,7.9579506,-0.0158125,-0.0482625,-0.1271875
1692598809155,-1.30095,-0.13605,8.973001,-0.0779625,-0.1296625,0.04895
1692598809189,-1.71,0.21195,7.6039505,-0.116875,-0.1566125,0.184525
1692598809218,-1.26705,-0.028050002,8.001,-0.0823625,-0.108625,0.0812625
1692598809249,-0.59505004,-0.30405003,8.157001,0.013062499,-0.006875,-0.21133749
1692598809275,-0.36,-0.036000002,7.1590505,0.0386375,-0.01815,-0.29741248
1692598809302,-0.29505002,0.13095,6.9960003,0.014712499,-0.0878625,-0.2105125
1692598809341,0.13395001,-0.105000004,8.073,-0.0265375,-0.242825,0.143
1692598809369,0.42195,-0.37605003,8.51295,-0.0312125,-0.31295,0.353925
1692598809399,1.848,-1.2540001,10.59105,-0.0842875,-0.4767125,0.8067125
1692598809430,0.9580501,-1.1730001,11.215951,-0.1705,-0.597575,1.0924375
1692598809458,1.7380501,-1.5079501,10.990951,-0.404525,-0.891825,1.74625
1692598809490,1.812,-1.25205,11.43105,-0.4783625,-0.99343747,1.9850875
1692598809516,1.0890001,-1.08405,11.472,-0.4983,-1.037025,2.1036124
1692598809549,1.0320001,-1.33305,12.504001,-0.41525,-0.9805125,2.04655
1692598809585,1.0129501,-0.52605003,11.829,-0.34155,-0.881375,1.8831999
1692598809621,1.4389501,-0.61200005,11.191951,-0.1274625,-0.4637875,1.1191125
1692598809642,0.93405,-1.1770501,12.03705,-0.0430375,-0.3906375,0.9442125
1692598809672,0.85200006,-1.6369501,12.385951,0.0292875,-0.35585,0.8226625
1692598809705,1.23105,-1.455,12.151951,0.0418,-0.27335,0.64075
1692598809737,0.63900006,0.009000001,10.52595,-0.0622875,-0.110825,0.32395
1692598809768,1.3549501,-0.11505,10.12395,-0.0814,-0.0496375,0.15413749
1692598809800,1.10895,0.12900001,8.229,-0.0455125,-0.0290125,0.054449998
1692598809831,0.57000005,-1.04805,9.519,0.1266375,-0.0836,0.0253
1692598809866,0.027,-1.7520001,11.017051,0.187825,-0.1153625,-0.0350625
1692598809900,0.666,-1.2919501,8.563951,-0.0240625,0.035475,-0.2567125
1692598809928,0.14205001,-0.60795003,8.431951,-0.16995,0.1420375,-0.4134625
1692598809958,0.59205,-1.45305,9.591001,-0.3174875,0.2228875,-0.6303
1692598809986,1.21605,-1.3740001,8.500951,-0.3125375,0.2011625,-0.595925
1692598810018,0.64395005,-1.4119501,9.784051,-0.2739,0.0925375,-0.2189
1692598810054,0.54105,-1.8139501,8.27595,-0.26427498,0.013062499,-0.0081124995
1692598810087,1.0870501,-1.90005,11.20905,-0.23539999,-0.058025,0.1794375
1692598810116,-0.33600003,-0.73005,10.830001,-0.229075,-0.023375,0.16335
1692598810154,0.86205006,-0.87600005,10.339951,-0.2195875,0.0818125,0.0405625
1692598810184,0.75705004,-1.2420001,10.036051,-0.0188375,0.26427498,-0.34155
1692598810212,0.65595,-1.24395,10.62705,0.0979,0.2869625,-0.410575
1692598810245,0.62505,-0.91605,10.548,0.13145,0.0845625,-0.0551375
1692598810266,0.582,-0.555,10.39995,0.095699996,-0.0158125,0.1379125
1692598810300,1.2739501,-0.56895,9.33405,0.076175,-0.069299996,0.2506625
1692598810333,1.3240501,-0.73905003,8.904,0.130075,-0.115225,0.323125
1692598810367,1.45605,-1.0699501,10.347,0.2028125,-0.219175,0.4954125
1692598810399,1.00605,-0.79395,9.46605,0.1804,-0.329175,0.7112875
1692598810429,1.2760501,-1.0339501,10.143001,0.1428625,-0.349525,0.754325
1692598810456,0.95295006,-0.94005007,10.278001,0.1098625,-0.3408625,0.76175
1692598810484,1.3740001,-0.957,10.88805,0.091437496,-0.308,0.7544625
1692598810518,0.711,-1.05795,11.271001,0.0845625,-0.19085,0.7134875
1692598810550,0.80895007,-1.05795,10.82295,0.0803,-0.1436875,0.6417125
1692598810578,0.064950004,-0.744,11.026951,0.0705375,-0.0873125,0.5599
1692598810607,1.01505,-0.88995004,11.24505,0.0374,0.0231,0.397925
1692598810644,2.02305,-1.05795,10.729951,0.021175,0.10505,0.181775
1692598810674,1.317,-0.957,10.239,0.0314875,0.09295,0.1684375
1692598810703,1.422,-1.8330001,11.53695,0.0625625,-0.0884125,0.4217125
1692598810736,1.6849501,-1.9480501,10.564951,0.0435875,-0.205425,0.6593125
1692598810764,1.5850501,-2.38395,11.24505,-0.004675,-0.198275,0.711425
1692598810798,1.71405,-1.608,10.10505,-0.071225,-0.1794375,0.718575
1692598810828,1.33095,-1.3110001,9.86295,-0.2041875,-0.1709125,0.60445
1692598810860,0.68505,-1.422,10.11705,-0.2138125,-0.1753125,0.4411
1692598810889,1.401,-1.1700001,9.30795,-0.16665,-0.1595,0.380875
1692598810917,0.41400003,-0.28500003,7.3639503,-0.1194875,-0.14025,0.3400375
1692598810952,0.72105,-1.2900001,8.7310505,-0.0587125,-0.111237496,0.2410375
1692598810977,0.80205005,-1.4290501,9.030001,0.010175,-0.0023375,-0.041525
1692598811013,0.45000002,-0.65595,7.1010003,0.0235125,0.06985,-0.1637625
1692598811042,-0.28605002,-0.48105,7.21605,-0.0127875,0.13213749,-0.166375
1692598811070,-0.312,-0.74205005,8.391001,-0.015675,0.1555125,-0.165275
1692598811099,-0.59205,-0.68895006,7.4869504,0.0154,0.3444375,-0.5097125
1692598811130,-1.0849501,-0.64605004,7.254,0.029975,0.480975,-0.771925
1692598811160,-1.8180001,-0.8880001,8.193001,0.0506,0.71073747,-1.158025
1692598811193,-1.50405,-1.18005,8.96595,0.0532125,0.830775,-1.335125
1692598811220,-1.8060001,-1.0860001,8.596951,0.041525,1.093125,-1.6963375
1692598811253,-2.529,-0.73005,8.238,0.0193875,1.19515,-1.782275
1692598811287,-2.13105,-0.67200005,9.030001,0.0286,1.1955625,-1.7480375
1692598811312,-2.5549502,-0.61200005,9.411,0.0622875,1.1928124,-1.709675
1692598811345,-2.90895,-0.744,10.62195,0.18259999,1.1411124,-1.5945874
1692598811377,-2.7820501,-1.2780001,10.92105,0.2503875,1.09835,-1.5354625
1692598811411,-2.5789502,-1.5270001,10.43295,0.3036,1.04995,-1.46575
1692598811443,-2.05005,-0.9979501,9.33195,0.2011625,0.729025,-0.967725
1692598811473,-1.4110501,-0.79695004,8.752951,0.12595,0.6034875,-0.81633747
1692598811506,-2.29695,-0.96000004,9.562051,0.0606375,0.3746875,-0.577775
1692598811536,-2.46405,-1.3759501,11.42895,0.0583,0.1661,-0.2998875
1692598811559,-2.39895,-1.302,11.56095,0.0537625,0.11385,-0.2288
1692598811591,-2.1720002,-0.87105006,11.094001,0.03795,0.08085,-0.19167499
1692598811623,-2.11695,-0.957,11.43105,-0.00165,9.625E-4,-0.0994125
1692598811651,-1.8610501,-1.36395,12.279,2.75E-4,-0.0308,-0.0353375
1692598811685,-1.50405,-1.2589501,11.656051,-0.004675,-0.0875875,0.2047375
1692598811717,-1.1359501,-1.14405,11.04405,-0.0925375,-0.1947,0.5185125
1692598811748,-0.98205006,-1.19895,11.03205,-0.1318625,-0.2547875,0.6191625
1692598811780,-1.28205,-0.79200006,10.29195,-0.1799875,-0.3675375,0.812625
1692598811808,-0.91995007,-0.64395005,10.026,-0.19635,-0.406725,0.940225
1692598811836,-0.81195,-0.47805002,9.066,-0.194425,-0.4195125,1.035925
1692598811872,-0.95400006,-0.36600003,8.34795,-0.111237496,-0.3900875,1.0162625
1692598811901,-1.19505,-0.56505,8.7960005,0.0059125,-0.3443,0.802725
1692598811933,-0.975,-0.97605,9.5140505,0.0518375,-0.3029125,0.67347497
1692598811965,-1.31505,-1.02405,9.768001,0.0774125,-0.1978625,0.421025
1692598811995,-1.47105,-0.97605,9.708,0.007425,-0.124437496,0.209825
1692598812038,-1.8540001,-0.58605003,9.052051,-0.0264,-0.085525,0.1280125
1692598812062,-1.7719501,-0.65805006,9.088051,-0.0345125,0.0350625,-0.044825
1692598812092,-1.4440501,-0.82605004,9.238951,-0.00715,0.103125,-0.1436875
1692598812120,-1.1880001,-1.098,9.897,0.0512875,0.1854875,-0.28861248
1692598812149,-1.36995,-1.0390501,9.946951,0.0446875,0.1672,-0.2682625
1692598812178,-1.4110501,-0.82995003,9.603001,-0.0336875,0.0397375,-0.0935
1692598812205,-1.059,-0.81105006,9.519,-0.054725,5.5E-4,-0.068475
1692598812242,-1.815,-0.11505,9.550051,-0.0226875,-2.75E-4,-0.1500125
1692598812268,-1.5499501,-0.43305,10.41405,0.013062499,-0.0048125,-0.1747625
1692598812293,-1.0020001,-0.58905005,10.882951,0.0669625,-0.003575,-0.19855
1692598812322,-1.45395,0.0,9.540001,0.1755875,0.01485,-0.2072125
1692598812355,-2.232,-0.53595,10.737,0.196625,0.001375,-0.1739375
1692598812386,-2.8849502,-1.9099501,14.416051,0.2486,0.0207625,-0.2459875
1692598812412,-2.907,-2.0970001,14.6629505,0.25795,0.09075,-0.385275
1692598812440,-2.73195,-1.422,12.717001,0.2006125,0.1771,-0.5490375
1692598812469,-2.15805,-0.46905002,10.55805,-0.01595,0.2916375,-0.814
1692598812495,-1.6980001,-0.49305,10.189051,-0.0092124995,0.34155,-1.004575
1692598812524,-1.00605,-0.78705,9.637951,0.072875,0.3370125,-1.0258875
1692598812555,-1.0330501,0.291,7.5919504,0.1434125,0.2858625,-0.9497125
1692598812582,-0.64695,-0.50205004,9.073951,0.1516625,0.0548625,-0.556325
1692598812608,-0.98700005,-0.49305,7.9009504,0.117837496,-0.071225,-0.3210625
1692598812635,-1.0519501,-0.79200006,7.9819503,0.0900625,-0.1618375,-0.1214125
1692598812661,-1.54005,-1.149,9.049951,0.0658625,-0.20075,0.03795
1692598812691,-2.028,-0.73695004,9.14505,0.0449625,-0.17613749,-0.0023375
1692598812718,-1.794,-0.68895006,8.63595,-0.022275,-0.083875,-0.1929125
1692598812747,-0.83895004,-1.4430001,9.126,-0.0276375,-0.0105875,-0.3306875
1692598812774,-0.87495005,-1.26795,9.801001,-0.010175,0.064899996,-0.4607625
1692598812806,-0.846,-0.62895006,9.082951,-0.048675,0.061325,-0.3817
1692598812836,-0.372,-0.105000004,7.80705,-0.1126125,-0.0345125,-0.16445
1692598812867,-0.14205001,-0.21000001,8.470051,-0.1249875,-0.22495,0.2520375
1692598812902,-0.13005,-0.40905002,9.69795,0.0020625,-0.364925,0.557975
1692598812931,0.41400003,-0.30105,8.67105,0.055,-0.42625,0.66934997
1692598812960,0.31395,-0.42600003,8.575951,0.1170125,-0.514525,0.73149997
1692598812991,0.62295,-0.88995004,8.776951,0.1211375,-0.5581125,0.74305
1692598813021,0.513,-0.91200006,8.49195,0.104499996,-0.6026625,0.7827875
1692598813054,0.96495,-1.33305,9.30105,0.004675,-0.65174997,0.8636375
1692598813086,0.53400004,-1.45305,9.567,-0.13213749,-0.6560125,0.8614375
1692598813116,0.14895001,-1.3570501,8.956051,-0.1936,-0.6551875,0.8553875
1692598813149,0.27105,-1.3590001,10.062,-0.289575,-0.5693875,0.790075
1692598813173,0.37395,-1.33305,10.705951,-0.3091,-0.4648875,0.7002875
1692598813198,0.3,-1.26795,10.420951,-0.27775,-0.26427498,0.5515125
1692598813229,0.68700004,-1.05795,10.60095,-0.23595,-0.215325,0.55495
1692598813262,0.74700004,-1.1010001,11.965051,-0.1315875,-0.18933749,0.5765375
1692598813281,0.77595,-0.804,11.460001,-0.07755,-0.1962125,0.546975
1692598813315,0.864,-0.27,9.865951,-0.02585,-0.2094125,0.511775
1692598813348,1.4650501,-0.55995005,9.43995,0.085525,-0.234025,0.4213
1692598813378,1.02705,-0.85905004,10.500001,0.202675,-0.3102,0.355025
1692598813408,1.56105,-1.1340001,10.359,0.2272875,-0.3595625,0.375925
1692598813442,1.2760501,-1.065,9.50205,0.1676125,-0.396,0.40713748
1692598813472,0.72300005,-1.149,10.49505,0.108899996,-0.396825,0.435325
1692598813498,0.52005005,-1.1370001,11.68305,0.0176,-0.3559875,0.51205
1692598813532,0.60795003,-0.95505005,11.28495,-0.014025,-0.2619375,0.4277625
1692598813563,0.43800002,-0.35895002,9.705001,-0.0493625,0.001925,0.0386375
1692598813592,1.3260001,-1.0360501,9.93,-0.039325,0.092125,-0.1595
1692598813623,1.1920501,-1.1850001,10.08405,0.028875,0.1607375,-0.49225
1692598813656,0.39105,-0.82995003,9.217051,0.043449998,0.12375,-0.5152125
1692598813684,0.59895,-0.86100006,8.99505,-0.0237875,-0.0160875,-0.3598375
1692598813718,1.077,-1.28295,9.571051,-0.0625625,-0.015675,-0.395175
1692598813746,0.34305,-1.113,9.315001,-0.0903375,0.0631125,-0.4811125
1692598813770,0.37905002,-1.2610501,9.672001,-0.0994125,0.056649998,-0.365475
1692598813798,0.41400003,-1.419,10.30395,-0.1331,0.06545,-0.1995125
1692598813823,0.15405001,-1.06005,10.189051,-0.14795,0.1115125,-0.24475
1692598813848,0.19395001,-0.76305,9.80805,-0.1557875,0.15675,-0.3177625
1692598813883,0.78105,-0.88095003,10.440001,-0.130075,0.2250875,-0.5009125
1692598813910,0.582,-0.68205005,9.81105,-0.0878625,0.2473625,-0.6018375
1692598813938,0.25395,-0.38700002,9.054001,0.0191125,0.20253749,-0.6133875
1692598813970,0.771,-0.83505005,9.576,0.0609125,0.147125,-0.513425
1692598814004,1.233,-1.125,9.87495,0.1043625,0.059675,-0.300025
1692598814034,1.7260501,-1.3110001,9.33405,0.0999625,0.0176,-0.197175
1692598814065,2.157,-1.4430001,9.354,0.0367125,-0.137775,0.1084875
1692598814096,2.052,-1.43295,9.66495,-0.0044,-0.2624875,0.3553
1692598814127,1.3549501,-1.074,9.22395,-0.055825,-0.521125,0.9277125
1692598814158,1.4250001,-0.94995004,9.262951,-0.0543125,-0.6040375,1.1050875
1692598814185,1.5990001,-1.05795,10.122001,-0.0422125,-0.5396875,0.9450375
1692598814216,1.8600001,-0.97905004,10.5070505,-0.00495,-0.3463625,0.515625
1692598814251,1.55595,-0.94500005,9.89505,0.0231,-0.2872375,0.410025
1692598814281,1.30005,-1.5679501,11.56095,0.0836,-0.22453749,0.357775
1692598814313,0.79005,-1.86405,14.428051,0.0985875,-0.1915375,0.3521375
1692598814342,1.4290501,-0.76305,12.396001,0.021175,-0.025024999,0.1648625
1692598814372,2.90595,0.33195,7.965,-0.0540375,0.1137125,-0.0785125
1692598814403,3.1579502,-1.5480001,10.246051,-0.0061875,0.1907125,-0.3760625
1692598814438,0.29505002,-2.26395,12.978001,0.22605,-0.1940125,0.043725
1692598814466,0.81705004,-2.13,11.424001,0.20295,-0.347325,0.2468125
1692598814500,0.45000002,-1.52205,9.94995,-0.1527625,-0.1150875,-0.10505
1692598814530,1.197,-1.2400501,10.6369505,-0.3136375,0.1203125,-0.4747875
1692598814556,1.59,-0.30405003,9.265051,-0.3691875,0.35035,-0.8127625
1692598814586,1.2379501,0.07095,8.169001,-0.28655,0.3394875,-0.75955
1692598814616,1.33395,-0.69900006,8.62605,-0.1552375,0.2671625,-0.5952375
1692598814647,0.975,-1.93095,9.77505,0.1282875,0.0787875,-0.2145
1692598814682,0.50505,-1.6150501,8.25,0.14093749,0.016775,-0.0457875
1692598814715,0.12495001,-1.0699501,7.37895,-0.09075,0.0776875,0.0779625
1692598814747,0.24405001,-1.06005,8.37705,-0.176275,0.139425,0.0774125
1692598814779,0.15105,-1.2559501,8.614051,-0.1984125,0.2756875,-0.1049125
1692598814800,-0.37395,-1.21095,8.2570505,-0.1984125,0.2756875,-0.1049125
1692598814835,-0.79095006,-1.40505,8.916,-0.132275,0.3733125,-0.3188625
1692598814866,-0.92700005,-1.608,9.78195,-0.1145375,0.5405125,-0.59688747
1692598814896,-1.26195,-1.335,9.613951,-0.1252625,0.6556,-0.781275
1692598814932,-1.49205,-0.92100006,9.48795,-0.1313125,0.828575,-1.0186
1692598814964,-1.557,-0.69600004,8.736,-0.0554125,0.9114875,-1.0696125
1692598814988,-0.92295,-1.125,8.20695,0.01705,0.9273,-1.098075
1692598815023,-2.3400002,-1.5700501,8.94705,0.1376375,0.8589625,-1.0261625
1692598815051,-2.325,-2.01495,9.769951,0.1376375,0.8589625,-1.0261625
1692598815082,-2.2680001,-2.08005,9.90705,0.056375,0.8072625,-0.9873875
1692598815117,-2.26305,-1.4100001,7.4869504,-0.0961125,0.8540125,-1.09505
1692598815143,-2.1649501,-1.5510001,7.6780505,-0.1436875,0.8228,-1.05765
1692598815175,-1.8559501,-2.1730502,10.23705,-0.1307625,0.7437375,-0.9119
1692598815204,-2.28495,-1.8019501,9.87495,-0.111925,0.68585,-0.8314625
1692598815238,-1.4299501,-1.9459502,9.33705,-0.1203125,0.4851,-0.57585
1692598815268,-2.02095,-1.70595,9.739051,-0.122099996,0.3815625,-0.4074125
1692598815298,-1.9590001,-1.8739501,12.444,-0.1192125,0.1815,0.002475
1692598815332,-1.674,-1.4569501,12.23805,-0.111237496,0.093775,0.2003375
1692598815362,-0.65895003,-1.2760501,10.75395,-0.069575,-0.0903375,0.5775
1692598815394,-0.55905,-1.503,10.479,-0.0562375,-0.2332,0.8338
1692598815422,-0.79095006,-1.6900501,12.06795,-0.0605,-0.5256625,1.3453
1692598815455,-0.492,-1.6150501,11.42205,-0.0796125,-0.62645,1.5310625
1692598815484,-0.018000001,-1.51005,10.354051,-0.12375,-0.7220125,1.7573875
1692598815518,-0.35505003,-1.10595,10.287001,-0.1331,-0.7184375,1.7413
1692598815548,-0.54405004,-0.531,10.002001,-0.12155,-0.6941,1.6490375
1692598815579,-1.0330501,-0.01905,8.7310505,-0.0160875,-0.5797,1.290575
1692598815609,-1.10895,-0.26505002,8.889001,0.0858,-0.4796,1.0429375
1692598815642,-1.42305,-0.43800002,8.925,0.286275,-0.2237125,0.613525
1692598815668,-1.3060501,-0.79005,9.306001,0.3375625,-0.1032625,0.4811125
1692598815699,-1.54005,-0.99300003,9.196051,0.3221625,0.0724625,0.28393748
1692598815725,-1.42005,-0.98100007,8.394,0.27115,0.12705,0.1772375
1692598815760,-1.8540001,-0.9670501,8.253,0.13585,0.1975875,-0.0444125
1692598815793,-1.8540001,-0.9670501,8.253,0.13585,0.1975875,-0.0444125
1692598815824,-1.2070501,-0.88500005,8.93505,-0.006875,0.3026375,-0.2935625
1692598815854,-1.0999501,-0.74205005,8.785951,-0.0451,0.287375,-0.2646875
1692598815885,-1.2240001,-0.97395,10.10805,-0.0650375,0.1661,-0.091299996
1692598815915,-1.3060501,-0.96900004,10.27005,-0.0133375,0.0441375,0.010175
1692598815949,-1.095,-0.85695004,9.580951,0.0066,0.0015125,0.0298375
1692598815980,-0.94200003,-0.12900001,9.241051,0.032725,-0.029975,0.026675
1692598816013,-0.46305,-0.26295,10.174951,0.0638,-0.0262625,-0.0034375
1692598816041,-1.00395,0.08295,8.820001,0.17215,-0.066,0.0055
1692598816074,-0.84105,-0.34005,10.12395,0.2179375,-0.1263625,0.0735625
1692598816104,-1.0830001,-0.68205005,11.42205,0.2811875,-0.1728375,0.08525
1692598816135,-1.3300501,-0.9979501,11.07495,0.2827,-0.158125,0.0501875
1692598816165,-1.10895,-1.4650501,11.629951,0.2448875,-0.151525,0.0455125
1692598816199,-1.5190501,-1.7400001,12.493951,0.09515,-0.11715,-0.0240625
1692598816232,-2.12205,-1.7400001,11.362051,-0.1016125,-0.0485375,-0.2036375
1692598816266,-2.2699502,-2.53005,13.653001,-0.242,0.0677875,-0.416625
1692598816295,-2.4400501,-2.4840002,13.729051,-0.2715625,0.160875,-0.53735
1692598816324,-2.00895,-1.4310001,10.536,-0.3070375,0.3169375,-0.75515
1692598816357,-2.69895,-0.59295005,8.913,-0.2985125,0.3540625,-0.83709997
1692598816385,-3.0289502,-0.94995004,9.80805,-0.1555125,0.400125,-0.9845
1692598816414,-3.7180502,-0.9979501,9.62895,-0.017324999,0.463375,-1.13245
1692598816443,-2.799,-1.4500501,9.43305,0.2586375,0.6898375,-1.5109875
1692598816471,-2.3779502,-1.96695,9.196051,0.3312375,0.7888375,-1.6285499
1692598816501,-3.2950501,-0.30405003,7.7310004,0.2853125,0.776875,-1.552925
1692598816531,-2.397,0.31005,7.4220004,0.2022625,0.6818625,-1.415425
1692598816561,-2.3850002,0.76305,6.3760505,0.1739375,0.609675,-1.30185
1692598816596,-1.54305,-0.14595,8.43,0.3826625,0.5754375,-1.077175
1692598816625,-1.7530501,0.21195,8.04195,0.5698,0.4277625,-0.678425
1692598816659,0.35700002,-0.957,8.65905,0.57915,0.2871,-0.464475
1692598816689,0.27600002,-0.34905002,8.18295,0.38541248,-0.1189375,0.0598125
1692598816719,-0.20505,0.025950002,7.5150003,-0.0191125,-0.69575,1.0388125
1692598816750,-0.01305,-0.15795001,7.5799503,-0.148225,-0.91025,1.4939375
1692598816778,0.31395,-0.44700003,7.3309503,-0.175175,-0.996325,1.7142125
1692598816803,0.63705003,-0.88995004,7.2330003,-0.07755,-0.9207,1.5505875
1692598816838,1.09695,-1.8739501,8.647051,-0.1109625,-0.895125,1.345025
1692598816870,1.3909501,-2.46495,9.804001,-0.2055625,-0.9339,1.359875
1692598816897,1.3909501,-2.56605,9.969001,-0.502975,-1.056825,1.5736874
1692598816922,1.6110001,-2.66595,10.44705,-0.6499625,-1.121175,1.7227374
1692598816963,2.2380002,-2.4150002,10.43295,-0.781275,-1.1781,1.9063
1692598816989,2.1090002,-2.18295,10.536,-0.7569375,-1.1935,1.9525
1692598817021,1.4650501,-1.66305,10.840051,-0.56374997,-1.2189375,1.9681749
1692598817053,2.0350502,-2.1319501,10.656,-0.426525,-1.162975,1.8291625
1692598817081,1.59,-2.3430002,11.826,-0.1794375,-0.8787625,1.2639
1692598817112,0.97695005,-1.9339501,11.458051,-0.100375,-0.7363125,1.01255
1692598817145,0.68505,-1.6800001,10.48305,-0.052525,-0.60995,0.81235
1692598817175,1.1850001,-2.1040502,10.383,-0.0114124995,-0.28545,0.3771625
1692598817207,0.48105,-1.9480501,10.383,-0.004675,0.0306625,0.0105875
1692598817240,0.67995006,-2.2069502,11.280001,-0.0165,0.1252625,-0.09735
1692598817264,0.45495003,-1.8859501,10.167001,-0.059675,0.245575,-0.295625
1692598817295,-0.07305,-1.77795,10.041,-0.0930875,0.3606625,-0.6241125
1692598817323,-0.693,-2.05605,12.148951,-0.101475,0.408925,-0.780175
1692598817358,-0.97800004,-1.71405,11.649,-0.1040875,0.45815,-0.9007625
1692598817387,0.21795002,-1.5820501,9.80805,-0.086075,0.665775,-1.217975
1692598817416,0.735,-1.5630001,10.14795,-0.0572,0.7907625,-1.4212
1692598817448,0.93105006,-1.33095,9.45405,0.015262499,0.7266875,-1.392875
1692598817475,0.95100003,-1.2709501,8.644951,0.041249998,0.528275,-1.1160874
1692598817504,0.81195,-1.35195,8.20905,0.0812625,0.12925,-0.52965
1692598817535,1.0339501,-1.9579501,9.31995,0.0952875,-0.0119624995,-0.30745
1692598817565,0.89595,-2.058,9.82005,0.075075,-0.190025,0.004675
1692598817591,0.71400005,-1.8880501,9.241051,0.02805,-0.227975,0.0763125
1692598817619,0.58695,-1.8790501,9.30105,-0.0831875,-0.2123,0.0482625
1692598817650,0.41400003,-1.728,9.97605,-0.115775,-0.1722875,-0.013475
1692598817680,0.68505,-1.7950501,9.813001,-0.12925,-0.0565125,-0.15125
1692598817710,1.128,-1.692,9.66705,-0.113437496,0.0045375,-0.21285
1692598817747,1.30005,-1.6180501,9.54705,-0.0570625,0.029975,-0.1808125
1692598817782,1.5970501,-1.8550501,10.048051,-4.125E-4,-0.10505,0.0312125
1692598817816,1.35,-1.67805,9.9210005,0.0451,-0.2602875,0.2366375
1692598817847,1.0540501,-1.3780501,9.283951,0.058575,-0.3223,0.3389375
1692598817879,1.16805,-1.3450501,10.08405,0.07755,-0.3480125,0.42845
1692598817911,0.86205006,-1.2280501,9.604951,0.0928125,-0.3040125,0.3796375
1692598817941,0.81900007,-1.266,8.98305,0.13145,-0.1588125,0.1216875
1692598817971,1.12995,-1.8379501,10.773001,0.1452,-0.083875,-0.009625
1692598818001,1.03005,-1.8330001,11.362051,0.137775,-0.0037125,-0.01815
1692598818038,1.542,-1.5439501,9.825001,0.1109625,-9.625E-4,0.080575
1692598818065,1.9219501,-1.71105,10.965,0.0518375,-0.022824999,0.1958
1692598818097,1.5660001,-1.5600001,11.668051,0.0218625,-0.108899996,0.1428625
1692598818127,1.3980001,-1.43295,11.118001,0.0254375,-0.1618375,0.121825
1692598818161,1.3909501,-2.35995,11.497951,0.0609125,-0.1815,0.1208625
1692598818182,1.2400501,-2.946,13.236001,0.0738375,-0.16775,0.1791625
1692598818219,1.8510001,-2.83095,12.496051,0.0614625,-0.15853749,0.282425
1692598818251,1.7020501,-1.5319501,8.94705,-0.0603625,-0.122237496,0.42625
1692598818277,1.197,-1.3230001,8.31495,-0.14575,-0.1376375,0.447975
1692598818310,0.67095006,-1.5079501,8.20695,-0.1233375,-0.1764125,0.4349125
1692598818343,0.855,-1.5840001,7.8930006,-0.027224999,-0.16335,0.3249125
1692598818375,1.3120501,-1.8019501,8.431951,-0.0078375,-0.091437496,0.2212375
1692598818405,0.49605003,-1.4430001,8.33205,-0.0526625,0.0631125,-0.0719125
1692598818437,0.29205,-1.27995,8.154,-0.0804375,0.1122,-0.21395
1692598818468,0.33795002,-1.39995,7.49595,-0.081125,0.21367499,-0.419375
1692598818500,0.010050001,-1.35405,7.24695,-0.064625,0.3427875,-0.60513747
1692598818530,-0.43905002,-1.6150501,9.186001,-0.0726,0.3812875,-0.6752625
1692598818562,-1.0570501,-1.6699501,10.11705,-0.1065625,0.4948625,-0.892925
1692598818592,-1.059,-1.4959501,9.373051,-0.1166,0.62755,-1.1215875
1692598818624,-1.00605,-1.419,8.911051,-0.1128875,0.79365,-1.3902625
1692598818653,-1.2220501,-1.7490001,10.10505,-0.0603625,1.0429375,-1.7692125
1692598818688,-1.2220501,-2.11095,10.60095,0.007975,1.0555875,-1.753675
1692598818717,-0.72900003,-2.19195,9.871051,0.0292875,0.9865625,-1.6335
1692598818748,-1.1190001,-2.058,9.27,0.0081124995,0.9216625,-1.5598
1692598818779,-1.4950501,-2.0629501,9.559051,-0.0829125,0.7085375,-1.260325
1692598818808,-1.04505,-2.29305,9.052051,-0.117837496,0.6153125,-1.065075
1692598818840,-0.85305005,-2.23095,8.75805,-0.143,0.511775,-0.73205
1692598818868,-0.89100003,-2.07495,8.03205,-0.154275,0.45993748,-0.59785
1692598818894,-1.014,-2.25495,8.533051,-0.172425,0.3861,-0.46585
1692598818924,-1.6140001,-2.4169502,9.208051,-0.20927499,0.2380125,-0.231
1692598818952,-1.44,-2.7480001,10.30605,-0.2190375,0.2000625,-0.1425875
1692598818982,-1.3440001,-2.7880502,10.225051,-0.2121625,0.2239875,-0.0952875
1692598819010,-1.00905,-2.661,10.515,-0.199375,0.2451625,-0.123475
1692598819040,-0.9990001,-2.5489502,10.428,-0.172425,0.2003375,-0.1266375
1692598819068,-1.03995,-2.45295,10.33005,-0.150425,0.1373625,-0.0746625
1692598819098,-0.95100003,-2.3770502,11.69505,-0.104225,-0.034925,0.16335
1692598819128,-0.40995002,-2.32605,11.685,-0.087037496,-0.11055,0.2957625
1692598819162,-0.08205,-2.0680501,10.95495,-0.0259875,-0.2501125,0.5649875
1692598819195,0.18705001,-1.9120501,10.585951,0.0295625,-0.49445,1.0698875
1692598819224,0.33495003,-1.6489501,10.696051,0.0451,-0.6131125,1.3096875
1692598819257,0.22500001,-1.36395,10.27305,0.0820875,-0.7387875,1.5255625
1692598819282,0.0049500004,-1.266,10.09095,0.1079375,-0.76669997,1.554575
1692598819314,-0.058050003,-1.13205,10.000051,0.1417625,-0.7748125,1.5675
1692598819346,-0.48195,-0.90705,9.535951,0.2190375,-0.69313747,1.5054874
1692598819381,-0.38595003,-1.041,8.42205,0.282975,-0.4774,1.226225
1692598819408,-0.48195,-1.2540001,9.118951,0.2993375,-0.34925,1.0297375
1692598819438,-0.14205001,-1.572,9.591001,0.270875,-0.145475,0.695475
1692598819468,-0.06105,-1.70895,9.262951,0.227425,-0.093225,0.6105
1692598819500,-0.10395,-1.881,9.379951,0.10285,-0.0875875,0.59785
1692598819532,-0.50595003,-1.8360001,9.483001,0.034649998,-0.1153625,0.6329125
1692598819561,-0.42000002,-1.81605,9.460951,-0.0829125,-0.1595,0.6909375
1692598819593,0.034050003,-1.9699501,10.323001,-0.1183875,-0.14135,0.664125
1692598819622,0.17505,-1.55295,10.000051,-0.14025,-0.0705375,0.5520625
1692598819647,-0.19005,-1.06005,9.253051,-0.1368125,-0.0903375,0.5812125
1692598819676,-0.054,-0.93795,9.13305,-0.11825,-0.1486375,0.66825
1692598819707,-0.03705,-0.99300003,10.12905,-0.00495,-0.2176625,0.6950625
1692598819737,-0.46995002,-0.78195006,9.81795,0.077275,-0.1945625,0.56155
1692598819770,0.29700002,-0.91395,9.02595,0.214225,-0.1148125,0.242
1692598819803,-0.79605,-0.92100006,10.26105,0.27445,-0.0716375,0.121
1692598819834,-0.85800004,-0.87600005,10.6390505,0.275275,-0.0589875,0.1104125
1692598819865,-0.80505,-0.72,10.000051,0.2545125,0.0562375,-0.04455
1692598819897,-0.882,-0.81105006,11.59395,0.2572625,0.230725,-0.3097875
1692598819923,-1.2720001,-1.0189501,12.1039505,0.26427498,0.274175,-0.376475
1692598819954,-1.023,-1.09395,10.972051,0.2558875,0.30635,-0.4565
1692598819987,-0.48900002,-1.6180501,11.496,0.2299,0.3227125,-0.5201625
1692598820015,-1.1020501,-2.11095,11.841001,0.1258125,0.2985125,-0.4830375
1692598820049,-2.5810502,-2.154,12.1039505,0.042075,0.2321,-0.342375
1692598820078,-1.3750501,-2.39805,12.25695,-0.1408,0.2101,-0.2671625
1692598820107,-0.82395005,-1.98405,10.894951,-0.198,0.3036,-0.441375
1692598820139,-1.5330001,-0.98100007,8.81505,-0.2281125,0.4057625,-0.7885625
1692598820168,-1.7149501,-0.744,9.126,-0.210375,0.372625,-0.857725
1692598820194,-1.1839501,-0.96000004,9.391951,-0.1551,0.34925,-0.9299125
1692598820228,-1.2049501,-0.90000004,8.08695,0.041525,0.3972375,-1.1149875
1692598820261,-1.3939501,-0.89505005,7.3120503,0.122237496,0.39627498,-1.1072875
1692598820294,-1.27695,-1.5079501,8.580001,0.183425,0.3141875,-0.9200125
1692598820321,-1.2,-1.575,9.02295,0.157575,0.2877875,-0.8490625
1692598820349,-1.19295,-1.4070001,8.875051,0.157575,0.2877875,-0.8490625
1692598820386,-1.7820001,-0.68700004,8.487,0.0363,0.23595,-0.844525
1692598820409,-1.866,-0.66795003,9.375,0.052525,0.22453749,-0.8064375
1692598820445,-1.251,-0.342,9.294001,0.17325,0.25135,-0.7184375
1692598820478,-0.74505,0.0019500001,8.667001,0.271425,0.21367499,-0.5462875
1692598820502,-0.609,0.09,8.55405,0.31239998,0.142175,-0.4076875
1692598820533,-1.026,0.23895001,9.141001,0.3579125,0.058849998,-0.2553375
1692598820560,-0.88905007,0.28395,8.764951,0.44385,-0.0702625,-8.25E-4
1692598820595,-1.059,0.057000004,8.916,0.472725,-0.1079375,0.0738375
1692598820617,-0.53205,-0.34695002,8.752951,0.486475,-0.132825,0.1172875
1692598820656,-0.16095,-0.13095,7.31895,0.432575,-0.159775,0.15125
1692598820683,0.441,-0.52605003,7.12305,0.3509,-0.1848,0.18493749
1692598820714,1.0489501,-1.47405,8.17095,0.137775,-0.294525,0.2985125
1692598820748,1.161,-1.8829501,9.588,-0.07975,-0.4866125,0.454025
1692598820776,2.2120502,-2.013,10.134001,-0.2292125,-0.6312625,0.642675
1692598820808,2.6119502,-1.5409501,8.6310005,-0.5163125,-0.94105,1.1790625
1692598820840,2.66205,-1.4430001,9.562051,-0.5498625,-1.2120625,1.7336
1692598820869,1.4599501,-1.041,11.13,-0.4717625,-1.32935,1.9888
1692598820898,2.2699502,-1.0669501,11.149051,-0.240625,-1.3442,2.08395
1692598820932,1.8700501,-0.84705,10.65795,-0.12773749,-1.192675,1.7912124
1692598820965,1.59195,-1.4170501,12.25695,0.02695,-0.7871875,0.9299125
1692598820994,0.83595,-1.7260501,13.303051,0.060775,-0.605825,0.5564625
1692598821024,1.33095,-1.5990001,12.034051,0.039325,-0.2574,-0.0133375
1692598821057,1.4940001,-1.2760501,11.235001,-0.0097624995,-0.0966625,-0.1942875
1692598821094,0.84105,-0.75105006,10.38,-0.10615,0.1005125,-0.4082375
1692598821122,1.1590501,-1.0390501,10.486051,-0.1076625,0.1370875,-0.617925
1692598821148,0.97695005,-0.98295003,10.27995,-0.07755,0.1590875,-0.7403
1692598821182,0.92700005,-1.24905,10.31805,-0.030524999,0.181775,-0.8448
1692598821209,0.56505,-1.0030501,10.08405,-0.025575,0.1727,-0.80685
1692598821245,0.83805007,-1.1920501,8.478001,-0.0551375,0.183975,-0.7503375
1692598821266,1.00995,-1.3759501,8.3890505,-0.0807125,0.203225,-0.7533625
1692598821297,0.65895003,-1.29495,8.805,-0.10395,0.2110625,-0.7332875
1692598821331,1.365,-1.6350001,9.981001,-0.14355,0.159775,-0.5561875
1692598821361,1.2589501,-1.455,9.526051,-0.1692625,0.1095875,-0.37015
1692598821394,1.212,-1.1530501,9.53295,-0.1480875,-0.001375,-0.0235125
1692598821427,0.80895007,-1.0390501,9.732,-0.1145375,-0.0738375,0.181775
1692598821461,0.35700002,-1.1080501,10.431001,-0.0221375,-0.10065,0.30085
1692598821487,0.37605003,-1.02405,10.761001,0.015675,-0.044,0.2068
1692598821520,0.84795004,-0.95205003,10.515,0.0543125,0.1533125,-0.1593625
1692598821546,1.128,-0.897,10.540951,0.066825,0.230725,-0.330825
1692598821574,1.71405,-0.82305,9.741,0.082225,0.253275,-0.4151125
1692598821607,2.09205,-0.933,9.255,0.1276,0.0972125,-0.1904375
1692598821640,2.0640001,-1.3570501,9.399,0.177375,-0.21133749,0.3872
1692598821671,2.39895,-1.70595,10.041,0.18205,-0.3477375,0.6604125
1692598821706,2.08995,-1.35195,10.60095,0.115225,-0.520025,1.029325
1692598821740,2.049,-0.91905004,9.744,0.0438625,-0.5718625,1.2453375
1692598821769,1.6519501,-0.85395,10.30395,0.0457875,-0.5506875,1.254275
1692598821799,1.7689501,-1.1080501,11.57505,0.0881375,-0.4096125,0.8903125
1692598821830,0.52005005,-1.3399501,12.06795,0.1056,-0.3075875,0.5996375
1692598821860,1.29495,-1.9410001,14.754001,0.0851125,-0.0510125,0.0218625
1692598821892,0.41205,-0.177,12.019951,0.032175,0.113575,-0.2880625
1692598821923,1.6620001,0.41595003,8.563951,-0.0815375,0.41799998,-0.8160625
1692598821949,1.2210001,0.43500003,7.7520003,-0.053075,0.47079998,-0.9119
1692598821983,0.37095,-0.15495001,9.559051,0.1892,0.3477375,-0.7467625
1692598822010,0.42405003,-0.52395004,10.234051,0.1892,0.3477375,-0.7467625
1692598822044,1.3960501,-1.3930501,8.98995,0.317625,0.194425,-0.4731375
1692598822077,1.59195,-1.0720501,8.99205,0.066825,0.180675,-0.40865
1692598822111,2.2050002,-1.4929501,8.973001,-0.0592625,0.09515,-0.250525
1692598822136,1.9249501,-1.52205,8.166,-0.12979999,-0.0221375,-0.03135
1692598822174,2.2480502,-1.5480001,8.3220005,-0.1588125,-0.24213749,0.4225375
1692598822204,0.46695003,-0.402,7.6830006,-0.1896125,-0.43353748,0.8300875
1692598822233,1.0320001,-0.061950002,7.21395,-0.1896125,-0.477675,0.935275
1692598822266,2.2480502,-0.66,8.596951,-0.0858,-0.26221249,0.5886375
1692598822297,-0.54705,-0.19605,9.265051,0.085525,-0.0363,0.16225
1692598822328,-0.13305001,-1.51005,9.13605,0.1309,-0.0017875,0.0699875
1692598822357,-0.62595004,-1.9050001,9.62895,0.1467125,0.0969375,-0.09735
1692598822392,-0.75705004,-2.05605,10.960051,0.0506,0.5270375,-0.6175125
1692598822423,-0.91995007,-1.3930501,9.68595,-0.257125,0.8930625,-0.9812
1692598822454,-0.26895002,-1.1580001,7.9290004,-0.3656125,0.981475,-1.1319
1692598822479,-0.58695,-1.1179501,8.776951,-0.347875,0.9519125,-1.24355
1692598822516,-1.0900501,-1.149,8.533051,-0.278025,0.8402625,-1.1130625
1692598822547,-1.26705,-0.96405005,7.22805,-0.1552375,0.6260375,-0.764775
1692598822578,-1.674,-1.12905,7.6920004,-0.113575,0.6128375,-0.7404375
1692598822608,-1.91805,-1.8720001,10.45695,-0.061325,0.70125,-0.9180875
1692598822640,-2.3370001,-2.12295,10.078951,-0.051425,0.7568,-1.0054
1692598822672,-2.29905,-1.9740001,10.593,-0.094325,0.8430125,-1.109625
1692598822704,-1.3630501,-2.4390001,12.427051,-0.148775,0.90021247,-1.227875
1692598822735,-0.99405,-1.7179501,11.002951,-0.1406625,0.8787625,-1.2233375
1692598822764,-1.0489501,-1.074,9.966001,-0.1368125,0.55165,-0.75515
1692598822799,-0.55605,-0.93600005,10.75905,-0.1122,0.0999625,0.1013375
1692598822825,0.10305001,-1.146,11.166,-0.043449998,-0.0383625,0.439175
1692598822857,-0.32205,-1.04595,11.212951,0.037675,-0.1395625,0.6956125
1692598822890,-0.57105005,-1.47195,11.977051,0.11495,-0.374275,1.1298375
1692598822922,-0.063,-1.8550501,12.927001,0.092675,-0.51425,1.348325
1692598822951,-0.19305001,-0.84900004,10.58205,0.0611875,-0.518375,1.402225
1692598822984,-0.90300006,-0.012,8.14005,-0.014162499,-0.5435375,1.5708
1692598823015,-0.72405005,-0.74205005,9.45705,0.0374,-0.47245,1.5048
1692598823045,-0.564,-1.09605,9.865951,0.1122,-0.354475,1.3025374
1692598823078,-0.84405005,-1.0530001,9.17895,0.176,-0.1340625,0.8603375
1692598823099,-0.97305006,-0.79200006,9.27705,0.1332375,-0.087037496,0.749925
1692598823139,-1.4970001,-0.30105,8.83395,0.0259875,-0.0444125,0.67485
1692598823171,-2.13105,0.022950001,8.122951,0.02475,0.0072875,0.5605875
1692598823203,-1.7719501,-0.68205005,9.20505,0.1694,0.2341625,-0.0548625
1692598823233,-1.4280001,-1.062,10.431001,0.326425,0.4851,-0.6760875
1692598823261,-1.0159501,-1.149,10.543051,0.31625,0.5231875,-0.748825
1692598823293,-0.87000006,-0.90195006,9.562051,0.2435125,0.4767125,-0.656975
1692598823326,-0.915,-0.64605004,9.873,0.0543125,0.2226125,-0.2432375
1692598823357,-0.75495005,-0.30600002,9.945001,-0.0413875,-0.0045375,0.10065
1692598823387,-1.06605,0.093,9.693001,-0.0424875,-0.075075,0.2173875
1692598823420,-1.04505,0.19995001,9.567,-0.0116875,-0.1232,0.3070375
1692598823446,-0.44400004,-0.44295,10.77105,0.1161875,-0.1496,0.381425
1692598823480,-1.36995,-0.25605002,10.4740505,0.214775,-0.132,0.32793748
1692598823511,-0.87495005,-0.40395,10.431001,0.21175,-0.1408,0.2891625
1692598823543,-0.66405004,-0.62895006,10.926001,0.18259999,-0.143,0.2341625
1692598823571,-1.6360501,-0.58395004,11.22105,0.1034,-0.1153625,0.1186625
1692598823602,-1.1209501,-0.83295006,11.395051,0.0303875,-0.092125,0.0213125
1692598823634,-1.2390001,-0.99105006,11.347051,0.0116875,-0.0416625,-0.1123375
1692598823668,-2.02095,-1.644,10.57905,-0.0226875,0.051975,-0.35585
1692598823699,-1.7340001,-1.7370001,11.484,-0.085525,0.119075,-0.5163125
1692598823725,-0.432,-1.35405,10.905001,-0.1263625,0.1859,-0.68076247
1692598823783,-1.34595,-0.462,6.6270003,-0.18259999,0.2017125,-0.9332125
1692598823818,-1.2940501,-0.88305,8.092051,-0.064625,0.11165,-0.82362497
1692598823832,-0.95895004,-0.92805004,8.47995,-0.064625,0.11165,-0.82362497
1692598823854,-1.2270001,-0.98295003,8.23305,0.0015125,0.147675,-0.879725
1692598823879,-2.2369502,-1.13205,8.059051,0.047849998,0.2244,-0.9939875
1692598823908,-1.9969501,-1.6180501,9.226951,0.041249998,0.24035,-1.0187374
1692598823938,-1.8079501,-1.5600001,9.625951,0.0383625,0.2919125,-1.0984875
1692598823970,-1.12605,-0.96195006,8.13,0.019524999,0.4577375,-1.3024
1692598824004,-1.815,-0.62700003,8.607,-0.047849998,0.3966875,-1.1221375
1692598824023,-0.94395006,-1.1700001,9.942,-0.0394625,0.305525,-0.967175
1692598824064,-1.03995,-0.69405,9.262951,0.0254375,0.1007875,-0.61448747
1692598824095,-0.62595004,-0.40905002,8.755051,0.002475,-0.1876875,0.00165
1692598824125,-0.09195001,-0.45705003,8.973001,0.011275,-0.2943875,0.267575
1692598824161,0.46695003,-0.80895007,8.865001,0.1007875,-0.3839,0.52965
1692598824187,-0.15405001,-0.63600004,8.905951,0.1194875,-0.4497625,0.666875
1692598824218,0.17295001,-0.34005,9.871051,0.0683375,-0.6125625,0.95094997
1692598824252,-0.37905002,0.054,8.391001,0.0532125,-0.635525,0.9626375
1692598824282,0.855,-0.78495,7.9150505,0.104225,-0.56168747,0.7957125
1692598824308,1.3290001,-1.5510001,8.71395,0.130075,-0.52305,0.749925
1692598824348,0.47700003,-1.5990001,10.807051,0.0468875,-0.5698,0.8735375
1692598824376,1.4770501,-1.1200501,9.459001,-0.1871375,-0.7007,1.0514625
1692598824406,1.45095,-0.54795,9.085951,-0.2569875,-0.699325,1.002375
1692598824438,1.4749501,-0.54795,11.40495,-0.1997875,-0.6857125,0.93225
1692598824468,1.161,-0.42600003,12.465,-0.0969375,-0.71802497,1.0036125
1692598824498,1.7880001,-0.58905005,11.821051,0.126225,-0.6796625,0.99935
1692598824527,2.0400002,-0.63195,12.05805,0.20295,-0.57695,0.8482375
1692598824561,1.44105,-0.9480001,12.754951,0.2635875,-0.4109875,0.5770875
1692598824587,0.52005005,-0.95505005,12.616051,0.25547498,-0.3870625,0.5300625
1692598824619,0.25395,-0.77505004,10.699051,0.1654125,-0.280225,0.3375625
1692598824646,0.079050004,-0.58395004,9.526051,0.088825,-0.1546875,0.1148125
1692598824681,0.24900001,-0.73005,9.909,0.017324999,-0.01045,-0.144375
1692598824705,0.47205,-0.77805007,11.01,-0.028324999,0.115637496,-0.36987498
1692598824734,0.67095006,-0.61695004,9.53295,-0.05775,0.2407625,-0.6364875
1692598824769,0.67995006,-0.75600004,8.923051,-0.0603625,0.22055,-0.709775
1692598824802,0.63495004,-0.648,9.030001,-0.04235,0.134475,-0.5559125
1692598824833,0.84300005,-0.45705003,8.83395,-0.0407,0.0919875,-0.472175
1692598824866,1.35,-0.72,8.269051,-0.0405625,0.03795,-0.4299625
1692598824897,0.89100003,-0.84900004,8.49705,-0.0081124995,-0.0435875,-0.26125
1692598824928,0.21795002,-0.94005007,9.816001,2.75E-4,-0.1084875,-0.072875
1692598824956,0.43800002,-1.02195,10.017,-0.0122375,-0.1552375,0.0974875
1692598824988,0.651,-0.70305,9.21,-0.07425,-0.0886875,0.1329625
1692598825021,0.91200006,-0.72,9.804001,-0.0974875,0.056649998,-0.0229625
1692598825047,1.31895,-0.76995003,10.033051,-0.08195,0.0790625,-0.0462
1692598825074,1.79295,-0.86100006,10.309051,-0.055275,0.063525,-0.045649998
1692598825108,1.401,-0.65295005,10.339951,-0.0026125,-0.0620125,0.046475
1692598825135,1.6300501,-0.72705,10.420951,0.0187,-0.1527625,0.171875
1692598825170,1.4940001,-0.63900006,9.271951,0.0605,-0.282425,0.40713748
1692598825204,1.26405,-0.50205004,9.97395,0.0787875,-0.2875125,0.3471875
1692598825238,1.542,-0.96000004,10.053,0.0749375,-0.2523125,0.21835
1692598825261,1.91805,-0.86595005,10.701,0.0730125,-0.2387,0.242825
1692598825297,1.863,0.094950005,9.816001,0.0620125,-0.2316875,0.4208875
1692598825329,1.9339501,-0.58395004,8.99895,0.0724625,-0.2429625,0.4923875
1692598825355,0.24000001,-0.46395,11.155951,0.1568875,-0.2855875,0.52442497
1692598825387,0.74700004,-0.744,12.439051,0.17985,-0.2739,0.4813875
1692598825421,1.4940001,-0.025950002,10.60305,0.09515,-0.01485,0.05335
1692598825451,1.7670001,-0.097950004,10.486051,0.04015,0.1401125,-0.242
1692598825485,0.82095003,-0.016050002,10.42605,0.0259875,0.197725,-0.42061248
1692598825514,1.0849501,-0.67005,12.894001,0.1032625,0.0807125,-0.3894
1692598825546,1.7500501,-0.69600004,11.814,0.118525,0.09075,-0.3986125
1692598825575,1.4800501,-0.41400003,9.38895,0.07425,0.1436875,-0.4420625
1692598825608,1.6540501,-1.1010001,9.21195,0.0028875,0.0968,-0.2655125
1692598825638,0.975,-0.49995002,9.391951,-0.0160875,-0.0642125,0.1183875
1692598825660,2.35605,-0.80205005,8.81505,-0.0385,-0.1172875,0.2388375
1692598825694,0.702,-0.18195,6.14895,-0.0704,-0.1881,0.291225
1692598825723,0.55995005,-1.0339501,8.22105,-0.0719125,-0.2211,0.2583625
1692598825753,1.45095,-1.08405,7.96995,-0.0867625,-0.1574375,0.109175
1692598825782,2.0059502,-1.20105,8.7310505,-0.1183875,-0.065725,0.0534875
1692598825810,1.7860501,-1.35405,9.792001,-0.161975,-0.0122375,0.08195
1692598825837,0.333,-0.75795,8.71905,-0.203775,-0.0902,0.3157
1692598825867,-0.33900002,-0.77295005,7.45305,-0.194425,-0.1230625,0.36519998
1692598825896,-0.19305001,-1.503,8.36295,-0.18645,-0.0669625,0.27665
1692598825930,-1.41795,-1.4860501,9.483001,-0.19855,0.2941125,-0.2539625
1692598825962,-1.31805,-1.02705,7.4080505,-0.3073125,0.7497875,-0.9920625
1692598825989,-1.00905,-1.3090501,6.4759502,-0.37235,0.977625,-1.381875
1692598826020,-0.90300006,-2.12295,9.30795,-0.406175,1.1937749,-1.7540874
1692598826054,-1.4610001,-1.8790501,9.436951,-0.401225,1.148675,-1.70225
1692598826086,-1.5979501,-1.8739501,9.733951,-0.3933875,1.0239625,-1.551825
1692598826118,-2.4780002,-1.5319501,9.495001,-0.316525,0.98065,-1.4117125
1692598826149,-2.055,-1.67295,10.017,-0.2498375,0.9725375,-1.328525
1692598826179,-1.6140001,-1.8760501,9.63105,-0.0924,1.01145,-1.263625
1692598826213,-2.02395,-2.6209502,10.60095,-0.025575,0.99165,-1.2101375
1692598826241,-1.52295,-3.0199502,12.625951,-0.0023375,0.8105625,-1.0192875
1692598826274,-1.4779501,-2.42205,12.949051,-0.1309,0.554675,-0.7706875
1692598826304,-1.674,-1.23195,11.866951,-0.20185,0.37125,-0.5204375
1692598826333,-1.794,-0.78495,12.051001,-0.1876875,0.010725,0.15895
1692598826366,-1.3080001,-0.90705,12.622951,-0.07865,-0.078099996,0.428175
1692598826390,-1.1359501,-1.0189501,13.00905,0.0628375,-0.111375,0.595375
1692598826423,-0.24000001,-1.182,11.412001,0.26633748,-0.1808125,0.80685
1692598826458,-0.372,-1.17495,10.26105,0.2534125,-0.3504875,1.1345125
1692598826479,-0.07005,-1.35195,9.966001,0.2534125,-0.3504875,1.1345125
1692598826513,-0.21900001,-1.09395,9.45195,0.116325,-0.51535,1.4784
1692598826543,-0.59205,-0.52605003,8.118,-0.016224999,-0.5853375,1.621675
1692598826578,-0.17595,-0.24405001,7.3120503,-0.028324999,-0.5159,1.4179
1692598826612,-0.13005,-0.37305,8.39595,0.0165,-0.444675,1.263625
1692598826645,-0.29505002,-0.34695002,7.5610504,0.121275,-0.3568125,1.117875
1692598826671,-0.264,-0.82605004,8.889001,0.154,-0.351725,1.1614625
1692598826697,-0.52005005,-1.161,9.696,0.16775,-0.349525,1.2288375
1692598826726,-1.11405,-1.04295,9.76305,0.131175,-0.301125,1.2090375
1692598826752,-1.3440001,-0.82095003,9.86295,0.082225,-0.24419999,1.0881749
1692598826790,-1.27695,-0.837,10.522051,0.0083875,-0.0155375,0.5982625
1692598826819,-1.0830001,-0.924,10.354051,0.011825,0.121,0.306075
1692598826852,-1.28205,-0.76095,10.254001,0.045925,0.2666125,-0.023924999
1692598826884,-1.30095,-0.67695004,9.993,0.0506,0.243925,-0.0037125
1692598826909,-1.167,-0.57195,9.901951,0.0496375,0.2162875,0.026124999
1692598826933,-0.85605,-0.51705,9.732,0.0537625,0.1945625,0.0292875
1692598826960,-0.91095006,-0.21300001,9.579,0.065725,0.1772375,9.625E-4
1692598826992,-0.49395,0.109050006,8.75805,0.1172875,0.1276,-0.1199
1692598827021,-0.537,-0.24105,10.375951,0.205425,0.0517,-0.1912625
1692598827050,-0.15900001,-0.47805002,10.986,0.2457125,9.625E-4,-0.1403875
1692598827079,-0.29805002,-0.68700004,10.428,0.229625,-0.1346125,0.1216875
1692598827108,-0.48000002,-1.149,12.085051,0.1725625,-0.2118875,0.2552
1692598827141,-0.48495004,-1.4860501,13.54695,0.029975,-0.30635,0.341
1692598827174,-1.9729501,-1.1410501,11.91495,-0.047575,-0.2963125,0.28875
1692598827208,-1.61205,-1.39005,11.994,-0.185625,-0.183975,0.0837375
1692598827236,-1.641,-1.25205,11.941051,-0.2011625,0.0966625,-0.4087875
1692598827267,-2.46195,-0.48795003,10.333051,-0.17325,0.2327875,-0.6622
1692598827299,-1.46595,-0.54495,10.02105,-0.1362625,0.3188625,-0.854425
1692598827331,-1.2030001,-0.49995002,9.43995,-0.0033,0.427075,-1.1867625
1692598827364,-1.7719501,-0.18900001,8.17395,0.142175,0.4208875,-1.2370875
1692598827393,-1.84905,-0.411,8.037001,0.1793,0.3674,-1.1328624
1692598827421,-0.78405005,-0.97200006,8.443951,0.219725,0.33261248,-1.02685
1692598827454,-1.4470501,-0.81795,7.6249504,0.2151875,0.338525,-1.0208
1692598827488,-1.437,-0.93795,8.85795,0.125125,0.2745875,-0.880275
1692598827521,-0.94905007,-0.28005,7.1470504,0.0441375,0.22687499,-0.792
1692598827551,-0.83895004,-0.64605004,7.4719505,0.037125,0.2204125,-0.8001125
1692598827581,0.252,-1.2559501,10.842001,0.0562375,0.133375,-0.6215
1692598827610,-0.34800002,0.102000006,8.13795,0.0457875,0.0372625,-0.38885
1692598827636,-0.32205,0.744,7.4869504,-0.033,-0.2919125,0.23155
1692598827668,-1.1050501,1.0500001,8.157001,-0.007975,-0.418275,0.4357375
1692598827697,-0.915,1.0210501,7.9030504,0.1071125,-0.442475,0.4851
1692598827729,-0.92295,0.64605004,7.6780505,0.4587,-0.2858625,0.2979625
1692598827761,-0.27195,0.066,9.519,0.643225,-0.100925,0.055
1692598827790,-0.264,-0.11505,9.705001,0.62975,-0.051975,-0.0264
1692598827822,0.34305,-0.31605002,9.648001,0.3999875,-0.111375,0.0455125
1692598827854,0.55305004,-0.23700002,9.246,0.23485,-0.196625,0.2233
1692598827884,0.46695003,-0.24900001,9.724951,-0.028875,-0.3771625,0.6661875
1692598827915,0.675,-0.46395,9.946951,-0.14739999,-0.5044875,0.9439375
1692598827946,0.63705003,-0.42795002,10.266001,-0.16995,-0.5336375,0.99137497
1692598827976,0.47895002,-0.22500001,10.816051,-0.1815,-0.540925,0.984775
1692598828009,0.80205005,-0.22200002,10.953,-0.177925,-0.50105,0.8933375
1692598828037,0.65895003,0.17400001,11.24205,-0.1247125,-0.425425,0.8273375
1692598828065,0.81405,0.57405,10.536,-0.081125,-0.3872,0.7825125
1692598828096,1.2930001,0.16905001,11.166,0.0435875,-0.3224375,0.666325
1692598828132,0.80895007,-0.26505002,11.668051,0.1122,-0.3004375,0.6006
1692598828157,0.582,-0.21300001,11.6629505,0.1555125,-0.2902625,0.5399625
1692598828191,-0.09195001,-0.48795003,11.674951,0.1109625,-0.26235,0.39985
1692598828221,0.24000001,-0.06705,10.045051,-0.034925,-0.1500125,0.1012
1692598828249,0.0,0.21705002,10.1320505,-0.1032625,-0.061049998,-0.1023
1692598828277,0.120000005,0.13605,10.950001,-0.1120625,0.12705,-0.5292375
1692598828307,0.14205001,-0.14805001,11.035951,-0.0565125,0.177925,-0.6782875
1692598828338,0.62505,-0.24405001,9.552,-0.0053625,0.1915375,-0.76669997
1692598828372,1.45095,-0.01905,9.327001,0.0143,0.1412125,-0.781275
1692598828403,1.2229501,0.13605,9.538051,-0.008525,-0.0097624995,-0.4676375
1692598828437,0.52500004,0.624,8.55405,-0.0023375,-0.115225,-0.2398
1692598828465,1.28805,0.10005,8.53695,0.057475,-0.262075,0.0339625
1692598828491,1.2739501,-0.162,9.34395,0.0985875,-0.2685375,0.062425
1692598828514,0.77595,-0.17400001,9.543,0.118525,-0.26125,0.1266375
1692598828540,0.82605004,-0.15495001,9.79395,0.0749375,-0.2597375,0.12815
1692598828565,1.44105,-0.38295,9.684,0.015125,-0.23539999,0.0479875
1692598828600,1.8940501,-0.19605,8.96805,-0.077825,-0.17655,-0.1436875
1692598828625,1.4130001,0.14505,8.743051,-0.1057375,-0.19635,-0.108625
1692598828652,1.3120501,0.14295001,9.403951,-0.111237496,-0.252175,0.0097624995
1692598828680,1.4290501,-0.14595,10.14795,-0.0367125,-0.3322,0.18315
1692598828706,1.26195,-0.43095002,10.993051,0.0088,-0.3081375,0.1618375
1692598828734,0.9889501,-0.22005,11.568001,0.0286,-0.2541,0.1230625
1692598828762,0.85995007,0.24300002,10.894951,-0.012375,-0.1255375,0.130075
1692598828792,1.1040001,0.38205,11.137051,-0.039325,-0.0561,0.1034
1692598828818,1.2,0.066,11.836051,-0.0132,0.0581625,-0.10505
1692598828845,0.70905006,0.42105,11.986951,0.0352,0.087037496,-0.19415
1692598828872,0.90495,0.58605003,11.395051,0.094875,0.1117875,-0.245025
1692598828899,1.2430501,0.60195005,10.254001,0.099275,0.1230625,-0.2695
1692598828927,0.85695004,0.23595001,10.797001,0.115775,0.130075,-0.3012625
1692598828954,1.24995,-0.35595003,11.74005,0.1687125,0.1007875,-0.230725
1692598828982,1.2090001,-0.43305,11.467051,0.1522125,0.0697125,-0.1049125
1692598829017,1.9420501,-0.41400003,9.17595,0.0171875,0.004675,0.18053749
1692598829053,1.4440501,-0.70095,9.519,-0.0504625,-0.038775,0.30745
1692598829093,1.575,-0.92805004,10.564951,-0.143,-0.1588125,0.5303375
1692598829121,1.2910501,0.028050002,7.2330003,-0.2234375,-0.2044625,0.6417125
1692598829154,0.62295,-0.22500001,8.059051,-0.22893749,-0.2008875,0.68901247
1692598829179,2.38695,-1.5120001,9.40095,-0.1390125,-0.1931875,0.6188875
1692598829208,3.32505,-1.51005,9.75105,-0.0996875,-0.1722875,0.4742375
1692598829244,1.863,-0.105000004,7.977,-0.127875,-0.29425,0.7074375
1692598829276,1.8220501,0.040050004,7.7809505,-0.093775,-0.5718625,1.31065
1692598829303,0.522,-0.03795,8.53695,-0.02035,-0.5696625,1.20725
1692598829333,0.726,-0.75405,8.75805,0.1111,-0.3102,0.4731375
1692598829359,-0.42705002,-0.90705,10.017,0.106975,-0.1252625,0.104775
1692598829393,-0.72195005,-0.52395004,10.207951,-0.0763125,0.282975,-0.5042125
1692598829426,-0.717,-0.282,7.73505,-0.1953875,0.5201625,-0.84865
1692598829457,-0.36,-1.00995,8.767051,-0.2770625,0.91025,-1.489125
1692598829488,-1.30095,-0.93795,9.523951,-0.2446125,0.9636,-1.582075
1692598829511,-1.815,-0.67695004,8.68095,-0.2228875,0.94655,-1.549075
1692598829539,-1.6500001,-0.58395004,7.635,-0.24585,0.9504,-1.563375
1692598829574,-1.296,-1.26795,9.291,-0.2217875,0.68694997,-1.65
1692598829602,-1.9780501,-1.5010501,10.9810505,-0.136125,0.6989125,-1.59445
1692598829630,-2.3400002,-1.2589501,10.354051,-0.148775,0.7539125,-1.4243625
1692598829663,-2.11905,-0.80205005,9.471001,-0.2176625,0.7484125,-1.114575
1692598829691,-1.11405,-1.0030501,10.143001,-0.2041875,0.7706875,-1.061775
1692598829723,-1.131,-0.88500005,9.21195,-0.084425,0.7541875,-1.01695
1692598829750,-1.4610001,-0.79005,9.354,-0.0378125,0.6483125,-0.876975
1692598829786,-1.0180501,-1.43295,11.953051,-0.0279125,0.3262875,-0.344575
1692598829814,-1.2100501,-1.1149501,11.4529505,-0.0356125,0.202125,-0.099
1692598829843,-1.8370501,-0.91605,9.933001,-0.082775,0.0224125,0.3067625
1692598829872,-1.53495,-1.74495,11.60805,-0.109037496,-0.0639375,0.56787497
1692598829904,-1.8199501,-1.96695,14.365951,-0.0974875,-0.0391875,0.5432625
1692598829934,-1.9879501,-0.80595005,11.319,-0.09735,-0.0023375,0.45993748
1692598829962,-1.07805,-0.20595,8.463,-0.11825,0.0218625,0.395175
1692598829993,-1.5109501,-0.38700002,9.58605,-0.0867625,0.034925,0.4307875
1692598830023,-1.5259501,-0.86100006,9.579,0.0361625,0.0400125,0.6237
1692598830054,-1.60695,-1.2250501,10.09605,0.075075,0.0229625,0.7327375
1692598830084,-1.5190501,-1.27995,10.555051,0.053075,0.0286,0.7110125
1692598830109,-1.2940501,-0.76095,9.097051,-0.0028875,0.036849998,0.6259
1692598830145,-1.5259501,-0.45405003,7.9920006,-0.1155,0.0072875,0.5270375
1692598830173,-1.3099501,-0.84900004,9.196051,-0.08965,-0.0111375,0.4136
1692598830202,-1.593,-0.91395,9.63405,-0.0336875,0.0121,0.3059375
1692598830235,-2.115,-0.97605,9.403951,0.0116875,0.0419375,0.184525
1692598830266,-2.016,-0.90195006,9.435,0.02805,0.0837375,-0.0628375
1692598830294,-1.3750501,-1.1509501,9.64995,0.0279125,0.182325,-0.33935
1692598830325,-1.1400001,-1.1890501,9.741,0.0232375,0.223025,-0.3931125
1692598830359,-1.3080001,-1.18005,10.266001,-0.0543125,0.1159125,-0.1084875
1692598830380,-1.06095,-1.20105,10.656,-0.1117875,-4.125E-4,0.137775
1692598830414,-1.116,-0.58395004,9.613951,-0.1563375,-0.1076625,0.35035
1692598830447,-1.401,-0.21795002,9.229051,-0.1645875,-0.2365,0.5522
1692598830478,-1.75995,-0.36105,9.721951,-0.0254375,-0.2237125,0.4576
1692598830505,-1.8250501,-0.33195,10.275001,0.0801625,-0.16005,0.3117125
1692598830539,-0.87495005,-0.864,11.127001,0.230175,-0.0088,0.02475
1692598830564,-0.76905006,-0.75405,10.54605,0.2435125,0.022275,-0.0264
1692598830592,-0.31500003,-0.87795,10.309051,0.210375,-0.0078375,0.014025
1692598830617,-0.80805004,-1.2079501,12.018001,0.0644875,-0.18933749,0.301125
1692598830645,-1.21905,-1.48395,12.619051,-0.0050875,-0.2668875,0.451
1692598830673,-2.59605,-0.91395,10.854,-0.0979,-0.3108875,0.5006375
1692598830704,-1.5690001,-1.383,11.656051,-0.113025,-0.2366375,0.3194125
1692598830731,-1.3630501,-1.28505,11.379001,-0.1021625,-0.08745,0.020075
1692598830759,-2.9670002,-0.75405,9.50895,-0.0506,0.1857625,-0.490875
1692598830790,-2.4400501,-1.182,9.865951,-0.033825,0.22715,-0.5845125
1692598830823,-2.23005,-1.2280501,9.3490505,0.016775,0.329725,-0.7726125
1692598830851,-2.289,-1.1340001,9.057,0.027224999,0.3938,-0.81633747
1692598830875,-2.1030002,-1.35195,9.705001,0.0045375,0.4151125,-0.73865
1692598830902,-1.6789501,-1.1850001,8.82705,-0.06545,0.3815625,-0.48894998
1692598830931,-2.12895,-0.75405,8.398951,-0.0785125,0.3586,-0.437525
1692598830957,-2.124,-0.64605004,8.865001,-0.044825,0.2987875,-0.479875
1692598830987,-2.02095,-0.43095002,8.134951,0.017875,0.28861248,-0.5561875
1692598831017,-1.46595,-1.02705,9.118951,0.16293749,0.2904,-0.5886375
1692598831050,-1.1380501,-1.2400501,9.12405,0.1885125,0.2490125,-0.47025
1692598831086,-0.18105,-1.18005,8.941951,0.091299996,0.0424875,-0.0691625
1692598831120,0.09105001,-1.218,8.67405,-0.1079375,-0.268675,0.38005
1692598831149,-0.06795,-0.76095,8.691,-0.196625,-0.4527875,0.62645
1692598831182,-0.14205001,-0.49305,8.86095,-0.2608375,-0.62425,0.8633625
1692598831205,-0.058050003,-0.18405001,8.887051,-0.262625,-0.80396247,1.1644875
1692598831231,0.50100005,-0.22905001,7.86705,-0.1890625,-0.8058875,1.2046375
1692598831263,0.795,-0.56505,8.254951,0.0229625,-0.7275125,1.1199375
1692598831291,0.75900006,-1.062,9.17895,0.09955,-0.7088125,1.07525
1692598831324,0.73305005,-1.029,9.214951,0.1073875,-0.7673875,1.111825
1692598831359,0.37395,-0.55995005,8.154,-0.0094875,-0.7844375,1.106325
1692598831394,0.513,-0.957,9.106951,-0.0488125,-0.7431875,1.05215
1692598831423,0.30405003,-1.1770501,8.868,-0.039875,-0.589325,0.8914125
1692598831453,0.53205,-1.4770501,9.23595,-0.0323125,-0.5083375,0.819225
1692598831481,1.38405,-2.0989501,10.45695,-0.0845625,-0.389675,0.729575
1692598831511,1.59,-2.1010501,11.412001,-0.13695,-0.3570875,0.69629997
1692598831544,1.0510501,-1.0000501,10.71105,-0.24653749,-0.4167625,0.7486875
1692598831570,1.7500501,-0.78000003,10.408951,-0.262625,-0.478775,0.798325
1692598831603,1.779,-0.66,10.89,-0.1247125,-0.499125,0.7506125
1692598831631,1.3909501,-1.005,11.668051,-0.0017875,-0.489775,0.7294375
1692598831663,0.40005,-1.2540001,11.179951,0.1698125,-0.4807,0.7203625
1692598831695,0.82395005,-1.7329501,11.371051,0.1830125,-0.413325,0.6092625
1692598831727,0.94605005,-1.5700501,11.37405,0.0889625,-0.1524875,0.2371875
1692598831761,0.81195,-1.04595,10.287001,0.0132,-0.0471625,0.1225125
1692598831790,0.675,-0.59595,9.44205,-0.078375,0.044,0.063525
1692598831820,0.99405,-1.005,9.828,-0.0240625,0.0759,-0.0188375
1692598831850,0.18495001,-0.98595005,9.85095,0.0209,0.074525,-0.1032625
1692598831880,0.24405001,-1.2610501,10.36095,0.04455,0.0705375,-0.2187625
1692598831916,-0.48705003,-1.0309501,10.2630005,-0.0188375,0.202125,-0.6369
1692598831943,-0.372,-0.82995003,9.904051,-0.0477125,0.2776125,-0.7431875
1692598831976,0.072000004,-0.744,9.85095,-0.06545,0.362175,-0.888525
1692598832005,0.675,-0.93600005,9.552,-0.0353375,0.50875,-1.2711875
1692598832037,0.57195,-1.2349501,9.459001,0.001375,0.499125,-1.3113375
1692598832065,-0.22095,-1.20105,10.074,0.0312125,0.2872375,-0.8754625
1692598832095,-0.537,-0.97200006,9.909,0.0070125,0.1695375,-0.570625
1692598832129,-0.549,-0.79695004,9.715051,-0.0559625,0.147125,-0.4096125
1692598832161,-0.147,-0.53295004,9.088051,-0.0583,0.237325,-0.575575
1692598832191,0.25605002,-0.708,9.32205,0.00825,0.3834875,-0.8771125
1692598832216,0.50505,-1.1389501,10.404,0.0559625,0.3757875,-0.87945
1692598832243,0.9979501,-1.0510501,10.002001,0.10505,0.21835,-0.65395
1692598832275,1.3810501,-0.9480001,9.460951,0.0831875,0.100375,-0.4602125
1692598832306,1.338,-0.98805004,9.3820505,0.006875,-0.1804,0.0999625
1692598832339,1.9200001,-1.04595,9.859051,-0.0,-0.4525125,0.7731625
1692598832372,1.91805,-0.87105006,10.012051,0.016224999,-0.55,1.082125
1692598832399,1.7329501,-1.0890001,10.363951,0.0600875,-0.6936875,1.519375
1692598832425,1.314,-0.933,10.845,0.0845625,-0.728475,1.5734125
1692598832457,1.4130001,-0.13395001,10.43595,0.108625,-0.649,1.25675
1692598832485,0.80700004,0.105000004,7.7470503,0.1148125,-0.5424375,0.988075
1692598832517,0.29700002,-1.29495,12.142051,0.1368125,-0.4213,0.7134875
1692598832543,0.70905006,-1.335,13.332001,0.1934625,-0.18535,0.115775
1692598832572,0.79005,-0.522,11.311951,0.1595,-0.0517,-0.1739375
1692598832602,0.393,0.33900002,9.727051,-0.0,0.1750375,-0.52442497
1692598832637,2.0370002,-0.54495,9.519,-0.0182875,0.2198625,-0.62425
1692598832669,0.78300005,-1.36395,11.26395,0.1128875,0.208175,-0.7354875
1692598832704,1.212,-1.7350501,12.633,0.135025,0.050875,-0.404525
1692598832735,2.0710502,-0.30405003,8.578051,-0.058575,-0.0083875,-0.1384625
1692598832765,2.1450002,0.126,7.6540504,-0.1280125,-0.0108624995,-0.124575
1692598832798,2.13105,-0.53295004,9.250951,-0.0592625,-0.1964875,0.0418
1692598832829,1.7119501,-1.19895,8.575951,0.040975,-0.3216125,0.18425
1692598832860,1.29495,-0.85695004,7.0200005,0.122237496,-0.412225,0.3344
1692598832893,1.7839501,-0.83505005,8.52105,0.119625,-0.4475625,0.527175
1692598832925,2.0040002,-0.63405,9.009001,-0.0088,-0.3295875,0.4169
1692598832956,1.365,-0.26505002,7.5030003,-0.0515625,-0.2817375,0.3466375
1692598832983,-0.018000001,-0.13605,9.34605,-0.0499125,-0.2666125,0.2267375
1692598833013,-0.33405003,-0.009000001,8.89395,-0.0224125,-0.220825,0.099825
1692598833041,-0.42705002,-0.42105,8.79105,0.018975,0.1607375,-0.469975
1692598833073,-1.2430501,-1.14405,9.564,0.0286,0.4283125,-0.851125
1692598833103,-1.50705,-1.125,9.418051,-0.03025,0.8193625,-1.4174875
1692598833133,-2.08395,-0.48105,8.266951,-0.1304875,0.9524625,-1.6174124
1692598833164,-1.27005,-0.97905004,7.7980504,-0.2869625,1.15555,-1.96735
1692598833199,-1.1740501,-2.0770502,10.80405,-0.2286625,1.22265,-2.0625
1692598833228,-2.1409502,-2.0080502,11.115001,-0.2167,1.1523875,-1.9383374
1692598833256,-1.8900001,-1.59105,10.828051,-0.2589125,1.0294625,-1.754775
1692598833288,-1.026,-1.098,9.98295,-0.3532375,0.88275,-1.6028374
1692598833321,-1.35105,-0.66,8.568001,-0.3224375,0.8679,-1.554575
1692598833350,-0.49905002,-1.62705,10.58895,-0.1519375,0.7154125,-1.0247875
1692598833384,-1.4610001,-2.0389502,11.458051,-0.039325,0.403975,-0.3337125
1692598833412,-1.9039501,-1.4449501,9.21,-0.0446875,0.2451625,-0.1065625
1692598833442,-0.32205,-1.8520501,9.99495,-0.1159125,0.097625,0.0045375
1692598833474,-1.4440501,-1.74495,11.211,-0.142725,0.13585,-0.06765
1692598833505,-2.15805,-1.5169501,10.5720005,-0.1909875,0.1104125,0.01045
1692598833536,-1.57095,-1.7710501,11.685,-0.2044625,0.0473,0.16115
1692598833565,-1.014,-1.4170501,12.19995,-0.1705,0.0768625,0.3498
1692598833597,-1.3099501,-0.68205005,10.849951,-0.152075,0.0847,0.46048748
1692598833632,-1.3249501,-0.462,9.94005,-0.1087625,-0.0396,0.825
1692598833658,-1.5589501,-0.81600004,10.744051,-0.027224999,-0.07095,0.931425
1692598833690,-1.54305,-1.21605,10.962001,0.1859,0.006875,0.8190875
1692598833716,-2.1720002,-0.62205005,9.94995,0.1962125,0.025024999,0.6787
1692598833750,-0.90300006,-0.52905005,9.74895,0.1533125,0.0279125,0.617375
1692598833781,-1.095,-0.26805001,8.853001,0.120175,0.0655875,0.4995375
1692598833814,-1.641,-0.43800002,8.54205,0.119625,-0.0273625,0.6557375
1692598833844,-1.164,-1.2760501,9.765,0.1252625,-0.0759,0.6934125
1692598833874,-1.06605,-1.455,9.883051,0.13035,-0.080025,0.61325
1692598833908,-1.83,-1.02405,9.9210005,0.027775,-0.0523875,0.4214375
1692598833940,-1.8390001,-0.462,9.30795,-0.069299996,-0.0532125,0.4302375
1692598833970,-1.1520001,-0.29700002,8.62395,-0.1309,0.0144375,0.375375
1692598834000,-1.2739501,-0.56700003,9.093,0.0023375,0.106425,0.183425
1692598834032,-1.3099501,-1.1010001,10.64595,0.064625,0.0991375,0.16995
1692598834059,-1.107,-1.0860001,10.524,0.09185,0.064075,0.203775
1692598834095,-1.7700001,-0.24105,8.901,-0.0306625,-0.095699996,0.359975
1692598834123,-1.416,-0.282,8.49195,-0.049225,-0.11935,0.3386625
1692598834163,-0.39795002,-0.72,10.993051,0.0419375,-0.0493625,0.1486375
1692598834197,-1.7680501,0.030000001,9.81105,0.110275,-0.0688875,0.1832875
1692598834226,-1.9969501,-0.35895002,10.407001,0.1016125,-0.15125,0.2976875
1692598834257,-0.92700005,-1.4119501,12.619051,0.103125,-0.2013,0.345125
1692598834283,-2.57205,-0.68895006,10.917001,0.1175625,-0.1419,0.2036375
1692598834314,-3.015,-1.02195,10.6699505,0.0848375,-0.091025,0.117837496
1692598834345,-1.50195,-1.6369501,12.40095,0.0416625,0.1518,-0.342925
1692598834374,-1.7680501,-0.68205005,10.6050005,0.0485375,0.319275,-0.69313747
1692598834408,-2.466,0.061950002,8.205,-0.0031625,0.3729,-0.98395
1692598834439,-2.00895,-0.28500003,8.66895,-0.0072875,0.29741248,-0.970475
1692598834469,-0.71400005,-0.93105006,10.321051,0.1643125,0.2894375,-1.05435
1692598834496,-1.8030001,-0.24900001,9.32205,0.20019999,0.20075,-0.80245
1692598834529,-0.90105003,-0.55995005,10.243951,0.1189375,0.0540375,-0.4978875
1692598834563,-0.73800004,0.40095,8.700001,0.0763125,-0.0771375,-0.2017125
1692598834587,-1.047,0.90195006,7.3090506,0.1126125,-0.0886875,-0.1469875
1692598834613,-1.1839501,0.11895001,7.1899505,0.1445125,-0.1379125,-0.021175
1692598834647,-0.53205,-1.761,11.403001,0.2501125,-0.2030875,0.12155
1692598834673,-0.55605,-1.5799501,10.972051,0.2748625,-0.1783375,0.0306625
1692598834704,-0.61605,-1.0170001,9.27,0.198275,-0.17407499,-0.058575
1692598834733,-0.52995,-0.66795003,8.13,-0.132825,-0.27101249,-0.045925
1692598834762,-0.84405005,-0.18405001,7.7070003,-0.2558875,-0.31239998,-0.0160875
1692598834790,-0.86295,-0.71505004,8.500951,-0.219725,-0.27995,-0.0529375
1692598834821,-1.626,-0.897,10.45005,-0.095425,-0.1700875,-0.093775
1692598834860,-0.67395,-0.342,8.611951,-0.061049998,-0.093775,-0.0088
1692598834885,-0.64995,-0.201,8.427,-0.0627,-0.0831875,0.0105875
1692598834914,-0.17595,-0.51000005,9.418051,-0.0499125,-0.09185,0.0232375
1692598834942,0.052950002,-0.28695002,7.55595,0.011825,-0.14905,0.0787875
1692598834971,0.50505,-0.90195006,8.367001,0.037675,-0.1991,0.1225125
1692598835000,0.48405004,-1.2199501,8.334001,0.045649998,-0.3370125,0.2827
1692598835030,-0.13695,-1.2709501,10.227,0.0064625,-0.4137375,0.4153875
1692598835059,0.23700002,-1.125,10.27995,-0.164175,-0.5003625,0.74305
1692598835087,0.72105,-0.96405005,9.772051,-0.2344375,-0.4774,0.83325
1692598835118,1.4320501,-0.48795003,10.323001,-0.2586375,-0.436425,0.883575
1692598835147,1.386,-0.49800003,10.840051,-0.2168375,-0.4818,0.96525
1692598835175,1.47,-0.43095002,10.540951,-0.1373625,-0.5619625,1.1114125
1692598835204,1.7740501,-0.89295006,11.170051,0.0658625,-0.70675,1.4257375
1692598835232,1.70895,-0.83295006,10.870951,0.1359875,-0.733975,1.5114
1692598835263,0.80895007,-0.93600005,11.326051,0.168575,-0.720775,1.5211625
1692598835291,0.201,-0.97605,11.991,0.14575,-0.67553747,1.41405
1692598835319,0.20400001,-0.82095003,11.170051,0.1109625,-0.575575,1.2010624
1692598835351,0.112950005,-0.097950004,9.99705,0.0352,-0.2204125,0.5443625
1692598835379,-0.04695,0.117000006,9.394051,0.0180125,0.078925,-0.0672375
1692598835407,-0.16905001,-0.39900002,9.978001,0.0528,0.15853749,-0.27307498
1692598835434,-0.31005,-0.61200005,10.359,0.1054625,0.2132625,-0.4283125
1692598835463,-0.453,-0.47400004,9.682051,0.158675,0.2971375,-0.6802125
1692598835495,-0.12795001,-0.45405003,9.82005,0.089375,0.3645125,-0.8883875
1692598835517,0.052950002,-0.27,8.93505,0.0567875,0.38445,-0.935
1692598835550,0.14400001,-0.49305,8.82495,0.040425,0.3785375,-0.9450375
1692598835578,-0.006,-0.684,10.026,0.033275,0.3405875,-0.9403625
1692598835609,-0.147,-0.79200006,10.641001,0.0158125,0.221925,-0.8776625
1692598835637,0.11805001,-0.74700004,10.177051,-0.0290125,0.147675,-0.729025
1692598835666,0.07005,-0.591,9.792001,-0.053625,0.1276,-0.6364875
1692598835695,0.261,-0.531,9.909,-0.0715,0.102575,-0.5022875
1692598835723,0.34005,-0.52905005,9.769951,-0.0716375,0.0331375,-0.2195875
1692598835753,0.72105,-0.75600004,10.219951,-0.055,0.0015125,-0.167475
1692598835783,0.975,-0.78195006,10.29705,-0.026124999,-0.0713625,-0.102575
1692598835809,1.13505,-0.65805006,9.901951,-0.0264,-0.125125,-0.0221375
1692598835843,1.7380501,-0.92805004,10.15995,-0.0424875,-0.26221249,0.1659625
1692598835870,2.16195,-0.84495,9.859051,-0.0466125,-0.333025,0.2707375
1692598835899,2.061,-0.55695003,9.2029505,-0.0444125,-0.4109875,0.418825
1692598835927,1.83105,-0.54795,9.27495,-0.0125124995,-0.5982625,0.883025
1692598835953,1.24695,-0.95505005,9.898951,0.0594,-0.6989125,1.193225
1692598835982,1.2019501,-0.79200006,10.10805,0.0721875,-0.6692125,1.1408376
1692598836012,1.26195,-0.59805006,9.780001,0.0506,-0.5839625,0.9568625
1692598836041,1.1560501,-0.23895001,9.708,-0.0182875,-0.344025,0.4409625
1692598836072,0.35895002,-0.08295,10.078951,-0.0165,-0.2415875,0.2305875
1692598836101,0.24000001,-0.47400004,10.534051,0.058575,-0.054725,-0.1095875
1692598836125,0.53205,-0.58095,11.371051,0.089237496,0.0653125,-0.3444375
1692598836156,0.61800003,0.069000006,11.508,0.092125,0.19167499,-0.6100875
1692598836186,0.381,1.1149501,8.916,0.0598125,0.3389375,-0.9263375
1692598836215,0.89595,0.294,8.83395,0.082225,0.3433375,-0.9486125
1692598836244,2.69805,-1.4170501,12.10095,0.245025,0.27335,-0.9062625
1692598836274,1.8199501,-1.05795,12.396001,0.2316875,0.0523875,-0.5599
1692598836303,2.9539502,-1.2199501,10.6369505,0.09625,-0.115637496,-0.2294875
1692598836332,2.9329503,-0.59295005,10.062,-0.0405625,-0.253,0.0746625
1692598836360,2.1090002,-0.055050004,8.17605,-0.1249875,-0.3377,0.2957625
1692598836392,0.06705,-0.43995002,9.79605,-0.108625,-0.4937625,0.6953375
1692598836417,-0.384,-0.01905,9.918,0.05115,-0.5102625,0.821975
1692598836452,0.57495004,-0.045,8.71695,0.0793375,-0.3309625,0.529925
1692598836478,0.99405,-0.507,7.7520003,0.05995,-0.0683375,0.074525
1692598836506,0.53400004,-0.22500001,8.109,0.0295625,0.29273748,-0.4549875
1692598836537,2.8560002,0.03795,5.3830504,0.01485,0.2600125,-0.2277
1692598836565,1.1370001,-0.20595,6.6340504,0.01925,0.179025,-0.094325
1692598836593,0.28800002,-0.71295005,9.342,0.058025,0.051425,0.048675
1692598836621,-0.97800004,-1.2559501,10.668,0.1106875,-0.1777875,0.2343
1692598836653,0.462,-1.9290001,10.323001,0.0347875,-0.0996875,0.0743875
1692598836675,-0.066,-1.7370001,9.504001,-0.2838,0.331925,-0.5182375
1692598836708,-1.07595,-1.1029501,8.51805,-0.4376625,0.4824875,-0.688325
1692598836736,-1.4970001,-0.85905004,8.785951,-0.572275,0.6182,-0.87615
1692598836767,-0.69795,-2.08005,11.23005,-0.54202497,0.7129375,-1.0654875
1692598836800,-1.1520001,-1.65795,10.347,-0.4024625,0.9084625,-1.3886125
1692598836829,-2.091,-0.85905004,9.430051,-0.36313748,0.9235875,-1.3869625
1692598836857,-1.6810501,-0.82995003,8.03205,-0.2959,0.8988375,-1.345575
1692598836886,-2.0689502,-1.4770501,9.30795,-0.20735,0.9268875,-1.3938375
1692598836915,-2.5930502,-1.89795,11.299951,-0.100099996,0.9634625,-1.4419625
1692598836946,-2.7559502,-1.524,11.067,0.0061875,0.9796875,-1.4331625
1692598836974,-1.866,-1.419,9.535951,0.0037125,0.973225,-1.40745
1692598837001,-1.5810001,-1.6369501,11.106001,0.0034375,0.8993875,-1.2298
1692598837033,-2.8279502,-1.2559501,12.42195,-5.5E-4,0.79035,-1.00485
1692598837068,-1.6020001,-1.50495,12.051001,-0.0290125,0.485925,-0.3812875
1692598837094,-0.75495005,-1.89795,12.274051,-0.0364375,0.35365,-0.092125
1692598837122,-0.45105,-1.89795,11.934001,-0.077275,0.0834625,0.4478375
1692598837151,-0.43005002,-1.29495,10.030951,-0.1315875,-0.0946,0.725175
1692598837178,-0.669,-1.125,10.342051,-0.2464,-0.43614998,1.1639374
1692598837205,-0.61905,-1.0390501,10.29705,-0.2641375,-0.535975,1.3076249
1692598837233,-0.86505,-0.56700003,8.82495,-0.24475,-0.5754375,1.3971375
1692598837263,-0.231,-1.01505,9.568951,-0.126775,-0.512875,1.3398
1692598837293,-0.75495005,-1.04295,9.79905,-0.059675,-0.452925,1.2456125
1692598837321,-0.86295,-1.06005,9.523951,0.0034375,-0.394625,1.2062875
1692598837357,-0.52005005,-1.14405,9.555,0.003575,-0.3696,1.179475
1692598837383,-0.55905,-1.1509501,9.556951,0.0045375,-0.246675,0.89196247
1692598837412,-0.64005005,-1.08405,9.411,-6.875E-4,-0.1989625,0.75955
1692598837440,-1.059,-0.73200005,8.51595,-0.032725,-0.1837,0.71115
1692598837469,-1.0999501,-0.94500005,8.905951,-0.039325,-0.1659625,0.7018
1692598837498,-1.00905,-0.98295003,9.02595,-0.014575,-0.047575,0.5011875
1692598837534,-1.2739501,-0.91395,8.875051,0.001925,0.0204875,0.358875
1692598837552,-1.38195,-0.924,8.98995,0.012375,0.0726,0.242
1692598837584,-0.98505,-1.21305,10.198951,0.0273625,0.14739999,0.045649998
1692598837615,-1.0879501,-1.1010001,9.954,0.036575,0.1747625,-0.049225
1692598837644,-1.521,-0.67905,9.32205,0.0363,0.1639,-0.1573
1692598837673,-1.22895,-0.70605004,9.77505,0.0441375,0.14973749,-0.2145
1692598837702,-1.30095,-0.91905004,10.31295,0.1199,0.18425,-0.4068625
1692598837729,-1.64295,-1.0189501,11.509951,0.1574375,0.194975,-0.462
1692598837759,-0.94905007,-1.18005,12.02295,0.1670625,0.1593625,-0.4343625
1692598837786,-1.128,-1.0339501,13.252951,0.1480875,0.1362625,-0.3862375
1692598837817,-1.389,-0.55005,13.252951,0.1095875,0.050325,-0.234575
1692598837842,-1.15695,-0.531,12.066001,0.1159125,-0.0011,-0.1706375
1692598837873,-0.81495005,-1.8690001,12.372001,0.1406625,-0.0405625,-0.1199
1692598837902,-1.18605,-2.21895,12.051001,0.144375,-0.1062875,0.0187
1692598837932,-1.5160501,-1.8400501,10.830001,0.069299996,-0.131725,0.0677875
1692598837960,-1.04205,-1.43595,9.64305,-0.1670625,-0.1060125,-0.0397375
1692598837989,-0.94200003,-0.90000004,8.829,-0.2398,-0.055825,-0.1555125
1692598838017,-3.0649502,0.16005,8.920051,-0.2110625,0.0435875,-0.31501248
1692598838048,-3.3040502,1.416,8.54205,-0.1225125,0.103125,-0.4147
1692598838078,-0.63495004,1.335,8.439,0.267025,0.4431625,-0.9695125
1692598838107,-0.39795002,1.23705,8.398951,0.267025,0.4431625,-0.9695125
1692598838138,-0.051000003,-0.82305,9.253051,0.85676247,0.5377625,-0.994675
1692598838165,0.68505,-1.39995,9.825001,0.7932375,0.2726625,-0.5605875
1692598838192,0.75195,-0.45900002,6.7660503,0.614075,0.0039875,-0.16115
1692598838221,-0.19305001,0.291,5.136,0.111925,-0.4431625,0.4527875
1692598838252,-0.79800004,-0.34905002,9.564,-0.0587125,-0.596475,0.6985
1692598838280,-0.822,-0.51195,11.343,-0.054449998,-0.5589375,0.748825
1692598838309,-0.46095002,-0.109950006,10.3279505,0.002475,-0.4082375,0.5735125
1692598838339,-0.82695,1.1340001,6.6150002,0.0265375,-0.19965,0.30085
1692598838366,-0.90105003,0.69600004,8.03895,0.054725,-0.1714625,0.2732125
1692598838396,-0.24795002,-0.28905,11.27595,0.1332375,-0.1445125,0.2789875
1692598838423,-0.67800003,-0.16995001,9.825001,0.3130875,-0.06875,0.293975
1692598838453,-0.53505003,0.39900002,7.5870004,0.291225,-0.0655875,0.2875125
1692598838483,1.4320501,-0.53295004,6.57495,0.0906125,-0.103675,0.30621248
1692598838513,1.7809501,-0.162,11.524951,0.023924999,-0.113437496,0.3696
1692598838541,0.27105,-0.13905,9.562051,-0.0658625,-0.327525,0.7528125
1692598838570,1.2229501,0.022950001,10.75905,-0.1027125,-0.53405,1.04995
1692598838598,1.6060501,-0.12195001,10.275001,-0.1065625,-0.646525,1.156925
1692598838627,2.04495,-0.591,9.80595,-0.0836,-0.5894625,1.041425
1692598838656,1.1010001,-0.92100006,10.396951,-0.053075,-0.582725,1.013925
1692598838685,0.14595,0.021000002,11.460001,-0.055825,-0.6571125,1.04995
1692598838713,1.67295,0.24795002,10.18395,-0.101475,-0.61435,0.95425
1692598838742,1.8220501,0.624,7.86495,-0.097625,-0.3334375,0.5330875
1692598838771,1.7329501,0.078,9.769951,-0.0191125,-0.2547875,0.40315
1692598838802,1.3620001,-0.65295005,11.323951,0.1494625,-0.3641,0.497475
1692598838830,2.1379502,-1.0390501,11.842951,0.1744875,-0.4197875,0.5553625
1692598838858,1.6519501,-0.42795002,10.94505,0.0537625,-0.3755125,0.5897375
1692598838887,1.45605,-0.01905,10.225051,-0.0317625,-0.324225,0.6062375
1692598838918,-0.22095,0.42495003,10.67205,-0.084975,-0.253275,0.5093
1692598838946,-0.231,0.64095,10.704,-0.054725,-0.20253749,0.3210625
1692598838974,0.24900001,0.70305,10.408951,-0.01485,-0.0946,0.005225
1692598839005,0.48105,0.17400001,9.4129505,0.0614625,0.2336125,-0.812075
1692598839034,0.63495004,-0.30600002,10.47105,0.1271875,0.3634125,-1.17425
1692598839062,-0.063,0.16905001,10.15305,0.1164625,0.3317875,-1.0978
1692598839092,0.010050001,0.10005,10.909051,0.06765,0.2784375,-0.935275
1692598839121,0.80505,0.24105,8.911051,0.005225,0.2358125,-0.7924125
1692598839150,0.94605005,0.35805002,8.6640005,-0.0496375,0.2063875,-0.7662875
1692598839178,1.4629501,-0.060000002,9.220051,-0.0045375,0.1142625,-0.689975
1692598839206,1.40505,-0.18405001,9.47295,0.025575,0.0286,-0.5207125
1692598839237,1.4770501,-0.20295002,9.397051,0.038775,-0.0686125,-0.2875125
1692598839266,1.64505,-0.20595,8.956051,-0.0026125,-0.234575,0.161975
1692598839295,1.2,0.30795002,9.492001,-0.054449998,-0.3125375,0.32395
1692598839323,0.63495004,0.72705,9.21,-0.0567875,-0.329725,0.332475
1692598839353,0.40695003,0.33405003,9.8560505,0.026124999,-0.2475,0.185075
1692598839381,0.54105,0.12105001,10.219951,0.091025,-0.1373625,0.0081124995
1692598839411,0.12705001,0.33900002,10.708051,0.1304875,-0.0158125,-0.17325
1692598839440,0.132,0.26505002,9.871051,0.0906125,0.1736625,-0.3861
1692598839468,0.28305,0.33705002,9.361051,0.0543125,0.2407625,-0.4632375
1692598839499,-0.36495003,0.91395,9.865951,0.03135,0.31707498,-0.5666375
1692598839528,0.58005005,0.21000001,11.41695,0.0383625,0.323125,-0.5324
1692598839558,1.09695,0.30795002,11.280001,0.0721875,0.29975,-0.310475
1692598839586,0.43095002,0.53805,9.50205,0.073425,0.252175,-0.11275
1692598839614,-0.68100005,-0.75105006,12.05805,0.0556875,0.177375,0.1560625
1692598839645,-0.61395,-1.3590001,15.927001,-0.00935,0.1057375,0.5757125
1692598839673,0.0049500004,-1.6660501,15.228001,-0.0891,0.1695375,0.5572875
1692598839702,2.56905,-0.91905004,8.25,-0.35901248,0.3152875,0.429
1692598839730,2.12595,-0.141,7.3050003,-0.458975,0.2503875,0.6175125
1692598839759,2.9299502,-1.3090501,10.278001,-0.4230875,-0.2366375,1.5753375
1692598839788,3.10995,-1.1179501,10.96905,-0.3086875,-0.5225,2.05535
1692598839818,2.11395,-0.33705002,7.5150003,-0.1104125,-0.84947497,2.38865
1692598839846,1.389,-0.8880001,9.52095,-0.0540375,-0.8820625,2.2528
1692598839875,0.19395001,-0.57195,10.9140005,0.0077,-0.7794875,1.677225
1692598839903,-0.28095,0.042000003,9.15495,-0.0050875,-0.6109125,1.2868625
1692598839931,-0.63105005,0.21705002,8.458051,-0.0361625,-0.341,0.80808747
1692598839959,-0.19500001,-0.93105006,9.567,-0.0400125,0.262625,-0.25905
1692598839989,0.393,-1.8000001,10.728001,-0.011,0.4703875,-0.679525
1692598840019,-1.626,-0.54105,8.667001,-0.0842875,0.627825,-0.9997625
1692598840051,-1.2360001,0.13305001,6.32805,-0.1923625,0.6177875,-1.0011375
1692598840081,-1.45605,0.411,7.3120503,-0.2432375,0.721325,-1.3514875
1692598840109,-1.7010001,0.22905001,8.24505,-0.132825,0.8372375,-1.6456
1692598840137,-1.79595,0.030000001,7.5990005,0.0166375,0.924,-1.8313625
1692598840167,-0.777,-0.708,7.9600506,0.249975,0.99,-1.839475
1692598840195,-1.3920001,-0.60105,8.69295,0.2844875,0.9772125,-1.7428125
1692598840233,-2.09295,-0.57195,9.682051,0.2479125,0.9103875,-1.5850999
1692598840259,-2.6509502,-0.84900004,9.780001,0.0094875,0.616,-1.0492625
1692598840285,-2.6749501,-1.0189501,9.79605,-0.022,0.61765,-1.048025
1692598840313,-2.256,-1.6660501,10.225051,-0.0364375,0.6664625,-1.1638
1692598840341,-2.0670002,-1.7160001,10.225051,-0.0523875,0.7689,-1.41845
1692598840368,-2.22495,-1.2610501,11.316001,-0.09295,0.74855,-1.3862749
1692598840397,-1.8610501,-0.76305,11.41905,-0.1549625,0.6692125,-1.2574375
1692598840428,-3.1729503,0.10005,10.59105,-0.1926375,0.429,-0.9295
1692598840452,-2.19105,-0.70605004,11.41695,-0.120725,0.325325,-0.7715125
1692598840484,-1.26195,-1.0669501,11.89605,0.1342,0.2627625,-0.5479375
1692598840512,-1.2529501,-0.897,11.6320505,0.203225,0.2349875,-0.4184125
1692598840542,-1.9540501,-0.16005,10.206,0.0774125,-0.014025,0.10945
1692598840570,-1.7509501,-0.12195001,9.58605,-0.006875,-0.14795,0.3729
1692598840600,-1.2270001,-0.69405,10.704,-0.0070125,-0.1929125,0.526075
1692598840629,-1.2409501,-0.56205004,12.1060505,0.0262625,-0.1654125,0.5113625
1692598840658,-1.521,0.022950001,9.693001,0.01265,-0.2168375,0.6087125
1692598840685,-1.26705,0.15,9.088051,-0.0034375,-0.25959998,0.6881875
1692598840714,-0.90105003,-0.14295001,10.06005,0.0099,-0.264,0.7261375
1692598840743,-1.26705,-0.025950002,9.435,0.098175,-0.1859,0.687225
1692598840770,-1.4130001,-0.28500003,8.571,0.121825,-0.1687125,0.6914875
1692598840798,-0.98700005,-0.89505005,9.32505,0.1192125,-0.172425,0.712525
1692598840831,-0.97305006,-0.94305,10.390051,0.0702625,-0.13653749,0.6397875
1692598840860,-1.401,-0.29205,8.19495,-0.0922625,-0.1225125,0.618475
1692598840889,-1.7910001,-0.21000001,8.29605,-0.1764125,-0.14093749,0.6419875
1692598840916,-1.0849501,-0.531,9.729,-0.20019999,-0.1271875,0.5908375
1692598840945,-1.14495,-0.162,8.953951,-0.0983125,-0.0048125,0.3400375
1692598840975,-1.1689501,-0.294,8.73795,-0.0490875,0.0232375,0.2825625
1692598841003,-1.19505,-0.55305004,10.198951,-0.0072875,-0.0155375,0.2497
1692598841038,-1.5469501,-0.45195,9.361051,-0.0061875,-0.034925,0.214225
1692598841062,-1.8349501,-0.34695002,10.14795,-0.024475,-0.0347875,0.2278375
1692598841091,-2.06205,-0.18405001,11.311951,-0.036575,-0.011,0.179575
1692598841120,-3.051,-0.10005,9.901951,0.016224999,0.1252625,-0.2176625
1692598841153,-2.8279502,0.897,10.677,0.0754875,0.1816375,-0.4068625
1692598841186,-1.485,-0.16005,10.476001,0.2734875,0.2583625,-0.60775
1692598841213,-0.22095,-1.29495,8.478001,0.4060375,0.3122625,-0.7299875
1692598841241,0.94305,-1.7569501,11.053051,0.458425,0.2833875,-0.7803125
1692598841270,-0.46305,-0.44700003,10.73505,0.2660625,0.1148125,-0.530475
1692598841298,-2.3710501,1.2079501,8.889001,-0.0121,-0.143275,-0.130075
1692598841328,-1.19295,0.69795,10.339951,-0.26125,-0.504625,0.3086875
1692598841357,-0.92700005,-0.060000002,13.753051,-0.0983125,-0.4378,0.0672375
1692598841385,-1.07595,-0.933,12.87495,0.32793748,-0.1843875,-0.49513748
1692598841412,-0.65505004,-1.2250501,11.78295,0.346775,-0.17435,-0.4972
1692598841443,-1.4640001,0.47595003,8.31,0.027775,-0.2321,-0.3166625
1692598841474,-0.97305006,-0.057000004,8.169001,-0.1560625,-0.1728375,-0.280225
1692598841501,-1.047,-0.75105006,10.965,-0.098037496,-0.097625,-0.3227125
1692598841532,-0.87705004,-0.186,10.548,-0.0061875,-0.01705,-0.3810125
1692598841566,-2.18595,-0.28905,9.543,0.05555,0.0407,-0.3337125
1692598841592,-1.76505,-0.73005,9.670051,0.0259875,0.010725,-0.1863125
1692598841631,-0.054,-0.61005,9.559051,-0.036025,0.008525,-0.0424875
1692598841654,-0.27195,-0.49800003,7.695,-0.0614625,0.06875,-0.1808125
1692598841682,-0.28605002,-1.19895,8.808001,-0.1122,0.050875,-0.3372875
1692598841710,0.13905,-0.71505004,8.299951,-0.1398375,-0.0581625,-0.1904375
1692598841743,0.043050002,-1.074,10.057051,-0.2413125,-0.265375,0.2627625
1692598841771,-0.537,-0.94005007,10.440001,-0.2935625,-0.34265,0.5225
1692598841800,-0.39405003,-0.36405003,8.86995,-0.2968625,-0.4313375,0.9103875
1692598841829,-0.15405001,-0.055050004,8.779051,-0.2509375,-0.39627498,0.8765625
1692598841857,-0.094050005,0.00405,7.8960004,-0.090475,-0.2222,0.5149375
1692598841885,0.84300005,-0.186,7.80705,0.006875,-0.163075,0.374
1692598841914,0.84495,-0.68700004,8.592,0.14135,-0.1848,0.3444375
1692598841944,0.37605003,-0.95505005,10.372951,0.1401125,-0.2844875,0.4923875
1692598841972,-0.04695,-0.27495003,9.495001,0.08965,-0.410025,0.69629997
1692598842002,0.45000002,-0.049950004,9.078,-0.0507375,-0.4819375,0.81675
1692598842029,0.72795004,-0.21795002,9.375,-0.0650375,-0.4134625,0.6901125
1692598842058,0.69195,-0.31095,11.979001,0.036025,-0.3047,0.4824875
1692598842087,0.75195,-0.18405001,9.45405,0.086625,-0.30525,0.5231875
1692598842116,1.36695,-0.62205005,10.443001,0.1128875,-0.323125,0.644325
1692598842146,1.64205,-0.47805002,10.383,0.1203125,-0.3452625,0.8767
1692598842175,2.2480502,-0.36600003,10.44705,0.1023,-0.3738625,0.9510875
1692598842202,1.4800501,-0.15795001,9.64305,0.058849998,-0.5031125,1.0990375
1692598842234,1.70895,-0.35895002,10.210951,0.0669625,-0.562375,1.1565125
1692598842262,1.1230501,-0.47805002,10.231951,0.1247125,-0.56595,1.1143
1692598842291,0.74205005,-0.62700003,10.953,0.1337875,-0.5121875,1.0129625
1692598842319,0.82905006,-0.63600004,9.765,0.0600875,-0.313775,0.6477625
1692598842350,0.71400005,-0.37605003,9.528001,0.0044,-0.185625,0.4120875
1692598842378,0.69000006,-0.45000002,10.42605,-0.0353375,-0.071225,0.2072125
1692598842406,0.82605004,-0.78195006,11.307,-0.049225,0.0572,-0.014162499
1692598842437,0.558,-0.90405005,10.82295,-0.0496375,0.09075,-0.108625
1692598842465,0.47895002,-0.75600004,10.548,-0.1071125,0.1533125,-0.43395
1692598842495,0.41205,-0.92100006,10.519051,-0.1538625,0.18287499,-0.6037625
1692598842524,-0.24495001,-0.744,10.498051,-0.2091375,0.2270125,-0.7783875
1692598842551,0.25605002,-0.64395005,10.210951,-0.2123,0.236775,-0.7874625
1692598842580,1.4460001,-1.146,8.93505,-0.20955,0.2352625,-0.7607875
1692598842610,0.68700004,-0.61995006,9.79605,-0.20185,0.18645,-0.62315
1692598842639,-0.34305,-0.201,8.37495,-0.1628,0.1106875,-0.5600375
1692598842669,-0.043950003,-0.66,9.009001,-0.113299996,0.102025,-0.61448747
1692598842699,-0.42495003,-0.873,9.99495,-0.0144375,0.1967625,-0.82665
1692598842729,0.381,-1.16805,10.99995,-0.0042625,0.2649625,-0.894575
1692598842757,1.1560501,-1.2540001,9.259951,-0.02365,0.302775,-0.879175
1692598842787,0.052950002,-0.651,9.861,-0.109725,0.2352625,-0.6809
1692598842817,0.84795004,-0.80595005,9.52095,-0.1568875,0.0614625,-0.4222625
1692598842844,1.5010501,-1.0189501,9.96195,-0.133375,-0.0100375,-0.28765
1692598842874,1.51995,-0.67200005,9.361051,-0.0875875,-0.0583,-0.166375
1692598842901,1.3960501,-0.82305,9.5449505,0.00165,-0.1527625,0.0829125
1692598842931,2.23095,-1.28295,10.732051,0.0303875,-0.2223375,0.223025
1692598842962,1.51995,-0.64605004,9.744,0.0517,-0.3597,0.4785
1692598842990,1.9560001,-0.64395005,9.603001,0.0499125,-0.411675,0.6133875
1692598843019,1.3099501,-0.67005,9.703051,0.0768625,-0.4563625,0.832975
1692598843047,1.8100501,-1.05795,10.357051,0.099825,-0.44605,0.853325
1692598843080,1.2349501,-0.79905003,10.203,0.0875875,-0.3903625,0.7110125
1692598843106,1.6570501,-0.89505005,10.042951,0.053625,-0.34925,0.61435
1692598843134,1.3930501,-0.72,10.062,0.02365,-0.295625,0.5278625
1692598843165,1.6660501,-1.04595,10.062,0.006325,-0.1777875,0.3694625
1692598843195,1.5370501,-1.3399501,10.60305,0.0081124995,-0.1431375,0.32835
1692598843224,1.17795,-1.3260001,10.861951,-0.011275,-0.1189375,0.32381248
1692598843252,2.937,-1.7179501,12.208951,-0.048125,-0.09955,0.3102
1692598843281,-0.26205,0.22905001,12.02505,-0.1219625,-0.0565125,0.2374625
1692598843308,0.34005,0.31500003,10.299001,-0.1181125,-0.0319,0.13255
1692598843338,2.36505,-1.33095,8.98305,0.008525,0.113437496,-0.278575
1692598843364,0.003,-1.02195,10.311001,0.0952875,0.1782,-0.3815625
1692598843394,2.8630502,-2.7120001,12.925051,0.1370875,0.190025,-0.312675
1692598843423,2.76705,-1.13205,7.221,0.0407,0.131175,-0.0097624995
1692598843453,3.0550501,-1.9549501,7.77405,-0.01705,0.0356125,0.1318625
1692598843481,1.03695,-2.7210002,10.12905,-0.0594,-0.3760625,0.5751625
1692598843512,1.51995,-1.17495,9.460951,-0.1049125,-0.564575,0.79475
1692598843540,0.98700005,-0.44295,7.96995,-0.208175,-0.6150375,0.85415
1692598843568,0.88605005,0.507,7.9339504,-0.399025,-0.3289,0.382525
1692598843598,1.3980001,-0.033,9.591001,-0.2091375,0.0221375,-0.375925
1692598843626,1.8600001,-0.34905002,9.859051,-0.0408375,0.1516625,-0.6945125
1692598843657,0.87405,-0.62700003,8.950951,0.106837496,0.243375,-0.915475
1692598843684,-0.33600003,-1.1869501,8.929951,0.2286625,0.3014,-1.04665
1692598843713,-0.18495001,-1.146,9.363001,0.0790625,0.3865125,-1.1595374
1692598843741,-0.07005,-0.9480001,8.511001,-0.0507375,0.5102625,-1.3270125
1692598843775,-0.79305005,-1.1700001,8.06295,-0.164175,0.640475,-1.4975125
1692598843804,-0.60405004,-1.6990501,8.785951,-0.2773375,0.7935125,-1.6853375
1692598843832,-0.99000007,-1.3110001,9.049951,-0.305525,0.8490625,-1.7510625
1692598843861,-1.7220001,-0.93795,8.01105,-0.3433375,0.9343125,-1.7414374
1692598843888,-1.1520001,-0.85395,7.32105,-0.3353625,0.934175,-1.6174124
1692598843917,-1.11195,-1.6699501,8.46105,-0.2607,0.8746375,-1.2824625
1692598843944,-1.5589501,-2.21595,10.13895,-0.217525,0.84755,-1.1748
1692598843975,-2.21295,-1.71405,10.098001,-0.190575,0.8311875,-1.1363
1692598844004,-1.557,-1.96695,10.174951,-0.2151875,0.825825,-1.160225
1692598844032,-2.907,-1.7569501,11.059951,-0.223025,0.829675,-1.1572
1692598844062,-2.2150502,-1.8139501,11.72595,-0.1546875,0.799975,-1.04225
1692598844091,-2.163,-1.6009501,10.74705,-0.1010625,0.7766,-0.9557625
1692598844125,-1.3579501,-1.6819501,10.608001,-0.007975,0.699325,-0.687225
1692598844154,-1.3579501,-1.6110001,11.721001,0.02475,0.489225,-0.261525
1692598844182,-1.07805,-1.36395,11.376,0.02255,0.346775,-0.0617375
1692598844211,-1.30095,-0.9480001,10.387951,0.0097624995,0.1835625,0.1491875
1692598844240,-1.4110501,-0.957,10.213051,-0.007425,0.0155375,0.4008125
1692598844268,-1.53795,-1.6350001,12.159,-0.006325,-0.2066625,0.8855
1692598844298,-1.0020001,-1.6849501,12.55395,0.009075,-0.239525,1.02465
1692598844325,-1.026,-1.3039501,10.32495,-0.0276375,-0.274175,1.2098625
1692598844354,-0.34095,-1.2589501,9.339001,-0.07645,-0.31501248,1.3066624
1692598844385,-0.58995,-1.2229501,10.201051,-0.138875,-0.3909125,1.4306875
1692598844414,-1.1839501,-0.76995003,9.75105,-0.1491875,-0.411675,1.4568125
1692598844441,-0.69495004,-0.59805006,8.925,-0.125125,-0.4046625,1.3908125
1692598844470,-0.018000001,-0.79905003,8.4199505,-0.0792,-0.366575,1.2682999
1692598844499,-0.42195,-0.91395,8.920051,0.03025,-0.2937,1.0162625
1692598844528,-1.1020501,-0.91905004,9.721951,0.0539,-0.31075,1.0131
1692598844559,-0.46800002,-1.314,9.48795,0.033,-0.3796375,1.1719126
1692598844587,-0.07305,-1.3429501,10.155001,0.0132,-0.366025,1.1836
1692598844614,-0.52500004,-0.96900004,9.81795,-0.010725,-0.3273875,1.12365
1692598844644,-1.095,-0.261,9.17895,-0.0704,-0.2754125,0.9904125
1692598844673,-1.2240001,-0.33705002,9.327001,-0.07095,-0.2553375,0.95411247
1692598844701,-1.1689501,-0.31305,9.670051,0.05775,-0.111237496,0.727375
1692598844733,-1.21695,-0.49995002,10.01895,0.1447875,-0.003575,0.5570125
1692598844760,-0.70695,-0.92805004,10.79205,0.23815,0.1364,0.34759998
1692598844788,-0.75000006,-0.78705,10.275001,0.23485,0.1480875,0.297825
1692598844818,-0.45795003,-0.40695003,9.078,0.19635,0.1216875,0.2624875
1692598844850,-0.30705002,-0.48600003,9.114,0.0911625,0.0176,0.1783375
1692598844877,-0.10605001,-0.531,10.1320505,0.076175,-0.0699875,0.091575
1692598844907,-0.31695002,0.022950001,10.29405,0.086899996,-0.1142625,0.072325
1692598844934,0.16305001,0.291,10.074,0.100237496,-0.1566125,0.0504625
1692598844962,-0.042000003,0.22005,10.596001,0.1610125,-0.223025,0.0539
1692598844993,-1.31805,0.109050006,12.18795,0.2629,-0.289575,0.172425
1692598845020,-1.0489501,-0.33,12.25695,0.2968625,-0.2838,0.122099996
1692598845049,-0.441,-1.0000501,12.097051,0.306075,-0.210375,-0.0691625
1692598845078,-1.9210501,-1.17495,10.67205,0.221925,0.0353375,-0.5787375
1692598845106,-1.72395,-1.491,10.597951,0.1285625,0.13805,-0.7871875
1692598845136,-0.93900007,-1.5150001,10.573951,0.0259875,0.237325,-1.0217625
1692598845164,-1.713,-1.55295,10.030951,-0.1461625,0.41181248,-1.4227124
1692598845195,-2.87595,-0.97905004,9.828,-0.2154625,0.4365625,-1.4048375
1692598845224,-1.7560501,-0.28500003,10.387951,-0.2707375,0.4466,-1.2934625
1692598845253,-0.99705005,0.034950003,8.748,-0.2121625,0.5055875,-1.4452626
1692598845281,-1.6309501,0.23895001,7.68795,0.0363,0.551925,-1.6066875
1692598845309,-1.47105,-0.33705002,8.620951,0.1511125,0.45815,-1.37115
1692598845339,-1.0180501,-0.69105005,9.01395,0.238975,0.351725,-1.0840499
1692598845369,-1.0210501,-0.38700002,8.53995,0.3136375,0.26015,-0.8162
1692598845396,0.058050003,-0.61695004,8.488951,0.28393748,0.22013749,-0.744425
1692598845426,-0.75705004,-0.411,8.71395,0.1309,0.02585,-0.3785375
1692598845454,-0.97005004,-0.44295,8.79105,0.042625,-0.1263625,-0.0625625
1692598845483,-0.41505003,-0.9670501,10.26795,-0.0433125,-0.3205125,0.3823875
1692598845512,-0.19500001,-0.67905,8.99895,-0.0363,-0.3056625,0.38885
1692598845543,-0.14505,-0.30405003,9.0400505,-0.031075,-0.280775,0.3532375
1692598845571,-0.15405001,-0.072000004,9.085951,-0.048675,-0.315975,0.4096125
1692598845599,-0.28095,0.006,8.391001,-0.0339625,-0.37454998,0.540375
1692598845628,-0.24300002,-0.052050002,8.101951,0.012375,-0.3823875,0.572
1692598845658,-0.55905,-0.45195,8.41005,0.099275,-0.3518625,0.60885
1692598845684,-0.12105001,-0.69900006,8.571,0.11385,-0.30855,0.6290625
1692598845714,0.036000002,-0.54105,7.62795,0.09955,-0.251075,0.62755
1692598845743,-0.09,-0.84495,7.623,-0.00165,-0.18493749,0.599225
1692598845774,0.13005,-1.2589501,9.705001,-0.0583,-0.1978625,0.589875
1692598845802,0.18,-1.2400501,10.504951,-0.1106875,-0.21807499,0.5600375
1692598845831,0.795,-1.3810501,10.79895,-0.22893749,-0.243925,0.495
1692598845861,0.94095004,-1.3660501,9.901951,-0.3078625,-0.314875,0.545875
1692598845888,1.2570001,-1.5820501,10.857,-0.31625,-0.3771625,0.600325
1692598845918,1.2229501,-1.4260501,11.118001,-0.3155625,-0.4464625,0.66495
1692598845945,1.8409501,-1.11,11.218051,-0.2926,-0.5611375,0.768625
1692598845978,1.401,-0.47595003,10.6369505,-0.20845,-0.60307497,0.7698625
1692598846010,1.3120501,-0.54795,11.464951,-0.13805,-0.59894997,0.7425
1692598846035,1.245,-0.36600003,11.307,-0.046475,-0.5839625,0.7198125
1692598846061,0.726,-0.18900001,11.338051,0.1447875,-0.5072375,0.6846125
1692598846090,0.61305004,-0.26805001,10.43595,0.2116125,-0.43614998,0.6150375
1692598846120,0.40005,-0.56895,10.972051,0.26895,-0.2253625,0.2814625
1692598846151,0.24195,-0.411,10.5070505,0.262625,-0.10945,0.0829125
1692598846182,0.68505,-0.31800002,9.69795,0.2000625,0.0658625,-0.2182125
1692598846211,0.72105,-0.41595003,9.379951,0.162525,0.1155,-0.3152875
1692598846240,-0.147,-0.41400003,10.371,0.11825,0.1181125,-0.34814999
1692598846268,-0.18300001,-0.61200005,11.03205,0.1057375,0.098175,-0.309375
1692598846298,-0.039,-0.49800003,9.592951,0.0617375,0.177925,-0.3810125
1692598846328,-0.19005,-0.17400001,7.8739505,0.0319,0.2550625,-0.4852375
1692598846357,0.112950005,-0.30600002,8.06595,0.0075625,0.3067625,-0.59785
1692598846387,0.09105001,-0.90000004,9.247951,-0.0119624995,0.3133625,-0.8327
1692598846415,0.087000005,-0.93600005,9.46605,-0.0257125,0.2825625,-0.8903125
1692598846443,0.063,-0.76095,10.111951,-0.09515,0.2024,-0.836275
1692598846470,0.076950006,-0.64605004,9.89505,-0.13145,0.1788875,-0.81345
1692598846499,0.024,-0.41895002,9.96405,-0.1485,0.1667875,-0.87436247
1692598846529,-0.030000001,-0.12705001,10.029,-0.1225125,0.1659625,-0.90956247
1692598846555,0.01695,-0.11895001,10.254001,-0.0743875,0.16293749,-0.90021247
1692598846585,0.28995,-0.65295005,11.43105,0.060775,0.1452,-0.7214625
1692598846613,0.312,-0.73695004,11.87895,0.1172875,0.130075,-0.58753747
1692598846644,0.513,-0.54300004,11.163,0.1243,0.067925,-0.268125
1692598846672,0.462,-0.30600002,10.48095,0.0829125,0.0229625,-0.1076625
1692598846703,0.711,-0.19605,10.1320505,0.031625,-0.0559625,0.081125
1692598846730,1.1730001,-0.483,10.366051,0.0402875,-0.08855,0.136675
1692598846762,1.0489501,-0.46605003,9.79905,0.077,-0.1687125,0.2993375
1692598846793,1.5510001,-0.63900006,8.559,0.0812625,-0.220275,0.3949
1692598846821,2.07795,-0.31305,7.6800003,0.0490875,-0.3246375,0.5297875
1692598846852,1.49205,-1.1560501,7.3879504,0.028875,-0.384175,0.601425
1692598846889,1.2019501,-2.1400502,12.151951,0.00825,-0.544775,0.84865
1692598846911,1.7070001,-0.651,9.688951,-0.0314875,-0.5886375,0.91987497
1692598846940,2.09205,-0.049950004,9.849001,-0.1186625,-0.5592125,0.871475
1692598846970,1.9800001,0.29595003,10.47105,-0.2267375,-0.39105,0.5553625
1692598846997,1.24995,0.72495,9.79395,-0.1392875,-0.3444375,0.4104375
1692598847027,-0.609,0.33405003,10.182,0.165275,-0.2985125,0.155925
1692598847055,-0.01305,-0.31605002,14.2890005,0.2657875,-0.220825,-0.0422125
1692598847083,-0.29295,0.14505,13.176001,0.274725,0.1412125,-0.744975
1692598847109,1.1539501,-0.097950004,11.48595,0.2156,0.3584625,-1.1144375
1692598847143,0.82605004,0.17205001,10.55805,0.110825,0.5531625,-1.3134
1692598847171,1.6540501,-0.85200006,11.22795,0.091575,0.482075,-1.11815
1692598847199,1.8600001,-1.2060001,9.538051,0.07205,0.18425,-0.539
1692598847227,1.9990501,-0.96195006,8.95905,0.0246125,0.0378125,-0.26785
1692598847257,2.112,-0.64605004,9.8230505,-0.1530375,-0.22453749,0.2391125
1692598847285,0.98700005,-0.82095003,10.854,-0.2096875,-0.3392125,0.4893625
1692598847315,1.19505,-0.16995001,9.559051,-0.18205,-0.45815,0.83105
1692598847343,3.32505,-0.27,7.9840503,-0.14025,-0.415525,0.8113875
1692598847373,3.1930501,0.030000001,7.5850506,-0.0886875,-0.3504875,0.74195
1692598847401,4.2319503,-0.411,11.200951,0.099825,-0.5000875,0.97267497
1692598847432,2.3820002,0.777,8.406,0.2244,-0.701525,1.217975
1692598847459,3.7680001,-0.74895006,10.24905,0.3342625,-0.83545,1.3442
1692598847489,1.1400001,-0.13905,9.339001,0.4522375,-0.704,1.0399125
1692598847517,-0.006,-0.24900001,8.028001,0.3113,-0.3829375,0.4448125
1692598847547,-0.291,-0.423,7.0290003,0.1593625,-0.1892,0.07425
1692598847576,-1.30095,-1.39005,9.076051,0.007975,0.05995,-0.36574998
1692598847606,-1.2940501,-0.90000004,7.9009504,-0.2806375,0.5924875,-1.2419
1692598847634,-1.296,-0.79695004,7.5439506,-0.436425,0.826925,-1.6867125
1692598847661,-1.1880001,-1.5820501,10.23705,-0.6257625,1.201475,-2.482425
1692598847690,-1.047,-1.146,10.428,-0.624525,1.2857625,-2.627075
1692598847718,-1.164,-0.42795002,7.7089505,-0.568975,1.25125,-2.39965
1692598847749,-0.657,-0.86100006,7.6470003,-0.5135625,1.1650375,-2.1041625
1692598847779,-0.39105,-1.3570501,8.953951,-0.3155625,0.9087375,-1.336775
1692598847807,-0.95100003,-1.2280501,9.21195,-0.2407625,0.7588625,-0.99055
1692598847836,-1.0900501,-0.8880001,8.578051,-0.215325,0.6202625,-0.742775
1692598847864,-1.5469501,-1.5870001,10.309051,-0.2226125,0.455675,-0.4983
1692598847893,-1.7509501,-2.0299501,12.481951,-0.2008875,0.4277625,-0.4059
1692598847921,-1.7010001,-1.02705,10.762951,-0.1544125,0.4758875,-0.3889875
1692598847951,-1.7479501,-0.37305,9.83205,-0.1604625,0.5215375,-0.44494998
1692598847981,-1.7839501,-0.63600004,9.768001,-0.088825,0.5176875,-0.2985125
1692598848009,-1.9470001,-0.711,10.653001,0.0086624995,0.4786375,-0.1414875
1692598848038,-1.3579501,-0.92595005,11.42205,0.15015,0.392975,0.1166
1692598848068,-1.557,-0.61200005,10.974001,0.1522125,0.3353625,0.246675
1692598848095,-1.00605,-0.82995003,11.37405,0.1214125,0.25465,0.398475
1692598848124,-1.1719501,-0.67695004,10.725,0.051425,0.0600875,0.712525
1692598848156,-1.095,-1.041,11.151001,0.0012375,-0.1137125,0.9992125
1692598848185,-0.50895,-1.2540001,11.72805,-0.0259875,-0.1769625,1.123925
1692598848213,-0.71400005,-0.73200005,10.75905,-0.0598125,-0.220275,1.2098625
1692598848241,-0.96300006,-0.15495001,9.64995,-0.1021625,-0.25685,1.2497375
1692598848269,-0.75000006,-0.22200002,8.49195,-0.145475,-0.3163875,1.198175
1692598848298,-0.48495004,-0.63600004,8.49195,-0.043175,-0.2937,1.09395
1692598848330,-0.56805,-0.94500005,9.114,0.012925,-0.2633125,1.0437624
1692598848356,-0.36705002,-1.12905,9.29895,0.0336875,-0.23815,0.9843625
1692598848386,-0.59505004,-1.1179501,9.603001,-0.045649998,-0.2270125,0.92509997
1692598848414,-0.84405005,-0.79200006,9.18105,-0.115637496,-0.2374625,0.93128747
1692598848443,-1.3300501,-0.57705003,8.78205,-0.1948375,-0.219725,0.8097375
1692598848474,-1.128,-0.97605,10.54605,-0.1813625,-0.1628,0.6664625
1692598848503,-1.4089501,-0.615,9.67695,-0.1056,0.0050875,0.3620375
1692598848533,-1.6530001,-0.43095002,9.847051,-0.0350625,0.1205875,0.1436875
1692598848561,-1.557,-0.531,9.901951,-0.0350625,0.1205875,0.1436875
1692598848591,-0.96300006,-0.83295006,10.45695,0.0463375,0.20047499,-0.0275
1692598848619,-0.84405005,-0.66795003,9.966001,0.0884125,0.2171125,-0.137775
1692598848653,-0.64305,-0.69405,9.636001,0.0639375,0.1538625,-0.046475
1692598848676,-0.74100006,-0.83295006,9.729,0.0281875,0.063525,0.1043625
1692598848704,-0.966,-0.56205004,8.94705,-0.009625,-0.073699996,0.257125
1692598848735,-1.353,-0.61995006,9.114,-0.0127875,-0.1005125,0.22
1692598848765,-1.143,-1.04295,10.12905,0.0092124995,-0.0633875,0.0116875
1692598848794,-0.73095006,-0.98805004,10.29195,0.0286,-5.5E-4,-0.1445125
1692598848825,-0.94200003,-0.43305,10.179001,0.0281875,0.084425,-0.4112625
1692598848853,-0.93000007,-0.31995,10.45005,0.011825,0.061325,-0.4450875
1692598848883,-0.70500004,-0.21300001,9.954,0.044825,-0.0144375,-0.3697375
1692598848909,-1.0879501,-0.43800002,11.247001,0.0968,-0.032175,-0.3375625
1692598848939,-1.7719501,-0.53295004,11.971951,0.1797125,-0.054175,-0.2993375
1692598848969,-2.29695,-0.73695004,10.55805,0.1874125,-0.0554125,-0.2743125
1692598848999,-1.3990501,-1.50495,11.886001,0.1648625,0.066275,-0.4492125
1692598849028,-1.0900501,-1.5169501,12.22095,0.14685,0.1786125,-0.6615125
1692598849057,-1.59,-1.04805,12.56295,0.1060125,0.25575,-0.832425
1692598849086,-1.75995,-0.17205001,11.391001,-0.0396,0.201025,-0.869
1692598849114,-1.7680501,0.59295005,9.126,-0.0677875,0.144925,-0.8426
1692598849143,-1.4110501,0.588,8.37495,-0.0213125,0.12595,-0.856625
1692598849171,-1.4110501,0.588,8.37495,-0.0213125,0.12595,-0.856625
1692598849202,-1.8700501,-0.55695003,9.379951,0.429275,0.2222,-0.9521875
1692598849231,-0.77205,-0.33705002,9.0379505,0.4082375,0.192775,-0.87436247
1692598849260,-0.384,-0.28005,8.401051,0.22605,0.1186625,-0.7162375
1692598849287,-0.33600003,-0.26805001,8.47995,0.14135,0.064075,-0.5594875
1692598849325,-0.23805001,-0.22905001,9.102,0.0592625,-0.1142625,-0.0606375
1692598849357,0.66795003,-0.21000001,8.98995,0.0383625,-0.20047499,0.15125
1692598849384,0.78105,-0.37995002,8.772,-0.0169125,-0.3752375,0.483175
1692598849411,0.58395004,-0.411,8.83695,-0.0438625,-0.49445,0.6832375
1692598849438,0.28995,-0.31095,8.643001,-0.0785125,-0.6876375,1.0487125
1692598849471,-0.09900001,-0.079050004,8.3890505,-0.0823625,-0.7060625,1.13685
1692598849506,-0.40605003,-0.49305,9.02595,-0.04675,-0.5737875,1.0302875
1692598849529,-0.762,-0.41400003,8.764951,-0.0202125,-0.44715,0.8430125
1692598849559,-0.16905001,-0.294,8.281051,-0.0015125,-0.1612875,0.363825
1692598849588,0.30705002,-0.45705003,8.04195,-0.007425,-0.040975,0.1689875
1692598849617,0.69195,-0.873,8.817,-0.015125,0.02915,0.0680625
1692598849646,0.50100005,-0.81795,8.608951,-0.0523875,-0.0331375,0.18425
1692598849674,0.79995006,-0.90405005,8.478001,-0.095837496,-0.1313125,0.33467498
1692598849703,0.64695,-0.87105006,8.08005,-0.187825,-0.29273748,0.56045
1692598849732,0.75705004,-1.4929501,9.568951,-0.21367499,-0.3408625,0.616825
1692598849760,0.55095005,-1.21305,10.28505,-0.25025,-0.4131875,0.747725
1692598849791,0.77595,-0.91905004,10.368,-0.27719998,-0.4230875,0.815925
1692598849819,0.83595,-0.66495,10.12695,-0.28215,-0.3700125,0.8424625
1692598849848,0.60795003,-0.72705,11.323951,-0.227975,-0.3328875,0.8075375
1692598849875,0.59205,-0.82305,12.784051,-0.0683375,-0.2833875,0.74305
1692598849904,0.35895002,-0.62700003,12.10095,0.00165,-0.2459875,0.69836247
1692598849936,0.19395001,-0.28695002,11.781,0.0565125,-0.18535,0.619575
1692598849965,0.513,-0.13605,10.858951,0.130075,-0.0460625,0.3612125
1692598849994,0.41400003,-0.36795002,10.428,0.1604625,0.0017875,0.2094125
1692598850021,-0.07005,-0.56505,10.488001,0.203225,0.033,0.01705
1692598850052,0.16305001,-0.76995003,10.45695,0.2014375,0.0356125,-0.0081124995
1692598850079,0.41205,-0.68205005,9.97095,0.1331,0.0881375,-0.10615
1692598850110,0.44595003,-0.52605003,10.46205,0.0779625,0.117425,-0.1706375
1692598850140,0.051000003,0.042000003,9.945001,0.0042625,0.098175,-0.177375
1692598850173,0.29505002,-0.26805001,11.022,0.0081124995,0.069575,-0.1552375
1692598850200,0.43605003,-0.42105,11.199,0.0856625,0.0672375,-0.285725
1692598850230,0.54105,-0.19605,10.215,0.120037496,0.0787875,-0.4092
1692598850259,0.31605002,0.12900001,9.279,0.1197625,0.0528,-0.5438125
1692598850286,0.64905006,0.141,8.64,0.1145375,0.0237875,-0.547525
1692598850314,0.65400004,0.33,8.29605,0.1243,-0.007975,-0.5038
1692598850345,0.97005004,-0.14595,9.097051,0.169675,-0.076725,-0.27307498
1692598850373,0.36195,-0.52905005,9.688951,0.1915375,-0.10725,-0.13859999
1692598850402,-0.28605002,-0.58095,10.098001,0.1991,-0.12815,-0.0341
1692598850430,0.18195,-0.91605,10.704,0.0996875,-0.102437496,-8.25E-4
1692598850460,0.41400003,-0.56205004,10.155001,-0.0842875,0.0636625,-0.2704625
1692598850487,0.32295,-0.15795001,9.21,-0.1527625,0.130625,-0.3905
1692598850518,0.17295001,-0.08595,9.68595,-0.1854875,0.1450625,-0.42734998
1692598850546,0.19395001,-0.16005,10.524,-0.11385,0.096525,-0.40094998
1692598850577,0.80895007,0.13800001,9.46605,0.0114124995,0.068475,-0.434225
1692598850608,1.4959501,0.022950001,8.50905,0.05115,0.0501875,-0.4065875
1692598850631,1.48695,-0.097950004,8.88,0.082775,0.0050875,-0.2910875
1692598850664,1.386,-0.31305,9.583051,0.1362625,-0.20047499,0.1929125
1692598850692,1.26705,-0.49500003,9.397051,0.1452,-0.316525,0.44233748
1692598850723,2.2770002,-0.49500003,9.16005,0.087175,-0.4203375,0.6617875
1692598850753,2.4490502,-0.11895001,8.80305,5.5E-4,-0.4302375,0.7057875
1692598850782,2.4829502,-0.10005,8.80095,-0.0012375,-0.4852375,0.8272
1692598850810,1.8199501,-0.33195,9.84,0.034649998,-0.5707625,0.9912375
1692598850837,1.67805,-0.64095,11.90505,0.12773749,-0.6582125,1.1075625
1692598850869,1.353,-0.28695002,12.007951,0.130625,-0.5974375,0.97955
1692598850897,1.5130501,0.025950002,11.14605,0.1010625,-0.472175,0.7579
1692598850927,2.04495,-0.45405003,11.2570505,0.0301125,-0.1780625,0.2729375
1692598850955,1.49205,-0.54795,11.42205,0.0199375,-0.0716375,0.082499996
1692598850986,0.33105,0.08295,11.46195,0.005775,0.0396,-0.1573
1692598851021,1.7689501,0.34395,10.837951,-0.0534875,0.1439625,-0.39105
1692598851048,1.4749501,0.22905001,9.97095,-0.044825,0.2220625,-0.596475
1692598851077,0.13005,0.282,10.07205,0.0572,0.2473625,-0.7814125
1692598851104,1.48395,-1.3470001,10.653001,0.100099996,0.1918125,-0.69575
1692598851133,1.1590501,-2.23305,11.392951,0.103675,0.15015,-0.6139375
1692598851162,0.91995007,-1.6180501,12.40995,-0.1337875,0.1535875,-0.6864
1692598851189,0.9480001,-0.615,9.603001,-0.3405875,0.170775,-0.7731625
1692598851218,1.9060501,-0.52395004,7.5990005,-0.5603125,0.1804,-0.7291625
1692598851248,3.6169503,-1.4860501,9.816001,-0.5064125,0.1359875,-0.530475
1692598851279,0.36195,-0.15495001,7.06995,-0.2608375,-0.171325,0.2278375
1692598851307,1.3410001,-1.3470001,5.9830503,-0.154275,-0.3752375,0.6738875
1692598851337,1.149,-1.71405,8.755051,-0.0312125,-0.451275,0.92509997
1692598851371,0.54105,-0.51900005,7.9290004,-0.0605,-0.35227498,0.7379625
1692598851399,-0.0010500001,-0.18195,7.2570004,-0.2319625,-0.170225,0.36987498
1692598851428,1.8100501,-1.4790001,9.34605,-0.2545125,-0.0495,0.1431375
1692598851457,1.8100501,-1.4239501,10.77105,-0.2198625,0.0859375,-0.1265
1692598851485,0.52695,-0.55995005,9.580951,-0.1428625,0.2171125,-0.44055
1692598851516,-0.97800004,-0.28005,8.442,-0.124437496,0.2033625,-0.43835
1692598851544,-0.69795,-0.52395004,9.552,-0.0496375,0.31913748,-0.5982625
1692598851573,-0.84405005,-0.44700003,9.250951,-0.0081124995,0.4882625,-0.8393
1692598851616,-1.7410501,-0.83505005,9.0379505,0.01265,0.79254997,-1.2857625
1692598851640,-1.00905,-1.8190501,10.038,-0.02255,0.7448375,-1.2277375
1692598851665,-1.023,-1.9390501,9.540001,-0.0710875,0.73039997,-1.2142625
1692598851693,-0.66405004,-2.0410502,8.370001,-0.1288375,0.78375,-1.2764125
1692598851724,-1.1050501,-2.1319501,9.79605,-0.297,0.8311875,-1.3369125
1692598851800,-1.0210501,-1.17495,9.45195,-0.395175,0.543125,-0.89595
1692598851827,-1.437,-1.386,10.087951,-0.3075875,0.5061375,-0.7539125
1692598851861,-1.45905,-1.6990501,10.384951,-0.0988625,0.47134998,-0.64625
1692598851886,-0.96105003,-1.9270501,10.641001,-0.0325875,0.471075,-0.6488625
1692598851914,-1.00605,-1.9240501,10.95705,-0.009075,0.4653,-0.6358
