accX_mean,accY_mean,accZ_mean,gyrZ_mean,accX_std,accY_std,accZ_std,gyrZ_std,accX_aad,accY_aad,accZ_aad,gyrZ_aad,accX_min,accY_min,accZ_min,gyrZ_min,accX_max,accY_max,accZ_max,gyrZ_max,accX_range,accY_range,accZ_range,gyrZ_range,accX_median,accY_median,accZ_median,gyrZ_median,accX_iqr,accY_iqr,accZ_iqr,gyrZ_iqr,accX_neg_count,accY_neg_count,accZ_neg_count,gyrZ_neg_count,accX_pos_count,accY_pos_count,accZ_pos_count,gyrZ_pos_count,accX_assymetry,accY_assymetry,accZ_assymetry,gyrZ_assymetry,accX_kurtosis,accY_kurtosis,accZ_kurtosis,gyrZ_kurtosis,activity
0.20451291008870967,0.043750405120967756,10.181814257258063,-0.041989617032258064,0.1917022462753149,0.446751021446847,2.493435084558466,0.17384654901828325,0.16411225752627467,0.35287388109599366,2.091899057960458,0.14104123300312177,-0.0290250015,-0.5130000100000001,6.31005045,-0.37049374999999996,0.624975015,1.044525015,14.886451000000001,0.1720125,0.6540000165,1.5575250250000001,8.57640055,0.54250625,0.1280250075,-0.004049999499999998,9.712275250000001,-0.022859375,0.29371876675,0.53675626625,3.5327815000000022,0.2346265625,3,32,0,37,59,30,62,25,0.8894544877170825,0.846221430503711,0.3240049055020891,-0.5311077564734487,-0.7837174102341407,-0.40369775737327185,-0.8160600421926705,-0.8400336018445285,Squat
0.3398213846129032,0.3491238010887097,10.100784026612903,-0.048229233806451596,0.21123314602147097,0.44128954373562507,2.5523189684057304,0.3168909680602411,0.18180710775754425,0.378584249914152,2.0317889938085325,0.27684394485744024,-0.16845,-0.45105003,6.31005045,-0.44405625,0.624975015,1.044525015,14.886451000000001,0.581075,0.793425015,1.495575045,8.57640055,1.02513125,0.38895001500000004,0.320025,9.889763,-0.09920625,0.35330626375000007,0.7620000235000001,3.8331751,0.49175156249999996,7,14,0,36,55,48,62,26,-0.752717845831574,-0.12965588739605788,0.26889031230027105,0.5231406171888979,-0.6615523618154988,-1.095923248898563,-0.773074171662695,-0.9041458346073514,Squat
0.31694154965322574,0.815667365,9.721920211290321,-0.07971562470967741,0.21602648959441265,0.9088437086255848,2.5547112948760056,0.33465035249732455,0.18787005345603539,0.6993495101612904,1.9718814543184187,0.2877841730697191,-0.16845,-0.45105003,6.37605045,-0.509575,0.682500035,2.7805501,15.172500750000001,0.581075,0.850950035,3.2316001300000003,8.7964503,1.0906500000000001,0.38550000500000003,0.43773751,9.5520005,-0.2039124975,0.3598687835,0.57945004,2.650050300000001,0.4990562499999999,6,8,0,37,56,54,62,25,-0.34873287357414745,0.9698409989396859,0.7885091976435266,0.5648379080240218,-0.8980578468151856,0.030919300615556367,-0.3279588193223768,-0.8662462908264241,Squat
0.19388347806451614,0.9009568913064518,9.749153653225806,-0.026190423951612904,0.28801296534311743,0.8576346213832382,3.2191798081159226,0.3071274677979584,0.21985123303850154,0.704376615201873,2.811846144380854,0.26734113463059317,-0.49395,0.051525,5.8579502,-0.509575,0.907500065,2.7805501,15.172500750000001,0.49004998499999997,1.4014500650000001,2.7290251000000003,9.31455055,0.999624985,0.15596250375,0.43050001,8.966250575,-0.0818125005,0.29420627125000004,0.9715688137499999,5.720719624999999,0.52525,13,0,0,32,49,62,62,30,-0.03776186608837887,1.1139152973096307,0.47490443937679355,0.19950866016643687,0.485458790809167,-0.06596328844731758,-1.2633398790069603,-1.16219875241624,Squat
0.03783750014516129,0.7800895629193548,9.024924633870969,0.03818618882258064,0.27807408506136694,0.45486944186427497,2.237758888429693,0.24164059920842154,0.2183806525140479,0.4085826282767949,1.6424721026014566,0.19831448932154008,-0.516450015,0.051525,5.8579502,-0.32718125,0.907500065,1.3429501,15.172500750000001,0.49004998499999997,1.42395008,1.2914250999999999,9.31455055,0.817231235,0.0064875,0.7989750449999999,9.415201,-0.006737499999999999,0.389550023,0.8913937974999999,2.318362575,0.2590328125,30,0,0,31,32,62,62,31,0.5043608971014015,-0.23634615541813775,0.917411255921861,0.4207645913777842,1.2281867004409435,-1.4534294536940349,0.95543791615443,-0.839217219037983,Squat
-0.24504557850806447,1.1984686165322578,10.514378724999998,-0.022927016137096776,0.3431029579321304,0.7897688711563979,3.075068159108991,0.2949642341422724,0.2793076245902705,0.594990573257024,2.5485286451612894,0.22650020160483866,-1.06500005,-0.060000004999999995,6.91897525,-0.61813125,0.250500015,2.8704752,16.716525500000003,0.47265625,1.3155000650000002,2.930475205,9.797550250000004,1.0907875,-0.155475005,1.20930005,9.568762750000001,-0.02179375,0.37779376462500003,0.7110375562499999,4.595569624999998,0.3175734375,48,3,0,33,14,59,62,29,-0.683364154929249,0.7512444881308912,0.7975235254310995,-0.3610268895139898,-0.33516658730167226,-0.1718855307335545,-0.52928583698252,-0.33889139393129764,Squat
-0.46618429868548383,0.888493598032258,9.974475516129033,0.0744895157983871,0.3558253816166997,0.961939022014941,3.500859651546282,0.4110161105772847,0.31446452179006246,0.7764516339719044,2.896853296045787,0.36627903847918825,-1.1525251,-0.167475005,5.47005035,-0.61813125,0.12855,2.8704752,16.716525500000003,0.698225,1.2810751,3.037950205,11.246475150000002,1.3163562500000001,-0.388050015,0.7209750349999999,9.347251,0.13622812,0.690431276375,1.180762542,5.904994374999998,0.7269109375,60,18,0,26,2,44,62,36,-0.2032558017260627,0.8110680255782211,0.6466389313011615,-0.1919212101046212,-1.2770007806607755,-0.47096004341068554,-0.7698007224355452,-1.2770661442724667,Squat
-0.30655646508306444,0.5910738197258064,8.193357374193548,0.052387499677419354,0.3370847015877841,0.4598615292488564,1.4399511324567738,0.34384463202245175,0.27807870687921443,0.40657393046201873,1.2618660654006242,0.30292358838709676,-1.1525251,-0.167475005,5.47005035,-0.3727625,0.12855,1.16250005,9.999000500000001,0.698225,1.2810751,1.329975055,4.528950150000001,1.0709875,-0.20025000325000003,0.7209750349999999,8.516475499999999,0.04561562499999999,0.42571876475000003,0.811350021,2.7320252375000003,0.564815625,56,15,0,30,6,47,62,32,-0.9536117866558318,-0.47153947240058286,-0.49982477766994166,0.4262571702723032,-0.30078392375445695,-1.2545862598776676,-1.103003066215505,-1.0939843102072557,Squat
-0.1449205706556452,0.834310921701613,10.178514351612906,-0.012230846758064507,0.163802800477993,0.6230017597495447,3.352848176613601,0.19024646729268047,0.1414037257242976,0.49483289501430794,2.7965800246618113,0.16617318548387092,-0.507525015,-0.27900001,5.75955035,-0.3727625,0.1065,2.0029501,16.8624765,0.27946875000000004,0.6140250150000001,2.28195011,11.10292615,0.65223125,-0.0880500025,0.891975045,9.493988250000001,-0.01124062475,0.26863125775,0.7269187762499999,5.6363444875,0.3352421875,54,7,0,32,8,55,62,30,-0.500163978631832,0.18260688655913154,0.6461873414305958,-0.15543441141502815,-0.8936724077170002,-0.5904787729198953,-0.7107700538929205,-1.02693115711059,Squat
-0.14599355633870972,0.7330306727338707,10.227363450806449,0.01314455695161291,0.22016353410107553,0.6765051971662732,3.3123809538425077,0.1889668712206905,0.1844590372861603,0.5629724189521331,2.761912922008323,0.15339799000364202,-0.7190250499999999,-0.27900001,5.75955035,-0.19868750000000002,0.177525015,2.0029501,16.8624765,0.46976875,0.896550065,2.28195011,11.10292615,0.66845625,-0.0880500025,0.771000015,9.4995005,-0.0363,0.325556271625,0.8607937587500001,4.940269562499999,0.25994375,46,11,0,38,16,51,62,24,-0.8717987552430578,0.34501954607477103,0.6510646944306436,1.043524131854833,0.1458781968915992,-0.8587204598633487,-0.6579398215105181,0.26129179290793436,Squat
-0.06291290449999996,0.5378371215967741,10.058581825806451,0.006272883548387097,0.30260753615727,0.37313226451608134,2.9899654037361927,0.2205964109454814,0.21281567251612898,0.32517574322840787,2.342954139021852,0.17621165091571284,-0.7190250499999999,-0.19147501,6.36900015,-0.32505,0.63352504,1.2285001,16.683,0.46976875,1.3525500899999998,1.41997511,10.31399985,0.79481875,-0.08947500750000001,0.40995002999999997,9.399750000000001,-0.037675,0.24678751275,0.600112505,2.867737375000001,0.26241875,42,4,0,39,20,58,62,23,0.5223075301848412,0.2918646345546594,1.0914192749615865,0.6215295745253021,0.9183021453726661,-0.7971830369500004,0.09868884063841499,-0.40757725207797524,Squat
0.018930248548387096,0.33654558367741944,11.257706103225802,-0.1286390120967742,0.3328352405567918,0.5320421238382016,2.748018731076214,0.30819148707009525,0.2957306341883455,0.38131792891259103,2.300396303850155,0.24675573296045786,-0.49995,-0.84795003,7.4685004,-0.82115,0.63352504,1.2285001,16.683,0.313225,1.13347504,2.07645013,9.2144996,1.134375,-0.10852500500000001,0.40995002999999997,10.409250499999999,-0.012306249999999998,0.48255001999999997,0.45052501749999985,3.8186257500000007,0.370046875,38,12,0,34,24,50,62,28,0.4681253801229318,-0.7456815931503913,0.575800190474951,-0.871537402841914,-1.0731506518121907,0.37275338628275634,-0.7092063587590016,0.06655600160422637,Squat
-0.1237137108064516,0.4698350971451613,10.076861306451615,-0.1288796370967742,0.2946357889943592,0.6713118872465849,2.1939825035332743,0.29711195493668674,0.23618664001040582,0.4655842910806452,1.7876771740374615,0.2305123829344433,-0.49995,-0.84795003,7.1190001,-0.82115,0.542475045,2.0719499999999997,15.6035255,0.22488125,1.0424250449999999,2.91990003,8.484525399999999,1.04603125,-0.16395001,0.46173752,9.47325075,-0.03196875,0.4855500175,0.42090002499999996,2.7556125000000016,0.27941718750000005,46,12,0,35,16,50,62,27,0.8111672218792295,0.015565353307493743,0.6642487260377875,-1.0763745175888748,-0.6510531548573311,0.43799512405959584,-0.48851114383369953,0.315042053624341,Squat
-0.3386830740967743,0.664276227370968,9.689160766129035,0.023598991935483878,0.17334753705542896,0.7182440381320839,3.7495884109526987,0.28952049537237823,0.13241269772008324,0.5854733496077003,3.2512952133194593,0.23665137877211243,-0.60705002,-0.195000005,4.99845,-0.39139375,0.34402500199999997,2.1174749999999998,16.615949999999998,0.82603125,0.9510750219999999,2.3124750049999996,11.617499999999998,1.217425,-0.36255000000000004,0.42547502,8.523750249999999,-0.013234374999999998,0.26055000125000005,0.71964381125,5.91000065,0.42953281249999997,61,11,0,32,1,51,62,30,0.8454156386875382,0.8341063333506811,0.5490201124334995,0.6088643787620887,2.110709388720328,-0.5001862339045209,-1.0608724940476126,0.32423638588460246,Squat
-0.19909597020967748,0.5136181531451611,9.729364479032258,0.0562408264516129,0.39804880485909994,0.6033335211686336,3.567139286640191,0.3629344945623064,0.3200410862575442,0.41039754592872013,3.0105297292924034,0.28018250532778344,-0.60705002,-0.195000005,4.99845,-0.47306875,0.85852504,2.1174749999999998,16.615949999999998,0.82603125,1.46557506,2.3124750049999996,11.617499999999998,1.2991,-0.34800000000000003,0.490500005,8.977237875,0.040424999,0.4521375154999999,0.590475007125,4.467750825,0.5234453125,47,14,0,22,15,48,62,40,1.2008338846533362,1.3295694645914662,0.4789456369035714,0.48634363509212125,0.3918826678119802,1.5872096945693341,-0.8494227917448751,-0.33131304390308136,Squat
-0.017664919201612898,0.5149197765145164,10.338417861290322,-0.0323102814516129,0.362111853212168,0.48852088377144565,2.9487782679263046,0.2887413408391552,0.28384363695005194,0.3617924881970343,2.450633108220604,0.1999251420031217,-0.633000045,-0.161550005,4.7684999999999995,-0.47306875,0.85852504,1.6414501,15.212026,0.82603125,1.491525085,1.803000105,10.443526,1.2991,-0.006525,0.51405,10.97951325,-0.053006250000000005,0.40676251625,0.64209375,3.9367505124999997,0.20583749899999998,34,11,0,34,28,51,62,28,0.39066090925554064,0.8145202649085302,-0.10585009552539718,1.1367143458325457,-0.18561080909479655,0.2354154423118664,-0.793698791548203,1.9997653975552359,Squat
-0.0024883045725806346,0.9146238278532259,9.957737215322581,-0.07893608777419356,0.265882375824568,0.8284819064370053,3.1298010400334895,0.43285365659159136,0.19728282590920918,0.7523020860869927,2.4368132273413106,0.30380410297918836,-0.647025,-0.228525005,4.7684999999999995,-0.7011812500000001,0.432000025,2.2350000999999997,15.212026,0.96669375,1.079025025,2.4635251049999995,10.443526,1.667875,0.06176250425,0.9795000549999999,9.7665,-0.14485625000000002,0.2574375125,1.5874125992875,3.3204752499999977,0.34761718,25,13,0,47,37,49,62,15,-1.1762510476000212,0.003479427802496546,-0.02325848511461591,1.1519010698003016,0.8209616115749134,-1.5412651098517849,-0.794241040788453,0.8646715372718767,Squat
-0.056666127741935475,1.1770597353387096,9.302323083064515,0.024062500451612887,0.2162432296179766,0.7990963482619152,2.651181482627316,0.4988889959977772,0.17367425168626435,0.711333906596774,1.9465042233870968,0.41220725728407903,-0.647025,-0.228525005,4.7684999999999995,-0.7011812500000001,0.282000015,2.3235002,15.853501,0.96669375,0.9290250149999999,2.5520252049999996,11.085001,1.667875,-0.10398750325,1.21046255,9.3012005,-0.07703437499999999,0.29602501000000003,1.3274063075,2.6591628000000007,0.7199671875,38,5,0,35,24,57,62,27,-0.6153366808553655,-0.1344485245870724,0.697080975410608,0.5168377639654963,0.5454599904294781,-1.250520953901337,0.21100922991665527,-0.8747044475455499,Squat
-0.1409552462096774,0.5825395532096775,9.686151268548384,0.08544627106451612,0.2546364143792773,0.8026593240714505,3.6535207560693004,0.3756144752470125,0.15519798714516128,0.6185650726186263,3.240143031633715,0.30949901378251815,-0.99802502,-0.47100001,4.57852525,-0.44694374000000003,0.28500000999999997,2.3235002,15.853501,0.7524,1.2830250300000001,2.79450021,11.27497575,1.19934374,-0.141000005,0.35977502,8.617988100000002,0.064659374,0.176493752625,0.741506262,6.5796381375,0.44089375,51,14,0,26,11,48,62,36,-1.5444491441012533,0.9301149420136344,0.3367571868283124,0.2953087164929146,4.156646560479532,-0.028768994514995594,-1.3149900575520377,-0.9635102648044951,Squat
0.11785524891935481,0.4017483982903226,9.570520558870964,-0.014149193120967745,0.36722776283992264,0.46294627171816016,2.885292800079842,0.34230460324448936,0.2716564885827263,0.39025677187929236,2.036347562565037,0.2843112965413631,-0.99802502,-0.47100001,4.57852525,-0.44694374000000003,0.658500045,1.860525,15.4525505,0.7524,1.656525065,2.33152501,10.874025249999999,1.19934374,0.2349750075,0.61773752,9.79751275,-0.13997500000000002,0.32985001299999994,0.6350812670000001,2.34121895,0.4770390625,21,14,0,39,41,48,62,23,-1.249027602291551,-0.16447989693195442,0.2306696499238902,0.9378831111995448,2.0632355560722218,0.3061721514326008,-0.1573124179232046,-0.13817035527311106,Squat
0.1451504088548387,0.6228314703225806,9.637337099193546,-0.005226108919354836,0.2883423080098132,0.35816850243104303,2.025229252893308,0.24747280664394886,0.22523020226066595,0.24395338654006243,1.420743263709677,0.1927071799323621,-0.495525,0.15352500000000002,6.64395045,-0.353375,0.658500045,1.9645500500000002,14.775001,0.7524,1.154025045,1.81102505,8.13105055,1.105775,0.20298751,0.66825001,9.642262875,-0.051665625,0.25548750449999996,0.3858562537500001,1.8828565000000008,0.299320311,15,0,0,42,47,62,62,20,-0.23199100055327057,1.3977857828824687,0.7573136849668269,0.9849343683123214,-0.45364191100869844,3.769063372124597,0.5243588055098543,0.8091951260732722,Squat
-0.2998403370322581,0.5556459867741935,9.593493589516129,0.0035639116854838805,0.2984371641047235,0.5333049039593809,3.7325892579210085,0.2779270115107756,0.24237285015504687,0.388685284994797,3.270563758454735,0.18681370910483877,-0.9729750800000001,0.12600001,4.6204503,-0.7341125,0.25155001,1.9645500500000002,16.038001,0.35860000000000003,1.2245250900000002,1.83855004,11.417550700000001,1.0927125,-0.35073751,0.32651251000000003,8.158237625,0.0031968747500000006,0.4929187495,0.36585001875,6.401512725000001,0.23591562500000002,46,0,0,31,16,62,62,31,0.07253136676417737,1.7409634607664568,0.4477983401190094,-1.341455124517524,-0.61943978521772,1.8556184177152506,-1.154822955089699,1.6628830179385856,Squat
-0.4168657406774194,0.296646783966129,9.64214080080645,-0.07887288261290322,0.1967848685603248,0.5000177229295324,3.1794767549307417,0.24666447683271275,0.15602604074401666,0.30399522053361083,2.281021652575443,0.17389418207908422,-0.9729750800000001,-0.16950001,4.6204503,-0.7341125,-0.10147500649999999,1.9645500500000002,16.038001,0.35860000000000003,0.8715000735000001,2.1340500600000003,11.417550700000001,1.0927125,-0.3844875,0.25050001499999996,9.47876275,-0.00928125,0.25854378499999997,0.26265000075,2.361581312500002,0.2020734375,62,11,0,33,0,51,62,29,-0.7311847770221532,2.373522160586958,0.4668870464767797,-1.314898168302208,0.34439757296425677,5.328121704718884,-0.11464095629834192,1.7479570772479178,Squat
-0.18432218256451613,0.18416855953064518,10.104207328225806,-0.04210715692741935,0.19177875464995695,0.5655070625130753,2.425771617233109,0.183380257927352,0.13654601018574403,0.4172737209670656,1.8022224097034338,0.1482105837096774,-0.70605003,-0.47002501,7.1215503,-0.31872500000000004,0.266474995,1.5560251,16.110000499999998,0.34821875,0.9725250249999999,2.02605011,8.988450199999999,0.6669437500000001,-0.182025005,0.047475001,9.516525,-0.042934375000000004,0.17144999450000004,0.42157502300000005,2.1038256250000025,0.250525,54,27,0,36,8,35,62,26,-0.27040973635044274,1.3904277832949008,1.1742473526418182,0.5080061273191184,1.0042516974993623,0.8880028996289364,0.6673237492603508,-0.2724751305345001,Squat
-0.0316245997983871,0.25689920732258065,9.855945245161292,0.033861593072580645,0.32275552818456943,0.6277352855990427,3.281604959778291,0.380137202275199,0.21915442183376693,0.5290086609323621,2.7813414635796043,0.3139727358181582,-1.09402508,-0.47002501,5.42347525,-0.6722375,0.483000025,1.5560251,16.110000499999998,0.7693125000000001,1.577025105,2.02605011,10.686525249999999,1.44155,0.0295125005,0.018975005000000003,9.114263075,-0.023581249999999998,0.33288751775000003,0.8288062700000001,5.153381725000001,0.589978125,29,30,0,33,33,32,62,29,-1.67278124941583,0.8930605705918014,0.5709481057985325,0.14154594995330141,3.723420788923227,-0.54004232879478,-0.8923902979760636,-0.5013617986499197,Squat
0.0188999995,0.5439048567580645,8.875011703225809,0.005434576935483877,0.30891535091805433,0.5421642407998252,2.306384876847121,0.37001050410051983,0.16630162314516134,0.4631071438694069,1.6656752352757545,0.27974707629032264,-1.09402508,-0.30255002,5.42347525,-0.6722375,0.483000025,1.395975,15.894525999999999,0.7693125000000001,1.577025105,1.69852502,10.47105075,1.44155,0.042000002,0.5555250075,9.106238000000001,0.006187500000000002,0.1400250055,1.0187625825000002,2.1896626249999986,0.421540625,17,14,0,30,45,48,62,32,-2.3880150119696837,-0.014843438796277262,1.0178325608577792,0.27552018400519823,6.378925278958272,-1.3185391725282982,1.3770468318522795,-0.1472398909438657,Squat
0.15245565250806448,0.9162581073709676,10.515058503225804,-0.04481612870967742,0.16329155323980185,0.3367665637227178,2.5323953318271784,0.15273623218472987,0.13470656168678458,0.281539559012487,2.225774239334027,0.1235406018002081,-0.038475000499999995,0.12255000699999999,6.98752515,-0.40679374999999995,0.557025045,1.3960501,15.162976,0.13825625,0.5955000455,1.273500093,8.17545085,0.5450499999999999,0.11452500499999999,0.967500065,9.590550499999999,-0.028359375,0.23859375549999998,0.5305125625,3.8353878750000003,0.21759375,11,0,0,32,51,62,62,30,0.8261793802329737,-0.4857822337876057,0.4481274391754553,-0.8529236039202345,-0.49382617729820044,-0.5003725569526107,-1.041493498999962,-0.26929666796567187,Squat
0.1323387155,0.2796943747741935,10.277066652419354,-0.025099294193548387,0.33028472721946756,0.6908364133620502,2.890845378689901,0.17069328676043313,0.22635211429032256,0.6481259222934445,2.4722811414412083,0.13800357030176902,-0.8769750199999999,-0.6400500149999999,5.32005015,-0.41696875,0.557025045,1.3960501,15.162976,0.13825625,1.434000065,2.036100115,9.84292585,0.555225,0.18000000825,0.102300005,9.891975500000001,0.0111375,0.30052501350000005,1.29706882,4.409531199999998,0.2470015625,9,30,0,30,53,32,62,32,-1.6529103605455915,0.22499040600490885,0.10920700777075251,-1.0218771743389508,2.494945678103483,-1.607554829864978,-1.0933120330739323,-0.11856877161790225,Squat
-0.03621532509354839,-0.26687178646774184,8.452641970967742,0.0007185489677419402,0.30213669440664115,0.19664863068256716,1.429862843114883,0.20380981845958981,0.22035929498199794,0.14272250771696152,1.2143411831945892,0.16530225594172734,-0.8769750199999999,-0.6400500149999999,5.32005015,-0.41696875,0.554550005,0.2295,11.6970005,0.32140625,1.431525025,0.869550015,6.3769503499999995,0.738375,0.0060000005,-0.29002500999999997,8.60748775,0.07603750000000001,0.24652500162500002,0.153750015,2.2529630624999992,0.199306245,26,55,0,25,36,7,62,37,-0.9642583325999784,0.595470124130546,-0.2870451468345965,-0.7981735517951165,1.0934681704556297,0.5521489126906776,-0.6721199461755609,-0.5420008040977478,Squat
-0.06221008248548387,-0.2098742017096774,10.743512136290322,0.01894616973387097,0.1973545450785744,0.5212522636553957,2.421489511514227,0.17046005665831032,0.16571461130296566,0.3944459266909471,2.0810757962539017,0.14524971980697196,-0.39705002,-1.4445000000000001,7.42650025,-0.34216873999999997,0.38445000500000004,0.42997501,15.0589505,0.32140625,0.781500025,1.87447501,7.63245025,0.66357499,-0.013987500250000002,-0.1817625075,10.419225749999999,0.03090312475,0.339056266625,0.55798126875,3.58822475,0.263725,32,37,0,26,30,25,62,36,0.03182875554630337,-1.0754591224448529,0.36181961116373695,-0.23568452418362637,-0.7856413892609937,0.41484267567382105,-1.027559570375999,-0.9237200619120007,Squat
-0.018930239193548387,-0.1229250062419355,10.258337030645162,-0.005729535362903233,0.27802055646991947,0.7191714501898429,3.0799395274904375,0.23584515771399903,0.23093589274838705,0.626922604385536,2.5385985187304896,0.1961470399406868,-0.44647499999999996,-1.4445000000000001,4.9040251999999995,-0.28648125,0.59497502,0.827550055,15.0589505,0.5009812499999999,1.04145002,2.2720500550000002,10.1549253,0.7874625,-0.01777500015,0.17272500500000001,9.76575,-0.060018745000000005,0.3747187575,1.18858129875,3.975787437500001,0.367090625,32,27,0,34,30,35,62,28,0.5628840860969346,-0.5605589918189627,-0.18929560437897705,0.7472772836525111,-0.6418697313813282,-1.0183345691091563,-0.9001123018673551,-0.39432386077637904,Squat
-0.0678024199467742,0.0761346782096774,8.357130473387095,0.006689818419354831,0.2507085961305512,0.5195217836021863,1.7396716337602869,0.22977426249275185,0.19227035090244535,0.39186979011654544,1.4518458195109265,0.194476255930281,-0.44647499999999996,-1.410975,4.9040251999999995,-0.28648125,0.59497502,0.827550055,10.96597525,0.5009812499999999,1.04145002,2.238525055,6.06195005,0.7874625,-0.15776251,0.17572500749999997,8.577000250000001,-0.082328125,0.242850006175,0.501375025,2.3299872875,0.30930625,41,21,0,33,21,41,62,29,1.2313519380912388,-0.9468460430004622,-0.554862888145325,0.6760056447024455,0.8767327883797211,0.6104761680805231,-0.658106229253105,-0.3536825549016851,Squat
-0.1460794414435484,-0.18073791812903225,10.356248454032261,0.011691934870967742,0.17909840983138337,0.5536496183593868,2.822631376650642,0.1364758946212445,0.13480154007284081,0.4798473785057233,2.363965891259105,0.12094648604058275,-0.5074500200000001,-1.2120000499999999,4.29202525,-0.175243745,0.317550015,0.422025,15.238050999999999,0.24186249999999998,0.8250000350000001,1.63402505,10.946025749999999,0.417106245,-0.172050005,0.0682500055,10.169025000000001,0.01656875,0.21151875375,1.010212555,4.769681937499998,0.238493748,48,25,0,29,14,37,62,33,0.5592606241576555,-0.8413422256806025,0.27845869872391366,0.239548900509613,0.4566458658771744,-0.9419042247006044,-0.8933359633260154,-1.3129893443619358,Squat
-0.22907057105645165,-0.08062500964516131,10.147130285483874,0.01876209729032258,0.2623233532951131,0.6675265864622115,3.1392337543869298,0.2891081126457496,0.2030048704542144,0.5813129393485952,2.4332000393340274,0.21429603893236213,-0.702,-1.2120000499999999,4.29202525,-0.41270624999999994,0.317550015,0.8610000250000001,15.238050999999999,0.72538125,1.019550015,2.073000075,10.946025749999999,1.1380875,-0.237,0.1352625,9.945,-0.0180812495,0.304631265,1.1299875725000001,4.397044375,0.301537495,50,22,0,36,12,40,62,26,0.43295521544430426,-0.4550202864771469,-0.07338057830934609,0.9902066775153031,-0.31932737613051243,-1.170255854708597,-0.6937898156093576,0.72223238955559,Squat
-0.14736048426612902,0.0772233937233871,9.218007177419354,0.05198941532258064,0.3766248836858383,0.41108472349961317,2.497492241055774,0.2988240912554674,0.300213228091051,0.3397408824578044,1.9782925070239339,0.23623730476170657,-0.702,-0.656475025,4.29202525,-0.41270624999999994,0.932475025,0.8610000250000001,15.279001000000001,0.72538125,1.634475025,1.51747505,10.986975750000001,1.1380875,-0.24397501,-0.010500000525,9.6750005,-0.014093749999999999,0.520950006875,0.5003625225,2.7593810124999996,0.345675,43,32,0,34,19,30,62,28,0.8895916332776352,0.3316701187576161,0.09575378797807745,0.7021267452089826,0.1353037776887347,-0.7892829818322222,-0.2211910372927397,0.040749288250551796,Squat
0.03667016647580645,-0.4570826684701612,9.922539116935482,0.12099667338709678,0.3756304944485955,0.48565180218251114,3.4409448987594415,0.49461953140261494,0.3241280833298647,0.3937903541863164,3.047099039542144,0.33932417397294495,-0.5685,-1.479,5.0190002499999995,-0.77488125,0.932475025,0.48900001000000004,16.1655005,1.3124375000000001,1.500975025,1.9680000100000001,11.14650025,2.08731875,0.01571249725,-0.38073751,9.099262750000001,0.070021875,0.547237528125,0.64876874775,5.375456337499999,0.35172500000000007,30,56,0,27,32,6,62,35,0.20476878297508133,-0.6100594404448046,0.32048187847323384,0.7297442912977173,-0.9181283218166976,-0.3213036309907551,-1.1206772937441736,1.1862963593697167,Squat
-0.062130242258064516,-0.2709060525806452,9.629898748387093,-0.018925099806451594,0.2831075172640851,0.6188218226321938,2.91110185962203,0.5513876808054032,0.2191941798595213,0.5252543919562955,2.047383025754423,0.3840472643475546,-0.5685,-1.479,5.0190002499999995,-0.77488125,0.49597499999999994,0.546525,16.1655005,1.3124375000000001,1.0644749999999998,2.025525,11.14650025,2.08731875,-0.13346250250000002,-0.13170000250000002,9.549750125,-0.04255625,0.36408750375,0.92150625625,2.029350225000001,0.416178125,44,37,0,38,18,25,62,24,0.5778156762177803,-0.5084038120108774,0.6842051076607201,0.9314305689999909,-0.22453308434183095,-0.848699443303893,0.2742559244105176,0.7932279966824263,Squat
-0.22264476604838712,0.006408870529838708,9.989142740322581,-0.07467580596774197,0.1379789234852491,0.27757131329813156,2.022891213326784,0.2652327163260201,0.10190436251560876,0.22325299702047346,1.6096507881893862,0.20057028983350672,-0.6225000199999999,-0.468000025,6.87255015,-0.71101249,-0.08595,0.546525,14.047501,0.5253187500000001,0.53655002,1.014525025,7.17495085,1.2363312400000002,-0.17099999999999999,-0.00723750055,9.77928775,-0.01973125,0.13828127124999998,0.32473125849999995,3.2161120000000007,0.337253125,62,31,0,32,0,31,62,30,-1.6104962353842536,0.47847748409177826,0.33153737530055877,-0.9840215728046516,2.176669618191661,-0.5643668349554618,-0.8259243601137989,0.8502295848371104,Squat
-0.31156090056451613,-0.5790846966959677,10.032924681451611,0.06894959629032257,0.2084680594995856,0.5970625561670632,2.9604406352043187,0.21441336507976583,0.17282681563735697,0.524045935351769,2.723667130853278,0.1622397693496358,-0.810000025,-1.69650005,5.427975099999999,-0.2693625,0.08445,0.17497500500000002,14.145526,0.53625,0.894450025,1.871475055,8.7175509,0.8056125000000001,-0.271500025,-0.36697501,9.507037875,0.0988625,0.29034373937499997,1.0981875494625,5.378475549999999,0.244853125,59,48,0,18,3,14,62,44,-0.5017625425114132,-0.518708446737409,-0.03320230198047371,0.29720371865454487,-0.3138588836368563,-1.102385080769427,-1.47878912969055,-0.04111098918640188,Squat
-0.2819068654032257,-0.513350824032258,9.28534767016129,-0.00938548385080645,0.19567711571263635,0.6405014950105956,2.2870703416066216,0.2328238442051692,0.15035510624869924,0.5791775704890739,1.6033982598335068,0.16888541233623827,-0.810000025,-1.69650005,5.427975099999999,-0.41215625,0.08445,0.18195001,14.145526,0.53625,0.894450025,1.87845006,8.7175509,0.94840625,-0.2599875125,-0.256275005,9.291000499999999,-0.02997499975,0.19852501999999997,1.1440500515,1.6240692500000016,0.1950609375,58,42,0,34,4,20,62,28,-0.6409419030607073,-0.5648912873474746,0.5819597405066582,0.6310070889597058,0.530996316187367,-1.2136402083800497,0.23173881289411602,0.6047983343544971,Squat
-0.2665306501290323,0.005807662193548387,10.149012558870966,-0.06872116956048388,0.15321586207371948,0.18143789971290766,2.403840280231149,0.15625016157258245,0.11926927633922994,0.14203185896774193,1.9070664819458891,0.12065217202406348,-0.567,-0.55305,7.41345015,-0.41215625,0.027525001,0.33000001,15.444001,0.19696875,0.5945250009999999,0.88305001,8.030550850000001,0.609125,-0.25222501,-0.005512500499999999,9.6110255,-0.058953125999999995,0.14715000499999997,0.249618753625,3.0625318749999995,0.178853125,59,31,0,38,3,31,62,24,-0.2477549076448708,-0.24527281646948756,1.0068736128736306,-0.62923134079154,-0.3297043298361002,0.17109703666804554,-0.06472707918997544,-0.13860579278545515,Squat
-0.3394754114758065,-0.34486453246370974,9.978786708064515,0.017548991701612903,0.1915494230592766,0.5821624877366779,3.2096244155970206,0.24735427693676634,0.15216259121227887,0.5044479936582986,2.7823778254942773,0.1867992584386056,-0.87150003,-1.49302505,5.351475150000001,-0.4433,0.027525001,0.39045001,15.444001,0.61215,0.899025031,1.8834750599999999,10.09252585,1.05545,-0.31222500975,-0.10653750399999999,9.430238,0.03031875,0.24097498999999997,0.8560875575,5.319206375,0.2855187495,60,41,0,28,2,21,62,34,-0.47560298235561815,-0.6964505240932142,0.31557374197261995,0.6723370417942937,-0.024222238922326778,-0.7452397255291054,-1.1356708967888365,0.6140614240911435,Squat
-0.29254113872580634,-0.3089625153669355,8.960779113709679,0.0007152217661290265,0.23291033462802915,0.6125323950600503,2.1807917555027685,0.24106295444263914,0.18681134776847041,0.5255274434255982,1.5534876025494273,0.16507697709833502,-0.87150003,-1.49302505,5.351475150000001,-0.4433,0.21802501,0.40095,15.444001,0.61215,1.08952504,1.8939750499999999,10.09252585,1.05545,-0.29550002000000003,-0.183975,9.28203775,-0.029734375,0.32075624999999997,0.9304313074999999,2.1557437375,0.1419,56,38,0,34,6,24,62,28,-0.02834780404702908,-0.6254320797680684,0.6086688077315787,0.8381816743233178,-0.2425920173682501,-0.8436923246844441,1.0300163502200554,1.4448022939623328,Squat
-0.10500847166935486,0.12711895416129038,10.332953754838705,-0.01264334677419355,0.2554645026151633,0.2770432898978849,2.394112161694895,0.15076990068799023,0.20712191085744014,0.25543427987096773,1.9743621657648267,0.11718727237252861,-0.544500025,-0.43897502499999996,6.6789753,-0.4433,0.46350002,0.5915250000000001,14.922526,0.25829375,1.0080000450000002,1.030500025,8.2435507,0.70159375,-0.13552500750000002,0.11925,9.6347635,0.0209,0.33350626650000004,0.514668759,2.6707120625,0.174075,41,28,0,30,21,34,62,32,0.08516058999948461,0.00048277702839411257,0.46187978248173256,-0.43495630944284747,-0.6243139761301215,-1.3917305968417162,-0.6428597847277642,0.7493613773099344,Squat
-0.032338307040322575,-0.13962218643548388,10.138020176612901,0.0669414314516129,0.2460072287772534,0.48954393682476205,3.069132295634468,0.31575143722941607,0.2029654584823101,0.3828865259474505,2.5998570653225803,0.23839094693028098,-0.573,-1.3230001,4.74000015,-0.6271374999999999,0.46350002,0.5915250000000001,14.922526,0.62858125,1.03650002,1.9145251,10.18252585,1.2557187499999998,0.014512499749999998,-0.1125000055,10.1840255,0.07603750000000001,0.368137513375,0.66324377375,4.7355939625,0.37819375,30,38,0,23,32,24,62,39,-0.29122029206376127,-0.6319328384647537,-0.17133109723059411,-0.3333029385005167,-0.40355412168886406,-0.08172792906497373,-1.0171255689127712,0.10108591442462744,Squat
-0.09330363009354839,-0.1627354912580645,8.643377804032259,-0.02785262080645161,0.21870644985312426,0.4352167250732557,2.0006322756089845,0.33262705788351415,0.1827932674578564,0.3508621908480749,1.5400545599635795,0.2693111341207075,-0.573,-1.3230001,4.74000015,-0.6271374999999999,0.38895002,0.21495001,13.382025500000001,0.62858125,0.96195002,1.53795011,8.64202535,1.2557187499999998,-0.06401250150000001,0.058012505,9.039750375,-0.114915624,0.28940625400000003,0.60528751875,2.449499837500001,0.40113906250000003,35,30,0,40,27,32,62,22,-0.24740253684235902,-1.233090941129698,0.032375525203530105,0.3858927431082745,-0.38839344412998233,0.5503439068775458,0.268523478118706,-0.3612205992109607,Squat
0.026906857487096775,0.041772584532258086,10.574139225,-0.01618951608064517,0.21279705841814914,0.42034535829375064,2.2743336090515487,0.18582248894574285,0.17221889349386055,0.292808130665973,1.9884896927419355,0.15544718361316343,-0.37350001499999996,-1.17952505,7.2125254000000005,-0.29418125,0.41805001500000005,0.631500025,14.176501,0.36685,0.79155003,1.811025075,6.9639755999999995,0.66103125,0.0135000005,0.13905001,9.99375075,-0.02605624975,0.31113751437500003,0.27105001,3.462619125,0.3104406245,28,19,0,35,34,43,62,27,0.3163298497621628,-1.4204300321199987,0.1545712950045058,0.3198505931226833,-0.816001499547522,1.9938615477345527,-1.2140280768769607,-0.8595364216855672,Squat
-0.007927014041935479,-0.022066933903225797,10.305613814516128,0.11956290274193547,0.3038367163229923,0.49335008819829984,2.7580110027944356,0.3058810912361233,0.22454731584947968,0.37550519434599383,2.239690883194588,0.21925412290946927,-0.8964749999999999,-1.17952505,4.768500250000001,-0.46908125,0.41805001500000005,0.631500025,14.176501,0.8188125,1.314525015,1.811025075,9.40800075,1.28789375,0.0135000005,0.07500000300000001,10.045275499999999,0.07906249900000001,0.304050015,0.399487519875,3.4049446250000024,0.22604999975,29,23,0,21,33,39,62,41,-1.0657289702833836,-1.0808151347834953,-0.44136811672971443,0.4410183750374643,1.1920724056606877,0.3056340910804316,-0.5579140110224698,0.6249940791842743,Squat
-0.05756370961451612,0.15435363327419355,8.453059274193548,-0.005757257854838709,0.25676141678257286,0.3498717049544035,1.5591269429266825,0.3388002779769334,0.176349433312487,0.22155476822528622,1.2703523849115508,0.2528964806066597,-0.8964749999999999,-1.17952505,4.768500250000001,-0.46908125,0.21900001,0.510525,10.0395,0.8188125,1.11547501,1.69005005,5.27099975,1.28789375,-0.0052499995,0.1965,9.01301325,-0.0787875,0.2172187575,0.28835626524999997,2.2521197000000006,0.33165,31,11,0,40,31,51,62,22,-1.7389700820667573,-2.1528453105917125,-1.170525818832551,1.0313894747894565,2.7787587625778976,5.054037196122586,0.312806489973521,0.6136974285194463,Squat
0.0451633088951613,0.5125463866935485,10.323900459677422,-0.03339475741935483,0.147795966911676,0.35545594971825395,1.9642402320069283,0.18077050930782268,0.12311078786030175,0.26536202761706557,1.6876960189906351,0.14481196576040584,-0.27997501,-0.39097501,7.3215002,-0.35880625,0.239550015,1.17802505,13.7480255,0.37516875000000005,0.5195250250000001,1.56900006,6.426525300000001,0.733975,0.080287503,0.477975,9.898725375,-0.065106248875,0.22685626,0.3535124875,2.891474500000001,0.22479530799999997,21,2,0,36,41,60,62,26,-0.7240059124175572,0.2547143279277704,0.13428256115133924,0.05099799304042882,-0.5137887409317248,-0.10327643523104602,-1.0285263476448834,-0.4278455530914349,Squat
-0.13090161768548395,0.19179798420967742,10.286684730645163,0.016177321032258062,0.27670162831934625,0.6590368273808822,2.4270718113236165,0.2509400154982098,0.23431694602419356,0.5770773034729448,2.080643118002081,0.20691574886992714,-0.7695000000000001,-1.0350001,5.6079752,-0.42178122500000004,0.239550015,1.17802505,13.7480255,0.43745625,1.0090500150000001,2.21302515,8.1400503,0.859237475,-0.134025005,0.28301251000000005,11.005725875,0.025540625000000004,0.43636877125000006,0.97601253,3.515718937500001,0.36021562500000004,39,25,0,28,23,37,62,34,-0.48014749118715433,-0.14283096918544014,-0.4745878674602122,-0.14336363297721252,-0.6809629505918164,-1.150806877309789,-0.8022022953198857,-0.8999261340899309,Squat
-0.2754508172419356,-0.050874201790322565,8.614438643548388,-0.01367126761290323,0.20870618767222762,0.4221041095252324,1.7207476263894022,0.2375270128529175,0.16720318132310097,0.35328287647814766,1.3378688701873047,0.18687405100728408,-0.7695000000000001,-1.0350001,5.6079752,-0.42178122500000004,0.15802501600000002,0.5585250399999999,13.0149755,0.43745625,0.9275250160000001,1.59352514,7.4070003,0.859237475,-0.31252501,0.075000002,8.846775,0.0031625,0.24108750625,0.6385500399999999,2.2943062875000013,0.308721875,56,24,0,30,6,38,62,32,-0.1031428521464578,-0.7469925382194036,0.2487205666147937,0.0010456846640963054,-0.19158121575259868,-0.4627739843849006,0.06342075524054103,-0.6182350214429384,Squat
-0.0436040335564516,0.11556169640322576,10.442716066129034,0.013459475649193548,0.2538180243052023,0.2440135156764951,2.2028188055254927,0.08172257051396022,0.22237056057804366,0.170292928925078,1.987330016649323,0.055402126324921946,-0.45255002499999997,-0.56947502,6.91200045,-0.310475,0.44797502499999997,0.459000015,14.003025749999999,0.17771874999999998,0.9005250499999999,1.028475035,7.091025299999999,0.48819375,0.0097125005,0.15225,9.8547375,0.009590624874999999,0.427500012,0.20754374875000003,3.648375125000001,0.078684374,31,9,0,23,31,53,62,39,0.02703839329434752,-1.4678008866600303,-0.07496960050755302,-1.2605108583686728,-1.1623249586855153,2.051697271349374,-1.2766718320470167,3.438203729093213,Squat
0.2639092878709678,-0.17878670179838707,10.408002054838711,0.05831995793951611,0.22981709666523573,0.37988849572572386,2.4180771736502202,0.272130569171995,0.19059608274609788,0.3425326207692508,2.0506981898543186,0.17429562723061912,-0.27900001,-0.826500025,5.7309754,-0.27438125,0.736500055,0.3,14.003025749999999,0.807606235,1.0155000650000001,1.126500025,8.272050349999999,1.081987485,0.27450001,-0.1217625065,10.73175,0.00862812475,0.35285627062499997,0.713718795,3.5211185625000017,0.14870624999999998,6,33,0,29,56,29,62,33,0.08793583260595789,-0.3393058596965996,-0.466354937748924,1.7867961312878888,-0.39766792745787294,-1.346585234916345,-0.8225515954947271,2.5553197212801644,Squat
0.2639322696508065,-0.07744597124999998,8.753390743548387,0.02500392979032257,0.22357027893857226,0.4152794476658426,1.5589919077910426,0.2894664283994289,0.1866491003154007,0.3557499093870968,1.2700527647242457,0.20714249586784592,-0.27900001,-0.826500025,5.7309754,-0.27438125,0.736500055,0.49845001499999997,11.8620005,0.807606235,1.0155000650000001,1.32495004,6.1310251000000004,1.081987485,0.176025,0.057000002499999994,8.887762625,-0.075590625,0.32799376625,0.70025625075,2.185294449999999,0.21615,4,26,0,39,58,36,62,23,0.1888161070562555,-0.45310578957498193,-0.18025337256280496,1.740042437591764,-0.20073359134646607,-1.0017245226264904,-0.5767842018963005,2.136402301999584,Squat
0.1133141147717742,-0.07959919961290324,10.243481106451613,-0.024937399403225806,0.1345137663507456,0.61698298120254,2.6347407856681606,0.16226130104216452,0.09626874622541624,0.5279166746690946,2.263155335900104,0.12575372962903228,-0.37950003499999996,-1.3089751,6.190500200000001,-0.42920625,0.46350002,0.66000002,15.161026,0.24309999999999998,0.843000055,1.96897512,8.970525799999999,0.67230625,0.127500005,0.097500002,9.993225500000001,-0.020590625,0.14204999999999998,1.000237525,4.3180318875,0.2052015625,8,21,0,34,54,41,62,28,-0.26503138825273803,-0.7183689454992289,0.36938099284640585,-0.690119732942896,2.245186539429727,-0.8605080574951036,-0.9646806969184669,0.3074920772917751,Squat
-0.08779113651612908,-0.2305645288225806,10.232704148387095,0.00833538356451613,0.19138406366558297,0.5919134370868906,2.5840240381688675,0.2177294445082078,0.1553669960790843,0.527137252133715,2.0495010010405816,0.16705352131893864,-0.59152505,-1.3089751,6.190500200000001,-0.42920625,0.30900001,0.66000002,15.161026,0.38616875,0.90052506,1.96897512,8.970525799999999,0.815375,-0.157950015,-0.10500001,9.7400255,-0.01244375,0.22410001375,0.82822503375,3.0906752500000003,0.27085781237499995,39,33,0,34,23,29,62,28,-0.20130980151270758,-0.2339909128760376,0.34646831240729076,-0.20606991919343645,0.21556632228534633,-1.1379636088106804,-0.6359087717154188,-0.35088981135724717,Squat
-0.13075403927419357,0.1866737985967742,9.657458960483874,0.020110484322580648,0.15862450701426545,0.49006948852196636,3.174646712467224,0.17343725592856366,0.11659870621800207,0.36710429589958365,2.2621575008844954,0.1238166032950052,-0.59152505,-0.641025025,5.3790001499999995,-0.42920625,0.13800001,1.2045001,16.2579755,0.38616875,0.7295250600000001,1.845525125,10.878975350000001,0.815375,-0.18000000500000002,0.154500005,9.474975749999999,-0.00979687525,0.1475250145,0.44368127325,2.3928749125,0.127170312375,50,21,0,33,12,41,62,29,-0.2823411015350826,0.4541277392467944,0.7803761760184946,0.3251081709967082,1.0113000228629172,-0.10116989241349827,-0.18551588259373197,0.5811373423472204,Squat
-0.028538708693548385,0.08304073416935485,9.781338381451613,-0.012024597467741939,0.2301236652899312,0.5827683397226889,3.7329227201300257,0.1488156605611953,0.18198497156191465,0.4902047796753382,3.1942038659729444,0.11048768761186264,-0.62700003,-0.68295,5.3790001499999995,-0.322025,0.383025015,1.2045001,16.2579755,0.29521249000000005,1.0100250450000001,1.8874501,10.878975350000001,0.61723749,-0.0429750005,-0.08148750225,8.691788,-0.004159375250000001,0.3123750115,0.89257501375,7.2697320125,0.132945312375,35,36,0,32,27,26,62,30,-0.27192192047855224,0.6523034355258281,0.5679636264154079,-0.4079375650647503,0.11200912092852455,-0.7524342963235942,-1.1349243478190292,0.34200024989622424,Squat
-0.10472782762096775,-0.09957338784677418,9.015756421774196,-0.038475605499999996,0.2371147548532339,0.35624739926756693,2.3974386441824014,0.15311006178642034,0.17611304383506765,0.27600125629604577,1.7558233277315292,0.11827646887096777,-0.62700003,-0.68295,5.85847515,-0.322025,0.383025015,1.17952505,16.1274755,0.29521249000000005,1.0100250450000001,1.86247505,10.269000349999999,0.61723749,-0.124500004,-0.02475000125,9.185775750000001,-0.0338937495,0.21558751475,0.5250187665,2.7160498125000014,0.17269999875,47,32,0,36,15,30,62,26,0.39547076681507454,0.7602913342222389,1.0030558709271478,0.010369317739338083,0.0007324569865101438,2.0423458502498733,1.1695553947261477,-0.082876864947667,Squat
-0.07308387650806451,-0.120695568516129,10.658523738709679,0.034821874419354845,0.1556933512039852,0.5129005003126534,3.2724247418586736,0.14672411538031088,0.12108715544432883,0.3331187147003121,2.7033873943808535,0.11800383004058275,-0.367500025,-1.67805005,5.85847515,-0.18005625,0.33802502,0.34050000999999996,16.731975,0.39675625,0.705525045,2.01855006,10.873499849999998,0.5768125,-0.059550001500000005,0.07222500025,9.71973775,0.0142999995,0.196331265,0.27502501349999997,5.0713877499999995,0.2240390625,42,24,0,26,20,38,62,36,0.13040001436111734,-2.1794405538710424,0.5336795525391496,0.586979493085032,-0.011477514782622933,3.807849143688526,-0.8169002064642732,-0.23233191350192728,Squat
-0.19370565677419357,-0.261578233766129,10.460846751612902,0.019918648629032257,0.2871602365809429,0.5391064700044185,3.434361578349778,0.32006629264013103,0.26001525780957335,0.37204784987226847,2.8309209344432875,0.2358031277055151,-0.71550002,-1.67805005,5.61802525,-0.7684875,0.33802502,0.34050000999999996,16.731975,0.40665625,1.05352504,2.01855006,11.11394975,1.17514375,-0.058499999999999996,-0.11801250225,9.7592255,0.044068750000000004,0.484500025,0.14173125937499997,5.963925137499999,0.33448593625,39,49,0,26,23,13,62,36,-0.25368534987563346,-1.702919717861517,0.5054680692815489,-1.116101103670935,-1.3106995072904055,1.9283153472464596,-0.9330418162476573,0.9265328826201662,Squat
-0.414581871532258,-0.16172903708870964,8.286312466935486,0.003176915290322579,0.20133863107608788,0.31678201639206954,1.7147489501001059,0.2960201945896529,0.15578382572840793,0.19649657083090524,1.4884218276534857,0.19174546694276795,-0.71550002,-1.67805005,5.61802525,-0.7684875,0.046500005,0.123000008,12.8365505,0.40665625,0.762000025,1.801050058,7.21852525,1.17514375,-0.453450025,-0.102450007,8.66471275,0.053246875,0.22666877000000002,0.15841875725,2.9901186875000008,0.1285625,57,46,0,18,5,16,62,44,1.0289468877009302,-2.752969114416462,-0.05348806929873133,-1.3739242245473522,0.06466950373621927,9.067386222232296,-0.7753342502217415,1.8725380653371353,Squat
-0.1922649241532258,-0.4569568731451613,10.13474332096774,0.05407741923387097,0.34209295403832074,0.615517327047096,3.4780294341719857,0.15817752164341414,0.29570542125130067,0.4998431014360042,2.9411766489594164,0.10917113677575442,-0.64095002,-1.76145005,5.6350503,-0.3762,0.56647503,0.41850002000000003,16.718552,0.317625,1.2074250499999999,2.1799500700000003,11.0835017,0.6938249999999999,-0.232050015,-0.2322375025,9.537975,0.06881875,0.548025015,0.7491000166249999,5.670056887500001,0.16307499949999998,42,44,0,17,20,18,62,45,0.4804091674580602,-0.9442164908216484,0.4831224084332086,-0.5952653182651495,-0.8809006908683847,-0.23841748373640526,-0.9716640391637057,0.9967457977460312,Squat
-0.2596584756854839,-0.5329367135806452,10.502738092741938,0.012132157169354838,0.3966266759651127,0.5789417121605355,3.178038639730024,0.22395533793976524,0.3258702890647763,0.4801079531259106,2.567862391779397,0.18351911088995837,-1.01700005,-1.76145005,5.6350503,-0.3762,0.56647503,0.41850002000000003,16.718552,0.38011875,1.58347508,2.1799500700000003,11.0835017,0.7563187499999999,-0.32047501,-0.26598750499999996,9.7587005,-0.034478125,0.601931275375,0.6482437649999999,4.3903880000000015,0.33244062500000005,44,58,0,32,18,4,62,30,0.20394091651438903,-0.9038483781656222,0.47782330637528314,0.13993039122979195,-0.6728534337276635,-0.2059354805600515,-0.6576734171553555,-0.9061752096803231,Squat
-0.4057221928225806,-0.2932040422903225,8.72909922903226,0.03174254032258065,0.21392748801182987,0.18954470263961873,1.5473500610871196,0.20063647928368666,0.1654274469094693,0.1400360086503642,1.299715365764828,0.16037722424557757,-1.01700005,-0.7575000199999999,5.6350503,-0.3762,-0.075,-0.062025006,11.7624755,0.38011875,0.9420000500000001,0.6954750139999999,6.127425200000001,0.7563187499999999,-0.34275002250000003,-0.279262505,9.479287625,0.004331250000000001,0.23197497999999994,0.18676876999999997,2.0084625999999997,0.3095640625,62,62,0,30,0,0,62,32,-1.2876984208302638,-1.1501291916963887,-0.737691493507225,0.24401457716600036,1.2383738468466108,0.7986589696979012,-0.5978679370241018,-0.7051655354968096,Squat
-0.33314396580645167,-0.3370863089032258,10.348700092741934,0.027014314516129036,0.22288378051248056,0.3033743400182545,3.2445994970585437,0.18340148688359312,0.17927502053590008,0.20316143520395416,2.7517262095473463,0.1589581555671176,-0.69150003,-1.0865251,5.6544752,-0.22371249999999998,0.072000004,0.11797500999999999,16.0389755,0.31748750000000003,0.763500034,1.2045001100000001,10.3845003,0.5412,-0.31050002,-0.31402501,9.690000999999999,-0.021071875,0.35452501750000004,0.19612499625,5.017950362499999,0.31810625000000003,55,53,0,32,7,9,62,30,0.04640496312336713,-0.9829420638696724,0.2912838274134681,0.3122343114012409,-0.9336250986236316,1.1065680338808654,-1.0577306393958268,-1.268160208957933,Squat
-0.2628617015241936,-0.2558419520725806,10.58995933467742,-0.03786572580645162,0.2589361610619855,0.32497286812701065,3.057285042544828,0.16719673373182908,0.23361880425468265,0.24010600088163372,2.4824835150884494,0.14246330645161293,-0.69150003,-1.0865251,5.6544752,-0.28269999999999995,0.168975013,0.11797500999999999,16.0389755,0.29535,0.8604750430000001,1.2045001100000001,10.3845003,0.57805,-0.13050000075,-0.15450000749999998,9.823800250000001,-0.037296875,0.5208562762500001,0.273637519,3.264450374999999,0.271425,54,53,0,33,8,9,62,29,-0.41048027361897726,-1.3997602327909682,0.22723885159267257,0.35175947655338585,-1.3577449835547792,1.2756116305392746,-0.7602560672753849,-0.7676820345782049,Squat
-0.12299758508064515,-0.2057733978225806,8.81804195,0.008584879040322584,0.12604032191905318,0.1611337292232332,1.5902149355421473,0.15322228469611102,0.0873383228194589,0.1329833572814776,1.2614187645161288,0.10899207205931323,-0.502500025,-0.58155002,5.6544752,-0.28269999999999995,0.24105,-0.00697500025,12.872475999999999,0.34650000000000003,0.743550025,0.57457501975,7.218000799999999,0.6292,-0.096000001,-0.13147500499999998,9.20801275,0.0165,0.094725012375,0.22021876025,2.2389935999999997,0.14306875,57,62,0,27,5,0,62,35,-0.5530448950245381,-1.0493459714910929,-0.07075138902663863,0.273478040426771,1.9071414116300218,-0.0518306769983794,0.0872728348907561,0.44529913451148495,Squat
-0.14275645762903222,-0.5099976013306452,10.184874591935484,0.0008294354919354837,0.20173286877077576,0.49570148635540673,3.2623724456903638,0.2046723946296522,0.1383595516909469,0.39757946194849125,2.8279062734651412,0.14991255853251823,-0.745500025,-1.5819751,5.9364752,-0.4717625,0.24105,0.004499999500000001,16.4445005,0.34650000000000003,0.986550025,1.5864750994999999,10.5080253,0.8182625,-0.097050005,-0.39352502,9.1380005,0.009315625125000001,0.126281257125,0.47626879,5.5659565375,0.1964703125,51,58,0,30,11,4,62,32,-1.3052413084070735,-1.0130141972603444,0.6446737707047914,-0.6660300542866188,2.0706812838769624,-0.20216928532428824,-0.9250766273553066,0.5018008252681958,Squat
-0.21130524687096772,-0.4730334826935484,10.366643196774195,-0.008984072645161297,0.215689950377307,0.591514554194238,3.0285255328344167,0.3134913104836375,0.1704903003257024,0.5263692534604578,2.4603477244536953,0.24164287193756506,-0.745500025,-1.5819751,5.9364752,-0.4717625,0.24105,0.158550005,16.4445005,0.7363124999999999,0.986550025,1.740525105,10.5080253,1.208075,-0.17354999999999998,-0.19897501099999998,9.693975250000001,-0.04228125,0.25691251125,1.066293768,4.348087124999999,0.354475,52,38,0,34,10,24,62,28,-0.6668634109334934,-0.6610380057414501,0.7290524163997152,0.8303954138557484,0.05122814611826376,-1.0845955119358526,-0.5515124543329031,0.442072866508989,Squat
-0.10091492025,-0.0739717759435484,9.87805569032258,0.06516280219354835,0.2136171929223378,0.3784506484054345,3.070770208681433,0.26795039414777727,0.17117443219354836,0.23705853664932364,2.312260950156087,0.1883646264578564,-0.552,-1.215525,5.5665,-0.3564,0.24202502,0.46747500000000003,16.4720255,0.7363124999999999,0.7940250200000001,1.683,10.905525500000001,1.0927125,-0.0817500065,0.023025001500000003,9.586012750000002,0.059675,0.23692500587499998,0.147637508375,2.8900874750000005,0.23148125000000003,42,25,0,23,20,36,62,39,-0.28410384015410994,-1.7367587032180074,0.7442812259305539,0.9914108020394736,-0.5145815664931277,3.219789139279004,-0.2595045239088294,1.0510211624617938,Squat
-0.053369758798387096,-0.41896695089516117,9.851141529032258,0.08339596903225807,0.18715601163717482,0.5404590245022404,3.622815330588195,0.29013179906858416,0.1471865308241415,0.4677640104529136,3.090879204266389,0.20505220299687826,-0.532500015,-1.36755005,5.5665,-0.626656235,0.24202502,0.46747500000000003,16.4720255,0.533225,0.774525035,1.83502505,10.905525500000001,1.1598812349999998,-0.050025,-0.376012505,9.148013,0.10374375,0.211237506875,0.883106281625,6.432262775000002,0.22740781249999997,36,45,0,17,26,16,62,45,-0.4220021231762391,-0.20625351976760642,0.5177810329916555,-0.9158991296836843,-0.3930426279627235,-1.0349035356657137,-1.0460865171373104,0.9499002228127558,Squat
-0.17700121679032257,-0.6028790518225805,8.810409990322581,-0.014331046387096775,0.14172013140378686,0.37238117742630494,2.190101387589036,0.3272035563855939,0.11687529093964619,0.3129796920197711,1.5550324457856404,0.26055548752549423,-0.532500015,-1.36755005,5.57505025,-0.626656235,0.09045001,-0.078525,16.4720255,0.533225,0.622950025,1.28902505,10.89697525,1.1598812349999998,-0.18195001,-0.48000002500000005,8.98200025,-0.033584375,0.20863125499999996,0.53137503125,2.7077622875000005,0.5455656249999999,52,62,0,39,10,0,62,23,0.01843392717790626,-0.7055743651091568,1.1984587625114673,-0.01782843769283489,-0.5992286551615598,-0.6505243961888301,2.5401049155004056,-0.7313164277186996,Squat
-0.2917887215403226,-0.6143201864677418,10.618603223387098,-0.019014919129032255,0.17952779086021908,0.5393636145331322,2.9410220985274957,0.23558376921518276,0.1366295563506764,0.4097213518142559,2.427777898777316,0.19316889879292404,-0.730050015,-1.8904501,6.7074750000000005,-0.36822499,0.065025,-0.014475001,16.6359755,0.42356875,0.795075015,1.875975099,9.9285005,0.7917937399999999,-0.26073751749999996,-0.43552501,9.642,-0.055790624000000004,0.21982500574999997,0.5591437665,3.477037750000001,0.373346875,61,62,0,43,1,0,62,19,-1.0051990920978957,-1.2930456035182984,0.6907248059631859,0.5877795310029011,0.575498926786433,0.6648079358565795,-0.5591431317816165,-0.8760299863003942,Squat
-0.26588710496774187,-0.6883585016935485,10.357920291129032,0.01707661354838711,0.27688234822584024,0.6224688113027664,3.195404512731136,0.4138649586396555,0.23395162187096774,0.5197015249765868,2.6285470474765864,0.3512116988449532,-0.7645500199999999,-1.8904501,6.28252525,-0.61331874,0.1875000125,0.095475006,16.6359755,0.8602000000000001,0.9520500325,1.985925106,10.353450250000002,1.47351874,-0.273300006,-0.6394875250000001,9.7867505,-0.055928124999999995,0.4250250145000001,1.0913813107499999,4.760944212500001,0.594721865,49,54,0,35,13,8,62,27,-0.07258983824177015,-0.5348615762671248,0.5431709724279353,0.387210724427561,-0.9776117193767102,-0.8754675570997441,-0.7741979667998464,-0.6630362342572123,Squat
0.025548388709677433,-0.22372259374032255,8.625651134677419,-0.03453578528225804,0.3149073807971787,0.4713231524210498,1.4024399806967842,0.37252094069896,0.26022768715972944,0.34888003932169603,1.2859958392559834,0.24872011486992718,-0.7645500199999999,-1.3760251000000001,6.28252525,-0.61331874,0.40597501,0.238500005,10.0815,0.8602000000000001,1.1705250299999999,1.614525105,3.79897475,1.47351874,0.13972500525,-0.06900000222500001,9.4625255,-0.03795,0.45127500875,0.44321252025,2.721750137500001,0.2510234375,24,33,0,44,38,29,62,18,-0.7853131066205188,-1.4491662186630254,-0.5361478833298629,0.8224137699521752,-0.33071564935064357,1.0354999446550126,-1.3890434073446054,0.7283666199401728,Squat
0.08558588993548391,0.04309476588870966,10.421931492741935,-0.006189717790322581,0.23320003431218994,0.44339640727150054,2.6464561942234472,0.10290359865685704,0.19933946951404785,0.32634702372060354,2.218786247086368,0.07455576210770029,-0.348525015,-0.783525,6.50400045,-0.21683750000000002,0.40597501,1.1120250999999999,15.121050499999999,0.20150625,0.754500025,1.8955501,8.61705005,0.41834375,0.07698750225,0.0319875015,10.010475,-0.011824999499999999,0.42988126,0.437643755,4.1076005,0.10412187499999999,23,29,0,37,39,33,62,25,-0.26742387234484477,0.9563908522542928,0.2513870769555253,-0.0056228270069878265,-1.0992273809831974,0.7411303321356066,-1.0356441812535264,0.12012852820690645,Squat
-0.1706576681451613,-0.2909407367056453,10.086116673387096,0.053448689572580636,0.2676387569502549,0.6188031791227684,3.2094929013339453,0.3223292813313924,0.22362776828824144,0.48409326570993755,2.851210031347554,0.23114747963709678,-0.64950004,-1.1030250750000001,5.3109753,-0.44515625000000003,0.328500015,1.1120250999999999,15.121050499999999,0.85965,0.9780000549999999,2.215050175,9.8100752,1.30480625,-0.1434750005,-0.40252502749999997,9.801750375,0.047918749999999996,0.42408752125,0.7445062560625,6.0197064125,0.34161874999999997,44,49,0,26,18,13,62,36,0.0015623856116886263,0.8311007956627079,0.00858066991258717,0.9079828031387114,-0.7904966519721635,0.10224473788204103,-1.414988545735518,1.0507113312842389,Squat
-0.2820072709838709,-0.46151615075403235,8.724013716129031,0.10641280401612904,0.2005974693555681,0.3673579851520114,2.0117111099195673,0.5392462932705641,0.14509839288709672,0.31390912284300204,1.685371857544225,0.46160191370967735,-0.64950004,-1.1030250750000001,5.3109753,-0.696987485,0.328500015,0.0215250005,13.4360255,1.0410125,0.9780000549999999,1.1245500755000002,8.1250502,1.7379999849999999,-0.2829750025,-0.43552500499999997,8.93647575,0.061565625,0.2533312675,0.605081271375,2.738850212500001,0.8488562500000001,58,61,0,30,4,1,62,32,0.6126381554057542,-0.358607782097567,0.13761938947814736,0.34175600052405425,1.283442810698114,-1.1422240970847366,-0.7045572121903945,-1.1193356654978424,Squat
-0.42324558548387087,-0.18849678021774194,10.220500791935482,0.11776542487096772,0.24993775543892427,0.3055117130430513,2.3976809209917906,0.5177999467278858,0.22862147346514047,0.2638897325101457,2.1289698115504683,0.44518375479812694,-0.85350003,-0.6555000200000001,5.73802515,-0.804649985,-0.075000005,0.5379750249999999,14.000475999999999,1.0410125,0.7785000249999999,1.193475045,8.262450849999999,1.8456624849999999,-0.31275000750000004,-0.2719875125,10.516987499999999,0.059743750000000005,0.46888124375000007,0.41581875375,3.8606443499999976,0.7860187500000001,62,47,0,29,0,15,62,33,-0.33744220644878375,0.34803191408345213,-0.23258703019054183,0.07568614880490256,-1.4297277401616975,-0.7471360914062175,-1.1803505430063188,-0.9179360529700373,Squat
-0.4698980085483871,-0.331028240766129,10.095755213709676,-0.07353810188709677,0.3010458095486822,0.4009740905887958,2.4434331229135293,0.3995652491149749,0.2365065794068678,0.2986953556984912,2.0393971688345474,0.332372193012487,-0.85350003,-1.17750005,5.73802515,-0.804649985,0.24997500000000003,0.5379750249999999,14.000475999999999,0.5728249999999999,1.10347503,1.7154750749999998,8.262450849999999,1.3774749849999999,-0.5074875175,-0.38497502,10.171013,-0.056443749875,0.43318126874999996,0.4493250099375,3.4500748749999985,0.6406812424999999,57,47,0,36,5,15,62,26,0.8829344474027068,0.015341910135641117,-0.26247840648542536,-0.08607273999156197,-0.059830529320432646,-0.23542936187866026,-0.9557190418543864,-0.8847202723463328,Squat
-0.30088670802419354,-0.1939427521935484,9.384036726612901,-0.005936892209677417,0.2362510867177967,0.5983670786427344,2.4520567248016536,0.3570675340836799,0.18394363603798125,0.47385064333818927,1.9910698210197713,0.3087579635499479,-0.79950005,-1.17750005,5.73802515,-0.804649985,0.24997500000000003,0.98805004,14.5335005,0.46591875,1.04947505,2.16555009,8.79547535,1.270568735,-0.337500005,-0.38497502,9.023250375,0.14688437512499997,0.32400001749999996,0.54303751575,3.0517693874999985,0.641575,57,46,0,26,5,16,62,36,0.3883410960520587,0.7012958590783867,0.42676059169628,-0.7055492818990013,0.2758525764753843,-0.4169716869108253,-0.7069054271336528,-0.682816273835515,Squat
-0.41633953232258064,-0.23967702870967741,9.78410730403226,0.069894355,0.48951900899819156,0.6740637606171705,3.2250767656552606,0.25749201621569456,0.37311369680228923,0.5593443254526534,2.9176883221644125,0.22649447822580643,-1.44450005,-1.3705500499999999,5.1369753,-0.47870625,0.45945,0.98805004,15.096000499999999,0.46591875,1.9039500500000002,2.35860009,9.9590252,0.944625,-0.30300001,-0.41152502,9.065025,0.15049374999999998,0.43813127500000004,0.9967500425,5.820244012500001,0.375237498,55,43,0,25,7,19,62,37,-0.8736722738370267,0.42419994177041287,0.235211372978617,-0.49965527805744225,0.0163743762641686,-0.8729234398273067,-1.407609322063463,-0.9034150082218337,Squat
-0.35865364405645167,-0.4522971990967742,8.876287773387098,-0.09594395145967742,0.5283982399295636,0.3860300340874436,2.616276764432951,0.19757331671067552,0.4086213979885536,0.3192342743506764,1.9584145353277838,0.1605605100028616,-1.44450005,-1.3705500499999999,5.1369753,-0.47870625,0.45945,0.34897501000000003,15.096000499999999,0.26489375,1.9039500500000002,1.7195250599999998,9.9590252,0.7436,-0.27652501500000004,-0.28245002,8.50500025,-0.088103124,0.598368774625,0.55726877125,2.3830122750000005,0.25970312500000003,46,59,0,46,16,3,62,16,-0.8324139922153724,-0.6534743309005286,1.0017065997985384,0.23820785663025648,-0.2608727424513426,-0.2947238762105582,0.3781233447360255,-0.6648175276631543,Squat
-0.2887548523387097,-0.22580202766129034,10.570078206451615,0.13564374808870966,0.2883820214001462,0.22710139457617354,2.9306247112227806,0.26844618969206324,0.2054427261030177,0.15829402242455776,2.6418261560874097,0.23731834495395424,-1.1210250800000001,-0.779025045,6.40552515,-0.28991875,0.22200001,0.272025002,15.0005255,0.581693735,1.34302509,1.051050047,8.59500035,0.871612485,-0.2717625175,-0.22447500999999997,9.5715,0.22955625,0.22423125374999997,0.19126875875,5.0831438625,0.403682812125,53,56,0,24,9,6,62,38,-0.5248304631639195,0.22229419964931765,0.2238134744904992,-0.08199795176508132,0.9398089231179139,0.613711686897453,-1.3995014897625981,-1.1691241593255817,Squat
-0.06851613455645159,-0.23697218682258064,10.469186402419355,-0.04587177483870967,0.45052309229054693,0.3057106260204868,3.07291866398625,0.48486810295833127,0.36594920786290325,0.2511574871659729,2.7231905141779396,0.4027395001404786,-1.1210250800000001,-0.911475065,5.56702515,-0.96036875,0.79597502,0.272025002,15.0005255,0.581693735,1.9170001,1.183500067,9.43350035,1.542062485,-0.1107374975,-0.182737505,9.4194755,-0.030215622500000004,0.51776252,0.36900000275,4.652999812500001,0.50005312375,35,52,0,32,27,10,62,30,-0.12050495230374507,-0.35590250650044186,0.09275356633437484,-0.6178317489532262,-0.4204407186865118,-0.5334912522256698,-1.2819014496246741,-0.8849316266805021,Squat
-0.04494073215322581,-0.5459516320645161,9.05807702016129,-0.009252420967741929,0.4316162717671852,0.4065908904916331,2.3486575602820863,0.7191020770454853,0.3452048401657129,0.34197925465348605,1.8112535872788764,0.5548256581685744,-0.9705000750000001,-1.2885000500000001,5.56702515,-0.96036875,0.79597502,0.104475,14.925000749999999,1.34165625,1.766475095,1.3929750500000002,9.3579756,2.302025,-0.070500003,-0.514500015,8.9790005,-0.14870624500000001,0.498262535,0.6819750175000001,2.9010005624999984,0.7656859375,35,58,0,38,27,4,62,24,-0.08616365204814276,-0.16382000973082841,0.5457831383467362,0.6520141634832766,-0.5378107114385942,-1.0906839728169837,-0.4281290428486333,-0.6052020131363891,Squat
-0.443893574717742,-0.7103129295967744,9.517263262903226,-0.0029285306129032415,0.403905769425025,0.3899882654251518,3.279877068587499,0.7208492012712512,0.34919034479838723,0.3252011833454735,2.8565030771071798,0.5971844586899064,-1.0810501000000001,-1.31850005,5.4459751999999995,-0.99281875,0.5665500450000001,0.11505000000000001,15.70147575,1.34165625,1.6476001450000002,1.43355005,10.25550055,2.334475,-0.42900001,-0.78225003,8.7259875,-0.19854999500000003,0.6035625445,0.5106187462499999,5.5357311,0.87883125,55,57,0,32,7,5,62,30,0.3339019750191463,0.4270714500465245,0.5221144298995166,0.6711320793996881,-0.46697442365443775,-0.47691175761023663,-1.0530932949708416,-0.7334709186025186,Squat
-0.41827743971774184,-0.417473001451613,8.752254825000001,-0.2707718744838711,0.36994453273681993,0.3731272061892446,2.7350570514099113,0.41914998041779794,0.2715272585965141,0.29285143945369413,1.9012694201612905,0.37214929390426627,-1.0810501000000001,-1.31850005,5.4459751999999995,-0.99281875,0.5665500450000001,0.11505000000000001,15.70147575,0.27266250000000003,1.6476001450000002,1.43355005,10.25550055,1.2654812500000001,-0.38752501,-0.37455001499999996,8.53672525,-0.32505,0.46996878249999996,0.4836375049999999,2.09692525,0.7696562499999999,55,54,0,39,7,8,62,23,0.3140704567248082,-0.6821035788907401,1.3460764170556714,-0.25974670062141175,0.29004403852806737,-0.20703446544212634,1.305776877254515,-1.2898991430282658,Squat
-0.4521363014677418,-0.40434436672580654,10.516940885483873,0.04288114887096774,0.20620820113455443,0.567312378203762,2.747038248147523,0.40018257544777364,0.1574803342336108,0.398893242980229,2.392495866545266,0.3011348007388137,-0.978000035,-1.6415250000000001,5.753550300000001,-0.99281875,-0.0260250005,0.59752502,15.467026,0.59640625,0.9519750345,2.23905002,9.7134757,1.5892249999999999,-0.391950025,-0.31050000999999994,9.708976,0.118971875,0.17476877375,0.2645437675,4.0959946249999994,0.41480312500000005,62,53,0,21,0,9,62,41,-0.6310636369836257,-0.6598286926321657,0.4112671199578075,-0.8792406588219036,0.2528760068818441,0.2750852533592343,-1.0497918045790837,0.4941851776629549,Squat
-0.3767879127258064,-0.5314040511612902,10.195123101612905,-0.01905040354838709,0.28927344443465175,0.5688963197990452,3.155615266190182,0.5174504656459809,0.2152827057637877,0.4398540190634755,2.6565385115504685,0.4047161547450572,-0.978000035,-1.6415250000000001,4.98652525,-1.25846875,0.19650000499999998,0.59752502,15.467026,0.63518125,1.1745000399999999,2.23905002,10.480500750000001,1.89365,-0.350550025,-0.4722750275,9.38355,0.0312125,0.21787502625,0.56724378875,4.088344750000001,0.72331875,53,56,0,29,9,6,62,33,0.146983309961276,-0.06295798062959021,0.0710937082088047,-0.8737897855914437,-0.2619818816199393,-0.0928487288842863,-0.9716429443075452,0.30837009724075015,Squat
-0.453756062,-0.2911270319193548,9.207681463709676,0.01593891096774193,0.4408217425727641,0.4579614644218721,2.8894633600701205,0.5280160911560011,0.33353156283870966,0.3520700007492196,2.188038333376691,0.4219660376795005,-1.59652505,-0.87645003,4.98652525,-1.25846875,0.19650000499999998,0.84097505,15.546976,0.63518125,1.7930250549999998,1.71742508,10.560450750000001,1.89365,-0.33750000999999996,-0.45097503,8.693025500000001,0.10477500000000001,0.21631877125000004,0.443531283,2.2765873374999988,0.7401968674999999,53,53,0,29,9,9,62,33,-0.8268767302039222,1.2054060231962171,0.7185051211997118,-0.9355672797411004,-0.10201190430973428,0.8221721925282774,-0.3299972903613435,0.3611716188653884,Squat
-0.7181395402419354,-0.4774778419032259,9.837262909677422,0.11147701612903221,0.597998864048819,0.699503568443751,3.536958435785974,0.5053996240355686,0.5141094846201872,0.5136971081966702,3.08381266514048,0.42390491610822056,-1.8570001,-1.8645000999999999,4.33305,-0.886325,0.596550055,0.84097505,15.546976,0.85305,2.4535501550000003,2.70547515,11.213926,1.739375,-0.5634750325,-0.4932375325,9.173475499999999,0.205046875,0.920474985,0.7004250065000001,6.427200662500001,0.7624374924999999,56,48,0,25,6,14,62,37,0.1080689352235014,-0.19824513688228892,0.13822525164378632,-0.4904084205917891,-0.6408049449153985,-0.034327622835627736,-1.2631643591856956,-0.7016271651132158,Squat
-0.5796459876612903,-0.8512379378064515,8.98865481048387,-0.06304374948387098,0.5374371246067748,0.46047936268177214,2.697194801909976,0.47795254411851884,0.38703662110041626,0.3004605469105099,1.959977653355879,0.38165564469406876,-1.8570001,-1.8645000999999999,4.33305,-0.886325,0.596550055,0.04049999800000001,15.546976,0.85305,2.4535501550000003,1.905000098,11.213926,1.739375,-0.52447501,-0.8087250425,9.381000499999999,-0.0927781245,0.42204378499999995,0.21757502624999991,2.4496122375000002,0.6425718650000001,56,57,0,35,6,5,62,27,-0.41604990665081326,-0.4288336761150083,0.4080493673111576,0.081594131980265,0.37857393572812503,0.7187026672915198,0.2506024515212588,-0.5909203407201828,Squat
-0.3880137194354839,-0.9048532613709677,10.448218871774193,0.05482923368548387,0.15173434990128903,0.1486816671168289,2.3278547069692483,0.3620954073797612,0.12527536864724245,0.1225759127055151,1.9819283089490114,0.28097473891909475,-0.73552503,-1.3435501,7.27252535,-0.60946875,-0.08700000499999999,-0.64102505,15.349499999999999,0.7913125,0.6485250250000001,0.7025250500000001,8.076974649999999,1.40078125,-0.389025015,-0.86497503,9.56973775,0.030765624999999998,0.192899995,0.21131251750000002,3.394762625000002,0.3920125,62,62,0,26,0,0,62,36,-0.21850593373710625,-0.443205698594704,0.6339343166626865,0.20623090039914413,-0.40570892303854755,-0.18894975236831701,-0.5980803832077979,-0.223087237965665,Squat
-0.016069354435483862,-0.8593149423387098,10.284824088709682,0.02015816394354839,0.3904120885963322,0.29123614214428617,2.7383889266207175,0.42220743764855007,0.33014142341571273,0.24081268243496357,2.2627074843912593,0.33496080069094697,-0.56550002,-1.3435501,5.31300015,-0.6824125,0.9110250200000001,-0.2235,15.349499999999999,0.7913125,1.47652504,1.1200501,10.036499849999998,1.473725,-0.13023750499999998,-0.923775045,9.912000125,0.03746875,0.65726253125,0.4462312237499999,4.255144249999999,0.5493984375000001,38,62,0,28,24,0,62,34,0.6559379643700078,0.5703610640322128,0.04308580819955381,-0.01680493262017448,-0.6507602359397597,-0.5018260676806849,-0.7746445091290504,-0.6976963250976866,Squat
0.11617137282903224,-0.7110544537903225,8.607043902419356,-0.05793850906451613,0.31494307797045185,0.2581327831457365,1.5826479736175953,0.3124525311242202,0.2656047818247138,0.20516227411810614,1.3296075246097814,0.23221725367845994,-0.38055001,-1.3435501,5.31300015,-0.6824125,0.9110250200000001,-0.2235,12.620474999999999,0.484549985,1.2915750300000002,1.1200501,7.307474849999999,1.166962485,0.021975005,-0.6675375075000001,9.0615375,0.03746875,0.51600002,0.28436251,2.529150175,0.1326015625,28,62,0,26,34,0,62,36,0.6535969848996512,-0.3952683180129282,-0.15646005769123786,-0.7162894987295523,-0.42464675116212103,-0.046067093178257856,-0.383989303188768,-0.05840346172902677,Squat
-0.20081009028387095,-0.7816173620967743,10.353656167741935,0.12718084677419356,0.2690183555298815,0.3639225855976057,2.289382509317064,0.11606957682529882,0.2017422044576483,0.28404167088969823,1.9531483242976067,0.0957510796045786,-0.776550055,-1.51995005,6.3780002499999995,-0.05726875,0.39900002,-0.157500005,14.7420005,0.368225,1.1755500749999999,1.362450045,8.36400025,0.42549375,-0.17928751250000002,-0.7200000175,9.7882885,0.1043625,0.328706259,0.32550003124999993,2.8792131249999997,0.20487499999999997,50,62,0,7,12,0,62,55,-0.19520442264863336,-0.49438691612247326,0.3617503257434724,0.4540831628023948,-0.1347179670749381,-0.4850577275513319,-0.8145861670418686,-0.7795519713479253,Squat
-0.13365000720967743,-1.0879125412096775,10.078529525000004,-0.20647842169354838,0.33316822662858075,0.4710688746748,2.712312353622654,0.5923017039667703,0.256882268862643,0.42122784476326747,2.1553427774193548,0.5063753630437045,-0.776550055,-1.6479750499999999,4.698975,-1.5344999499999998,0.50197501,-0.157500005,14.7420005,0.4387625,1.278525065,1.490475045,10.043025499999999,1.9732624499999998,-0.14197501,-1.2897376,9.8500505,0.11089375,0.515925017375,0.84714385,2.9198445625,0.9208031250000001,42,62,0,27,20,0,62,35,-0.021218336792837036,0.5574651600627333,-0.18012705209507401,-0.9927351970969233,-0.6743793394295721,-1.0512834891139207,-0.5136370460755497,-0.1561197251669455,Squat
0.025916128532258078,-1.2488081277419356,8.75324436451613,-0.16883890588709677,0.24283076337773202,0.3090309699231887,1.7305221348603794,0.6432791613765035,0.2135509954890739,0.27297823354838713,1.3028532168054108,0.537757342073361,-0.49650003,-1.6479750499999999,4.698975,-1.5344999499999998,0.50197501,-0.56445002,11.8299755,0.6145562499999999,0.99847504,1.08352503,7.1310005,2.1490561999999995,-0.0242625,-1.2562501,8.891250750000001,-0.12656875,0.43730626375000003,0.5516437499999998,1.6670250000000006,1.035821875,34,62,0,33,28,0,62,29,0.22189199500162457,0.42857715185909007,-0.5767628014509547,-0.7143205631737988,-1.0135800267148984,-0.8674815385667412,0.376953004238588,-0.4969875850364631,Squat
-0.045851615032258056,-1.1709665812096774,10.039511420161293,0.1875145158064516,0.19846003821203592,0.3620256195307732,2.644905329909129,0.47227233274638986,0.1679520072013528,0.2855783502367326,2.330167308558794,0.37440262718002093,-0.29400001,-1.8705001,5.55705045,-1.28720625,0.29947501,-0.43545000500000003,14.3514755,1.05001875,0.59347502,1.435050095,8.79442505,2.337225,-0.128250005,-1.1269501,9.650250375,0.28912812,0.276693755875,0.40421244999999995,3.900863000000003,0.6214999999999999,43,62,0,21,19,0,62,41,0.6074117731378004,-0.14144026301743612,0.014206420747779397,-0.359104191859009,-1.0403194125030557,-0.44334319719054704,-1.0819728521193757,0.45534428203271293,Squat
0.017662499806451615,-1.1234226358870967,9.645242433064519,-0.08779485919354835,0.22812814281204286,0.34601694585056153,2.690567878314358,0.7291247250542403,0.18877984287200836,0.24974072445369408,2.2581423045525493,0.5170035767533818,-0.29400001,-1.8705001,5.55705045,-1.8929624999999999,0.57000002,-0.43545000500000003,14.3514755,1.05001875,0.86400003,1.435050095,8.79442505,2.94298125,-0.0417374985,-1.1530501,9.217275625,0.08580000000000002,0.39948750725,0.3362811875,4.463513100000002,0.5688546800000001,34,62,0,25,28,0,62,37,0.6531342479012736,-0.20769820975236283,0.32346437093936364,-1.103113171120647,-0.5437840962882983,0.2185018615986145,-1.0382241489107247,1.1608394612984316,Squat
0.050327421040322576,-1.06650610766129,10.037561333064517,-0.02050967774193547,0.18248060939350152,0.21357756571107492,2.2039131613962355,0.6440201377392653,0.13087796922684702,0.17661721269510927,1.7796376131113425,0.41085407761706544,-0.299475,-1.5879751,6.8535004,-1.8929624999999999,0.57000002,-0.43545000500000003,14.7570005,0.546975,0.8694750200000001,1.1525250949999999,7.9035001000000005,2.4399375,0.019762500500000002,-1.1415000499999999,9.763988,0.15393125,0.14278125875,0.31248749249999985,2.8881191249999993,0.3885749975,27,62,0,16,35,0,62,46,1.0748562644236195,0.5292438673289602,0.7174035463650413,-2.1522732142063794,0.9016890257382122,0.10880409088075504,-0.40254597729719555,3.64764468311668,Squat
0.039649601911290314,-0.9760004458548387,10.219999991935488,0.03941925419354838,0.29571755341027206,0.44856869886033013,2.7170042582318015,0.35387675495873794,0.19995125800052027,0.3664052631774194,2.2685126696149838,0.307674850239334,-0.7119750300000001,-1.7460000500000001,5.5695004,-0.5937250000000001,0.7005000299999999,-0.078525002,14.7570005,0.546975,1.41247506,1.6674750480000002,9.187500100000001,1.1407,0.050475003000000004,-0.983512565,10.437038,0.0779625,0.247500009,0.5502187775,3.9117566250000007,0.605257812,24,62,0,27,38,0,62,35,-0.6426592901259751,0.27846914036608955,-0.05010133671661236,-0.12060919280384368,1.305545889802879,-0.5509857074115332,-0.8852609554205109,-1.2369196220245866,Squat
0.0039205664596774215,-0.5612528495322581,8.838072967741935,-0.04762489903225805,0.31324147883479636,0.5736379941298841,2.2065798074153986,0.3166827170833069,0.22804301381321537,0.4932840389255984,1.7023355957336108,0.23877955241415189,-0.7119750300000001,-1.7460000500000001,5.5695004,-0.5937250000000001,0.7005000299999999,0.063000005,14.2870505,0.8452125,1.41247506,1.809000055,8.7175501,1.4389375000000002,-0.006974998499999998,-0.26047501,8.768775250000001,-0.07638125,0.328500015,0.8164500800000001,2.3600259999999995,0.356365625,32,58,0,39,30,4,62,23,-0.35463318021779944,-0.876549179838534,0.5965376585997924,0.6239506072003457,0.3928828925136343,-0.6798626477851015,-0.20395127472774988,0.46389222247054285,Squat
-0.04505685615483872,-0.5115774459032258,10.272010212096772,0.13459143145161287,0.17710841296235832,0.7020067104279172,2.9354623648053813,0.30248016910519543,0.13841324996399584,0.5615645210010408,2.5813148406867845,0.24820141454214362,-0.45952502,-2.1489751000000004,4.6310252,-0.31865625,0.30405003,0.28200002,15.124501,0.8452125,0.76357505,2.4309751200000003,10.4934758,1.16386875,-0.024449998,-0.1822875075,9.499501,0.056684375,0.21937501399999998,0.6188062965000001,5.126550350000001,0.44116874999999994,39,51,0,26,23,11,62,36,-0.3294542705966043,-1.16942835884138,0.0527396825555229,0.8360282924255558,-0.2697299288458286,0.022605707538413622,-1.1232846626688955,0.05626263084362115,Squat
0.034196373603225805,-0.6632697856129033,10.082652038709675,-0.006563412096774188,0.18277291559396616,0.644825538592313,3.0107991672876655,0.7012833993506608,0.15139304805421436,0.48407051119771083,2.4816144067637875,0.5056391934703435,-0.45952502,-2.1489751000000004,4.6310252,-1.8651187999999999,0.43845002499999997,0.28200002,15.124501,0.8822687499999999,0.8979750449999999,2.4309751200000003,10.4934758,2.74738755,0.0710250065,-0.471525015,9.465788,0.1384625,0.24890626455,0.526499995,4.1145194375,0.6490859375,25,55,0,25,37,7,62,37,-0.44914772297220923,-0.906301086917074,0.0033763553921164835,-1.341545853260593,-0.23741058545585947,-0.018479745540670223,-0.8461721482523927,1.6095698519555786,Squat
0.02041088792741936,-0.5139701784677418,9.054274874193547,-0.019150207096774192,0.13141868051430286,0.15867505993890846,1.8507074404815986,0.662208902928823,0.10750040644354839,0.1396130868184183,1.4411359645161288,0.444932550718002,-0.17902500999999998,-0.830025015,4.6310252,-1.8651187999999999,0.43845002499999997,-0.273975015,12.289501000000001,0.8822687499999999,0.617475035,0.55605,7.6584758000000015,2.74738755,0.00847500175,-0.471525015,9.004725,0.1689875,0.1929750075,0.25537497874999987,2.212049875,0.3991109375,31,62,0,18,31,0,62,44,0.583968191041497,-0.2949841708212634,-0.2071604185378712,-1.65850196468333,0.3604938957048409,-0.9798959841671637,-0.15061529219430048,2.516366970100611,Squat
-0.05670968025806449,-0.8016895469354838,10.077516971774191,0.05200383,0.12861588876825403,0.4350588579541997,2.5531989608487216,0.1671622518922377,0.09632568066857437,0.39359454894901136,2.329552642950052,0.15356532193548397,-0.312975,-1.4805,5.9259752500000005,-0.1969,0.39300002,-0.110550005,13.978951,0.30916874,0.70597502,1.3699499949999998,8.05297575,0.50606874,-0.0679500025,-0.62805003,10.52373775,0.02000625,0.14805000725,0.896418755,4.711725525000001,0.2811703125,48,62,0,31,14,0,62,31,0.9697156201312843,-0.46639297702686533,-0.13670117312790872,0.012556361147621138,1.5352199071275932,-1.4012204023058965,-1.4411514331495572,-1.4349609064158229,Squat
-0.05820846972580644,-0.796668179032258,9.493395265322585,-0.11944314500806452,0.17061657360229815,0.4347622541372751,2.457001643471849,0.13229365347088046,0.13161759144745058,0.3979123542663891,2.083117720525495,0.10095046805827265,-0.341025,-1.4805,5.9259752500000005,-0.44866249999999996,0.409500035,-0.110550005,13.978951,0.09068124975,0.750525035,1.3699499949999998,8.05297575,0.53934374975,-0.10402500649999999,-0.5555250300000001,9.01271275,-0.09790000000000001,0.19063125812499998,0.868368735,4.6674940375,0.1451828125,45,62,0,53,17,0,62,9,0.9259216205569404,-0.519430384942103,0.42378969586167775,-0.9578305112715598,0.6517559851513104,-1.4035113551804197,-1.0977324000473772,0.5210500152353905,Squat
-0.17860645603225805,-0.5973254357258065,9.893168313709676,-0.03184233849193549,0.22949644958673265,0.17976610701098228,2.03692367974612,0.24467799306560856,0.1803419907825182,0.13316184001560874,1.6481730774973984,0.18932905807388142,-0.5975250249999999,-1.42747505,6.6415503000000005,-0.44866249999999996,0.409500035,-0.356025025,14.8370255,0.48839999999999995,1.00702506,1.0714500249999999,8.195475199999999,0.9370624999999999,-0.12202500999999999,-0.55252504,9.781276,-0.05665,0.29613749775000003,0.17028748624999995,3.3103503874999998,0.2746906233125,50,62,0,37,12,0,62,25,-0.006542476678941278,-1.9446092006760365,0.5700971166519324,0.4534424459517199,-0.06441107512677346,5.433286567448166,-0.3790160258469326,-0.16429167488303298,Squat
-0.14246250264516133,-0.9031222242741938,10.260578749999999,0.07107086700000002,0.27372649981370345,0.492948309396945,2.8542498719009033,0.2651189187168617,0.2222068599729449,0.4149611628433923,2.3551725645161294,0.20873887870967744,-0.5975250249999999,-1.9010251,5.08950015,-0.626725,0.44295002,-0.21150002,14.8370255,0.48839999999999995,1.040475045,1.6895250800000001,9.74752535,1.115125,-0.12202500999999999,-0.8059500449999999,10.35600075,0.061978125,0.41002500000000003,0.6791438174999997,3.685124974999999,0.2575375,43,62,0,22,19,0,62,40,0.05666264169698223,-0.5566989188262637,-0.13596173882884247,-0.5782371172034836,-0.822672217251414,-0.8668735052254877,-0.8370321681224357,0.12372644435826619,Squat
0.044608069233870964,-0.6968528586612904,8.91884313951613,-0.006266229806451615,0.19961386498618947,0.6053172580238116,2.4821876923278605,0.2720696574042702,0.1625110368876171,0.54421809292872,1.8425800675338189,0.2038132023558793,-0.44152501,-1.9010251,5.08950015,-0.626725,0.44295002,0.033000001,14.8370255,0.37070000000000003,0.8844750299999999,1.934025101,9.74752535,0.997425,0.05673750425,-0.34372502250000003,8.6762256,0.04076875,0.26212501325000004,0.9307875624999999,2.716856775,0.283559375,23,61,0,26,39,1,62,36,-0.3781467723329431,-0.7587433906409543,0.8383606169588022,-0.9306845466872551,-0.30633446906621176,-1.0046504512809764,0.4969160484487576,0.1873363379693327,Squat
0.005496777596774195,-0.5352592993064518,10.57753835967742,-0.013746672870967737,0.16943287153307532,0.560788036461172,2.3017735574424836,0.22159686061095385,0.1487516187096774,0.4142432043007285,2.0743810874089488,0.1535955835608741,-0.344475,-1.8935251,6.954975,-0.626725,0.29602502500000005,0.033000001,13.8285005,0.356125,0.640500025,1.926525101,6.8735255,0.98285,-0.0022500002499999984,-0.31878751,10.37100075,-0.01588125,0.2844750125,0.2281125075,4.0922062499999985,0.15750625000000001,31,61,0,34,31,1,62,28,0.03633056939304239,-1.6770552412414668,-0.08576120935236187,-0.8197764534162252,-0.9906240818496141,1.2642152612722573,-1.376856364774238,1.2864558577073,Squat
0.03664476342741936,-0.6534496293548387,10.357719362903227,-0.10026300354838709,0.1932708735575961,0.5854540843923522,2.6562427795570125,0.2896692271552959,0.16786284381919872,0.49084470810093667,2.2871091488033293,0.20083144810613945,-0.344475,-1.8935251,5.6694752,-0.7706875,0.35002500999999997,0.064500005,13.8285005,0.356125,0.69450001,1.958025105,8.1590253,1.1268125,0.066787503,-0.3810000175,9.953775499999999,-0.079887495,0.3460500075,0.68932505125,3.7599384999999987,0.2060953125,26,58,0,41,36,4,62,21,-0.18824718288074796,-0.9555562834282822,-0.3993814994549896,-0.9616156759538382,-1.0780874033165186,-0.2521551076143864,-1.037651636267354,0.6870426262064244,Squat
-0.031241128016129025,-0.18264920538709686,8.833603390322581,-0.1149777218064516,0.21388134126348624,0.43106326389502275,1.4327328749418349,0.291047368446128,0.18875518494953175,0.35472801198335074,1.151042844693028,0.21142377728407907,-0.43695001,-1.45155005,5.6694752,-0.7706875,0.35002500999999997,0.180000005,9.9725255,0.32566874999999995,0.78697502,1.631550055,4.3030503,1.09635625,-0.108975003,0.036000003749999995,9.6849755,-0.09913749899999999,0.3429000075,0.49651878625,1.177294187500003,0.25559531199999996,36,28,0,39,26,34,62,23,0.2850170393717971,-1.1621357074457555,-1.338578729600163,-0.8261466489510633,-1.1272576881905523,0.0649428313812126,0.2162962021847532,0.3689296487296847,Squat
-0.2905512189516129,0.20613508782258066,9.772647003225806,0.04596713680645161,0.248560246197531,0.25245965672349324,1.8277058134666773,0.20947349924135936,0.18846696632154009,0.17899804141779396,1.1948754739334022,0.17997111702601454,-0.99802502,-0.0465,7.14397515,-0.275,0.089025,0.919950025,15.286051,0.362518748,1.08705002,0.966450025,8.142075850000001,0.637518748,-0.19323751,0.1345125075,9.7094635,0.037537499999999994,0.2630250049999999,0.12652500899999997,0.8691566250000005,0.41824062500000003,60,3,0,26,2,59,62,36,-1.4560784353675593,1.7679448446914774,1.0399518492550008,0.05244900898894123,1.5947633332857398,1.7820133247375596,1.4809269041112927,-1.3004989712299286,Squat
-0.33090606112096776,0.024535886556451607,9.860309755645162,-0.02287490138709678,0.2949663442304796,0.45702881795902134,2.989763533628828,0.36254121086563046,0.23813628443522378,0.34500777734313215,2.5698453095993754,0.3128412212830385,-0.99802502,-0.7680000300000001,5.80950045,-0.74085,0.27645002,0.919950025,15.286051,0.46908124,1.27447504,1.687950055,9.47655055,1.20993124,-0.28346252,0.040237502249999994,9.57498775,0.021071873999999997,0.3668812575,0.53544376375,4.694962725000002,0.5600374925,54,26,0,30,8,36,62,32,-0.4747158813671099,0.19537634942046603,0.3944407165577173,-0.43849646040714846,-0.2993796381008691,-0.5820046592660977,-1.0464746123849231,-0.8788228840919441,Squat
-0.17808508825,-0.08268992349193548,9.294769789516131,-0.08324294451612904,0.22729116208006253,0.3406191979580765,2.5530104332366808,0.3740679303642891,0.17591379633870965,0.2693799135387617,1.9206755534339224,0.32757993973985433,-0.805500015,-0.7680000300000001,5.80950045,-0.74085,0.27645002,0.8169750250000001,15.286051,0.46908124,1.081950035,1.5849750550000001,9.47655055,1.20993124,-0.1807500025,-0.016537497749999998,9.449512625,-0.17331875,0.25389376887500004,0.36301876250000004,2.725349724999999,0.6243703025,47,32,0,37,15,30,62,25,-0.7590213162854563,-0.25638293639881615,0.8010865857160796,-0.03057980278245201,0.35528553193317736,-0.044949115707915155,0.1373936639157609,-1.1435118259261317,Squat
-0.2507479917822581,0.02396129075806452,10.471193193548384,0.10810604843548385,0.2633095347345426,0.2955589374812938,2.5779443457187767,0.3092148465910085,0.19559559826248699,0.19825442973933405,2.173352894901144,0.2641828544172736,-0.948975055,-1.054050025,7.0445253999999995,-0.54374374,0.10800001000000001,0.36802501499999996,15.387976,0.5790125,1.056975065,1.42207504,8.3434506,1.1227562400000002,-0.19950001,0.087975002,9.7759505,0.076381249,0.25383750499999996,0.21928125199999998,4.199606125000001,0.47727968750000005,54,18,0,24,8,44,62,38,-1.1222988983887772,-1.8365605570144106,0.5558388815856069,-0.08611257332684777,0.6404927379101593,3.4921233980986353,-0.859940288411277,-1.0261908236803234,Squat
-0.23325847547741937,-0.3601536441774193,10.262181496774192,0.12188376924193549,0.31596624282202923,0.4972198829040422,2.925112377187201,0.34264806734618275,0.25021979429240376,0.42525629931789805,2.538103760874089,0.25175949433090533,-0.948975055,-1.325475,6.0195001999999995,-0.71520625,0.47047503,0.36802501499999996,15.387976,0.5790125,1.419450085,1.693500015,9.3684758,1.2942187500000002,-0.1440375075,-0.31695000500000003,9.8660255,0.13633125000000001,0.33493127015,0.82786879675,4.6670067500000005,0.39049999999999996,49,41,0,17,13,21,62,45,-0.579605941457682,-0.17745361958093256,0.2741333562296808,-0.9561827992292194,-0.15373700310100835,-1.0967877919974915,-1.1383345953061774,0.7032522478020113,Squat
-0.12329153631612902,-0.5841338964516128,8.604496304032258,0.0038411289677419357,0.1956470861135566,0.2871384349625545,1.604463063312631,0.33676821223974024,0.1331743678603538,0.2270678523777315,1.3123186798387096,0.2773730553631634,-0.773025025,-1.325475,6.0195001999999995,-0.71520625,0.47047503,-0.20347502,12.759525,0.4437125,1.2435000550000002,1.12199998,6.7400248000000005,1.15891875,-0.1382625075,-0.505275015,8.54475025,0.10835,0.19108126765,0.35355000125,2.4988683875,0.549553125,48,62,0,23,14,0,62,39,-0.40041166462640887,-0.9354476735614238,0.38290843379000816,-0.6893799194874181,3.227446097990544,0.14225476720547503,-0.3332401151035982,-0.4777966388724115,Squat
-0.3020951754999999,-0.7982915634677419,10.590019736290323,0.003334374935483873,0.17330517061667175,0.38962869422625895,2.352932659752741,0.2326966628149584,0.14651746300000001,0.3316224612591051,2.0996747870187304,0.19403689510301772,-0.61597502,-1.49947505,7.1994752,-0.37461875,0.053025,-0.20347502,14.231025500000001,0.43773125,0.66900002,1.29600003,7.031550300000001,0.81235,-0.25098750999999997,-0.81397503,10.139287875,0.061703125,0.26152502125000004,0.6842625237500001,4.217588249999999,0.3249468735,59,62,0,28,3,0,62,34,-0.19307515656403093,-0.2657653312796651,0.17607072436085683,0.00863119735313112,-0.7418810549397703,-1.0419159246452778,-1.3790805971008768,-0.7007681047510683,Squat
-0.2140717844193549,-0.7408137324169355,10.166255246774195,-0.04073991814516129,0.25542307752855126,0.47284833804702947,2.793975256180257,0.1258409132590804,0.2241539396748179,0.42253651316097823,2.397591196253903,0.11127670290062439,-0.61597502,-1.49947505,5.418000149999999,-0.22948749499999999,0.216000015,-0.02152499995,14.231025500000001,0.14196875,0.831975035,1.47795005005,8.813025350000002,0.37145624499999996,-0.174525005,-0.833475025,9.7038005,-0.055034374999999996,0.47488127250000006,0.9224625312500001,4.244100874999999,0.212231245,45,62,0,38,17,0,62,24,-0.0006001322407730257,0.0025458625503832163,-0.08620923405912667,0.0687034107897255,-1.2851719894158466,-1.3672350947955318,-1.108393957013565,-1.3946493309047843,Squat
-0.08988387105645163,-0.34254194373951613,8.877545947580646,0.02271744072580645,0.2100292387476383,0.2239383016903356,2.0418809918442142,0.1693118729297516,0.17175570123933404,0.1490971151287461,1.6524896780697194,0.15133345019510927,-0.510975,-1.119975,5.418000149999999,-0.3051125,0.216000015,-0.02152499995,13.013475249999999,0.30696875,0.726975015,1.09845000005,7.5954751,0.61208125,-0.013499999999999998,-0.313275005,8.821762750000001,0.05204375,0.218287505875,0.15907500875000002,2.7965058749999994,0.273006245,33,62,0,28,29,0,62,34,-0.7655770079979558,-1.7072030442706017,0.11286211250756101,-0.11527426615552715,-0.5254544271366095,3.429615316442823,-0.7216409241749049,-1.2555876973677205,Squat
-0.34377702567741936,-0.7014980095483871,10.055439055645165,-0.02875302419354839,0.3219743511955592,0.4474326433517557,2.8624531252412124,0.28129525847040304,0.28897602312799164,0.3896945136191467,2.518147882518209,0.22744302809573363,-0.859050035,-1.739025,5.40645015,-0.67931875,0.189525005,-0.095475007,14.563500000000001,0.30696875,1.04857504,1.6435499930000002,9.15704985,0.9862875,-0.430275005,-0.5058000225,10.52452525,0.009006249999999997,0.5835562683750001,0.7166812475000001,4.954856124999999,0.44201093750000003,47,62,0,30,15,0,62,32,-0.014678686125498799,-0.6817340802301274,-0.026921488587342123,-0.930213248467179,-1.414871620118454,-0.832409174747395,-1.2508254315877712,-0.08285457997303558,Squat
-0.437250012919355,-0.7610794626612906,9.482443879032258,-0.06850272174999997,0.2534316888792808,0.4037653680562439,2.681062318648628,0.2952877037051595,0.20189274786004166,0.34200559350936527,2.1499338553590004,0.22905661420967735,-0.859050035,-1.739025,5.40645015,-0.67931875,0.189525005,-0.278475015,14.563500000000001,0.46062499999999995,1.04857504,1.460549985,9.15704985,1.13994375,-0.44655001,-0.61350001,8.9237255,-0.031212500000000004,0.39594375275,0.64531874125,2.8792872875000004,0.356709375,59,62,0,42,3,0,62,20,0.23589025891525142,-0.7358415307501982,0.5422132220085716,-0.16888252402975398,-0.5523157646595425,-0.6094681557229453,-0.6515554059321715,-0.2165582740065708,Squat
-0.3810290438064516,-0.5112084869354839,10.454030314516125,0.00451532262096774,0.15159269198587666,0.22231583358889995,2.203532207190661,0.20785618161759592,0.12096626325182099,0.16989478521331947,1.9166959518730482,0.15884512134625392,-0.671475015,-1.1740501,7.4905501999999995,-0.2745875,0.017025000499999998,-0.261975,14.146501,0.46062499999999995,0.6885000155,0.9120751,6.655950800000001,0.7352124999999999,-0.37623751,-0.48326252000000003,9.9090005,-0.007459375,0.19050003000000004,0.26999998999999997,3.913913375,0.24385625,60,62,0,35,2,0,62,27,0.2009907823743913,-1.361938804647605,0.39003961575694845,0.6858164036455541,0.25941317714090806,1.365101070811023,-1.1933505587009101,-0.08249337347334063,Squat
-0.25836896193548387,-0.6994113158064516,10.378288766129034,-0.07917671361290322,0.2868161948118208,0.28079278200708885,2.5874798322354358,0.35663965084416643,0.22735981334547345,0.24581605827783554,2.211790120967742,0.2669114286097814,-0.6390000149999999,-1.2135001,6.297975299999999,-0.96078125,0.39052501,-0.261975,14.146501,0.42693749999999997,1.0295250249999999,0.9515251,7.8485257000000015,1.38771875,-0.307500005,-0.62655005,10.2685125,0.01137812425,0.36303750999999995,0.4311187099999999,4.071526,0.38829999000000004,47,62,0,31,15,0,62,31,0.832021068272088,-0.24808900869048756,-0.1264005626285556,-1.171465760316285,-0.3677176633871535,-1.1497226404884346,-1.1598822290238247,0.9416010130636914,Squat
-0.2217919452419355,-0.6722903429838711,8.82035848064516,-0.04641733862903222,0.2618557817581608,0.24117238310118908,1.807660473866122,0.3954934114719252,0.2091980287044745,0.19389670439906345,1.51933860062435,0.3196216110171695,-0.560025035,-1.2135001,6.297975299999999,-0.96078125,0.39052501,-0.32002501,13.320000499999999,0.42693749999999997,0.950550045,0.8934750900000001,7.0220252,1.38771875,-0.27645,-0.604500015,8.8692755,0.053006250000000005,0.31991252375,0.3022875075,2.825231512500001,0.5928828125,47,62,0,24,15,0,62,38,0.9359690545405775,-0.5625634858436953,0.3030475415531889,-0.9605623878842865,-0.2296621483603376,-0.39639618174099356,-0.7454418098568687,0.11953082107351554,Squat
-0.15983710361290326,-0.8147891435483869,10.07341379112903,0.05070090729032259,0.2451860128971576,0.5295503790978416,2.8921163058635204,0.2946746227342206,0.20681543448699272,0.42348502676378774,2.5165957115244537,0.21475700762955255,-0.530025015,-2.03797505,5.60647535,-0.8954,0.36052501000000003,-0.32002501,14.826525499999999,0.39881875,0.890550025,1.71795004,9.220050149999999,1.29421875,-0.253237505,-0.6052500224999999,9.660001,0.115534375,0.279731265,0.5698125362500001,4.7245498875,0.2016265625,47,62,0,14,15,0,62,48,0.6420591516864382,-1.2177359362862545,0.13950126716628425,-1.4117947248562934,-0.7120370160912892,0.12310538266025217,-1.1987728162177005,1.8159156395221032,Squat
-0.027689516774193554,-0.7152012428387095,9.597815797580642,-0.05294526303225805,0.2284670785575325,0.5988911083286412,2.9777688138100893,0.3449101672573302,0.19512869833142557,0.48322642923204984,2.517103082206034,0.2729792785192508,-0.52305,-2.03797505,5.60647535,-0.8954,0.36052501000000003,-0.071550007,14.826525499999999,0.39881875,0.88357501,1.966425043,9.220050149999999,1.29421875,0.01676249925,-0.417525025,9.008287750000001,0.07706874999999999,0.35349376,0.6855187775,5.129306237500001,0.37286562500000003,31,62,0,29,31,0,62,33,-0.35944259952474955,-1.0493787598760378,0.4750713412767456,-1.0965679288530326,-0.8714094047106813,-0.22108919161146856,-1.0822137354311068,0.5051171107625478,Squat
-0.1815653301451612,-0.21322017425806453,10.002121437096775,-0.01622278322580645,0.24141282256022042,0.27748376966916205,2.4838533075079834,0.3037033938699969,0.21320565340322584,0.18983062718418314,2.110277617273673,0.24039442537981268,-0.6005250200000001,-0.778500055,5.7705003999999995,-0.8954,0.213525005,0.47902501000000003,14.812051,0.3553,0.814050025,1.257525065,9.0415506,1.2507,-0.17925000749999997,-0.2522625125,9.307051000000001,-0.0363,0.41100002,0.17443125124999997,3.2972435124999997,0.40187811749999997,42,53,0,33,20,9,62,29,-0.08983514427047656,0.6631281817258892,0.45054742281171295,-1.0346391859017092,-1.2454320485584156,1.121196957381688,-0.7717640259511884,1.1585522632529717,Squat
-0.08232944085483872,-0.5484532563387097,10.31112991129032,0.049288205645161294,0.3702716763238695,0.5125050006331525,2.6325820340063575,0.26973119442903887,0.2936611858132154,0.4480192742632673,2.2793262822580647,0.21369882284079086,-0.6005250200000001,-1.2549751,5.77650015,-0.5995,0.93750002,0.47902501000000003,14.812051,0.41318750000000004,1.53802504,1.73400011,9.03555085,1.0126875000000002,-0.0677625025,-0.6537750275,10.193775500000001,0.106975,0.49164376374999996,0.81997503375,4.3586445125,0.422640625,36,53,0,21,26,9,62,41,0.73019598908318,0.33138798462650804,0.10947939033768311,-0.9610660055868084,0.36638114213674244,-0.9129343365688509,-1.059348215712067,0.32560884230665943,Squat
-0.002937097729032261,-0.9636919804032257,8.998397602419354,-0.023107762580645175,0.3242633518463151,0.2065857062314337,2.278055201097089,0.3687687450433075,0.2350733439182623,0.1782476197970864,1.7972983206295523,0.31555327089490115,-0.6005250200000001,-1.2875250500000002,5.77650015,-0.5995,0.93750002,-0.5785500100000001,14.320501,0.5360437499999999,1.53802504,0.7089750400000001,8.54400085,1.13554375,0.029962500975,-0.9220125400000001,8.649263125000001,0.0166375,0.310743765,0.3000562525000001,2.6792251,0.6187328125,27,62,0,29,35,0,62,33,0.7260660701614596,0.02409249535310647,0.7260403247156526,-0.14152564536740747,1.0999595218748848,-1.1121754569304099,-0.5300936128248783,-1.2357311171109726,Squat
-0.12756895661612908,-1.1000988399193552,10.09068671451613,0.04570876967741935,0.3031109420427477,0.409262852447737,3.0510601118265117,0.40615392283474683,0.23973992838387095,0.3319678602211239,2.837300815452654,0.3650442926014568,-0.6459750200000001,-1.99500015,5.65147515,-0.69245,0.720975,-0.5785500100000001,14.3229755,0.6432249999999999,1.36695002,1.41645014,8.67150035,1.335675,-0.12052500502499999,-0.9220125400000001,9.148500499999999,0.0977625,0.4166812775,0.47401877000000014,6.095138325000001,0.70819375,39,62,0,29,23,0,62,33,0.7648335762421785,-1.0004209776717976,0.04295934217535468,-0.1559468133451213,0.5966391223700818,-0.25746978833344825,-1.626563228857509,-1.3232914617997698,Squat
0.033964114024193554,-1.016224643064516,9.778770175806455,-0.022167440967741935,0.3258119564512581,0.4351853210990578,2.9635945887705306,0.4546056565613885,0.26436451317924037,0.34151073235171686,2.6831471646722176,0.4086583327783557,-0.6459750200000001,-1.99500015,5.65147515,-0.705375,0.720975,-0.6090000250000001,14.3229755,0.653674985,1.36695002,1.386000125,8.67150035,1.359049985,0.10200000249999999,-0.820725055,8.7574875,-0.174796875,0.44278127375,0.3479249875000002,5.9169943625,0.7174234374999999,21,62,0,35,41,0,62,27,-0.3322949881564616,-1.236272824418725,0.23268042365496575,0.13912973003215917,-0.4992477745822943,0.048413457276977656,-1.4434306094401186,-1.3291052033682975,Squat
0.03625645300161291,-0.9457887597580645,10.304762087096773,-0.0325376025,0.2587750866613681,0.47799782571806465,2.576025868062065,0.36575461400616943,0.19054737998220606,0.3745056140426638,2.4002299052029135,0.29636000129032253,-0.623475,-2.3120252,5.65147515,-0.705375,0.630000015,-0.44100003,13.989001,0.653674985,1.253475015,1.8710251699999998,8.33752585,1.359049985,0.075225001,-0.7745250475,9.2135255,0.054553124999999994,0.281906261875,0.3449999799999999,4.525069125000002,0.4332625,18,62,0,26,44,0,62,36,-0.8427418878647533,-1.257847316778858,-0.0025037932164382114,-0.02832889518520638,0.7945040342366427,0.6508640099023131,-1.4941682410871204,-0.4761301051804274,Squat
0.05878548321129034,-0.8745823069354838,9.947005962096778,-0.07996623008064514,0.3454362714890539,0.6092431691888606,2.6546574652140205,0.3151010462693501,0.269249695492716,0.5443688448543184,2.402093351925079,0.2671354576847034,-0.623475,-2.3120252,6.2790002000000005,-0.81723125,0.708975,-0.218475005,13.989001,0.285175,1.3324500000000001,2.0935501949999997,7.7100007999999995,1.10240625,0.005474995099999998,-0.5244750175,9.09753775,0.0748,0.40950002,1.0733813399999999,4.991325200000002,0.4629625,28,62,0,23,34,0,62,39,0.23519038104532958,-0.7108241952232528,0.24395101294022395,-1.1133971412386197,-0.40180847145592047,-0.8617585655290916,-1.4820313451234088,0.13186052906639834,Squat
0.008091529491935484,-0.46075526077419354,9.682362456451608,-0.011028831564516105,0.3341603330148553,0.42667738990968807,2.5773066424808655,0.3954422126882616,0.2723191935543704,0.30178004003433917,2.2117480498439113,0.3328126681675338,-0.43050001,-1.8030001,6.2790002000000005,-0.81723125,0.708975,0.17197500999999998,14.535001,0.65594375,1.13947501,1.97497511,8.256000799999999,1.473175,-0.079500005,-0.3622875,9.09753775,0.10285,0.38923126525,0.35823752125,4.727887825,0.5910609375,37,58,0,28,25,4,62,34,0.8369143727495046,-1.4391794483552294,0.4368496256364917,-0.43465881354748526,-0.5042195542239418,1.77597949995498,-1.0207769173697632,-0.5703793141136888,Squat
-0.10471089332258067,-0.4950605076290322,10.232024245967741,0.0052039303709677616,0.35085975847816214,0.45278667080457197,2.9165854448477275,0.4307107748374765,0.3064660471149845,0.3667902915130072,2.586136762226847,0.3199490853397503,-0.605475,-1.46805005,5.49045,-1.02100625,0.49695001,0.17197500999999998,14.535001,0.65594375,1.10242501,1.64002506,9.044550999999998,1.67695,-0.21397501000000002,-0.355800005,10.472475750000001,0.09425625000000001,0.6178687727500001,0.5058562712499999,4.5797056375,0.41330781250000004,39,58,0,23,23,4,62,39,0.3401163568504037,-0.8745628474376437,-0.14651351497309098,-1.0417479921675692,-1.2342368064769305,-0.21330169027721402,-1.2542501621240494,0.5806537578604622,Squat
0.03005201553225807,-0.4832262339193549,8.907688744354838,-0.05875907225806453,0.3310812810103506,0.46224610857444914,2.3135056328210193,0.48189630110277754,0.26423011948178987,0.39143859761082206,1.798614431243496,0.371650695234131,-0.605475,-1.46805005,5.49045,-1.02100625,0.49695001,0.0035250000000000004,14.45002575,0.80623125,1.10242501,1.47157505,8.959575749999999,1.8272374999999998,0.072000001,-0.23047502,8.680988000000001,-0.037434375000000006,0.38038125625,0.6292687775000001,3.3348379374999997,0.6164812425,25,58,0,34,37,1,62,28,-0.6213720107047086,-0.9320428101411293,0.5923461222961409,-0.14701121232708061,-0.6857441023928899,-0.4211318650046896,-0.3043513866576424,-0.30721602156762007,Squat
0.08161210091935484,-0.7532601019838709,10.271109025000001,0.13167399241935482,0.2061383808432899,0.6627801464088249,2.6293461254753243,0.38510034875388754,0.16687172700572322,0.5585038244958377,2.345914297580645,0.35052298338709664,-0.318,-1.94205005,5.829975,-0.43779999999999997,0.53205,0.0035250000000000004,14.607526,0.80623125,0.85005,1.94557505,8.777550999999999,1.24403125,0.037950003499999996,-0.5222625,10.082475,0.1252625,0.2925000165,1.2266625257500001,4.211794449999999,0.6402171875,24,58,0,30,38,1,62,32,0.29610664565744216,-0.6441524876889079,0.15649126789620554,0.14634803509554647,-0.36898497799037466,-1.0260118485172052,-1.2775380064329709,-1.3141266843295247,Squat
0.0376354884596774,-0.8491778470645164,9.634527069354842,-0.1139442540483871,0.2435948383157074,0.6413139520486344,2.9714856795732123,0.6236035793465544,0.20148434609001045,0.5660993513995838,2.6188126882414164,0.5019132381482831,-0.418500015,-1.94205005,5.474475,-1.50074375,0.53205,-0.0100500005,14.607526,0.6961625,0.950550015,1.9320000495,9.133051,2.19690625,0.037950003499999996,-0.68077502,8.8282125,0.0042624999999999955,0.38197501999999994,1.1324250425,5.008125699999999,0.707746875,28,62,0,31,34,0,62,31,0.2166418208684759,-0.41435505878558243,0.3119038295729533,-0.8295361914019836,-0.8351680196901028,-1.2352881653415853,-1.2658619515421907,-0.14451570561962557,Squat
-0.1608532299758064,-0.3912484032741935,9.796796724193545,-0.09464990079032258,0.20214845870325926,0.35584862763584785,2.8178486273280576,0.6329773695004912,0.16126975196279922,0.27969335230957343,2.4849489643600413,0.5215311315629553,-0.43552503,-1.25250005,5.474475,-1.50074375,0.27202502,0.041475002,14.341951,0.6961625,0.70755005,1.2939750520000002,8.867476,2.19690625,-0.2115,-0.321712515,9.211500000000001,0.11378124975,0.2560499945,0.44415000625,4.960518712500001,0.682567185,48,56,0,28,14,6,62,34,0.8030002886885231,-1.03158081516,0.19565946279714724,-0.8594134424747516,-0.26002241130850967,0.43681228653056303,-1.2489395996399608,-0.18306633087899327,Squat
-0.17156008776612902,-0.4636052605645161,10.326597997580645,0.06016401083870968,0.2923016399467809,0.32081846874153525,2.6076495099846317,0.3344711064363083,0.23583653341779395,0.26969256131893865,2.3495297441987506,0.30434945192924046,-0.788475025,-1.03402505,5.8899753,-0.51170625,0.5265000049999999,0.041475002,14.341951,0.53590625,1.3149750299999998,1.075500052,8.4519757,1.0476125,-0.2115,-0.35295,9.72450075,0.22680624,0.40216877875,0.54345003,4.223437375000001,0.5682187425,42,56,0,25,20,6,62,37,0.13951350452223435,-0.333241491268335,0.016351453183668728,-0.3364595746253358,-0.2535132432809055,-0.9885669371690362,-1.2877966061475317,-1.2736671006138303,Squat
-0.22316734471774194,-0.5476814717741934,9.173664162903224,-0.0004967740322580681,0.34402435588275904,0.2539170773612785,2.2567211328279106,0.4277979042417547,0.3019425938397503,0.22163351324661804,1.899507368262226,0.3918400164203954,-0.788475025,-1.03402505,5.8899753,-0.5878125000000001,0.5265000049999999,-0.18900001,13.204951,0.7198125,1.3149750299999998,0.8450250399999999,7.3149757,1.307625,-0.288525015,-0.4395000275,8.86173775,0.110309375,0.5628750338749999,0.3980062425,4.221525549999999,0.731671875,40,62,0,30,22,0,62,32,0.15928436845726568,-0.5685678845967971,0.3915488455063542,0.08057012611925249,-1.0522443043425616,-1.0046199136535034,-1.1458407533159367,-1.4146018442287354,Squat
-0.4509750126612903,-0.8273153483064515,9.975994913709677,-0.06208457725806452,0.35506043303203155,0.5489465710075717,2.8096603863662386,0.5989062301811051,0.2819419406295525,0.4639148092637877,2.6405602208896988,0.4802004352029136,-0.970500055,-2.01495005,5.9545502,-1.79471875,0.522450015,-0.26295000999999996,13.373476,0.7198125,1.49295007,1.75200004,7.4189258,2.51453125,-0.489525015,-0.5985000225,10.4670005,0.17080937499999999,0.4079249999999999,0.9210187750000001,5.775581000000001,0.7011468750000001,54,62,0,27,8,0,62,35,0.6955773408400377,-0.9999124721958025,-0.1451042986307552,-1.1852845016141103,0.23591991138761959,-0.47382664348989323,-1.6918689587018065,1.3717967100478852,Squat
-0.35238509482258057,-0.8746113161290322,9.261189148387096,-0.05933568596774195,0.41120015882679695,0.5364524581307114,2.516484288680182,0.6536896907337165,0.3558678340541103,0.4421185297554631,2.12969433673257,0.4899806058272634,-0.970500055,-2.01495005,5.9545502,-1.79471875,0.522450015,-0.215475005,13.373476,0.6112562500000001,1.49295007,1.7994750449999999,7.4189258,2.4059749999999998,-0.358950015,-0.7287375,8.880263249999999,0.22030937500000003,0.6379500149999999,0.8986875325,4.695018825,0.5829656249999999,51,62,0,21,11,0,62,41,0.10589804604728342,-0.8196994910824033,0.47581110953049655,-1.6355293276207836,-0.9872337619767948,-0.5539347023893311,-1.1762099774251338,1.7250069982601683,Squat
-0.1571286390322581,-0.9370778422580647,10.522297122580643,0.12267883014516127,0.24592090109731599,0.5885511898765063,2.49636956141259,0.48254571098225957,0.19111331661290323,0.4248180650988555,2.276474078876171,0.3293931967388137,-0.905025065,-2.399475,6.6729752,-1.79471875,0.305475,-0.215475005,14.3119505,0.689562485,1.210500065,2.1839999949999997,7.6389753,2.484281235,-0.1530000025,-0.77550002,10.10096275,0.23711875,0.327525025,0.48401250124999995,4.260525125000001,0.465746875,44,62,0,17,18,0,62,45,-0.784112625029512,-1.404079836360513,0.019101790802248546,-2.319657833725212,0.9881620119179124,1.1326790243758635,-1.424928249908146,6.365001075580434,Squat
-0.027148790685483867,-0.9318157416129033,10.466060564516129,0.007350705145161273,0.23680681513940263,0.7301863691797484,2.6606701953676426,0.5426923003322199,0.2050753355200312,0.5763497171956293,2.3290824719042655,0.43832095418626443,-0.44955003,-2.399475,5.27700015,-1.2654812500000001,0.510000015,0.15855001000000002,14.3119505,0.8542875,0.9595500450000001,2.5580250099999997,9.034950349999999,2.11976875,0.0195,-0.76200002,9.974250625,0.229040625,0.362381266375,0.7029750075000001,4.458205875000001,0.5891015625,29,59,0,26,33,3,62,36,0.2735697652939079,-0.746355707414358,-0.250996218029595,-0.862879409821833,-0.8549652262124927,-0.417457343472333,-1.0445616565165579,0.21099146103750233,Squat
-0.07258185543548387,-0.5140814668225806,8.810249347580646,-0.04565332725806452,0.25038596001612223,0.477280718315414,1.8693461406846668,0.5168587050452876,0.20102525691987516,0.3026244641904267,1.5721271878251823,0.40756759839750273,-0.532500015,-2.246475,5.27700015,-1.2654812500000001,0.510000015,0.15855001000000002,12.5850005,0.8542875,1.04250003,2.40502501,7.3080003499999995,2.11976875,-0.111,-0.442050015,8.777250625,0.0939125,0.370012521375,0.34473752249999995,2.9028562625000003,0.60005,40,59,0,22,22,3,62,40,0.36358879736073213,-2.1317359054177736,0.018056345927184022,-0.8342538615364751,-0.3465502861770102,5.272471394516991,-0.869837365214642,0.3892706639293717,Squat
-0.16677702212903223,-0.8270056808548386,10.00672436209678,0.0630359879032258,0.27683253975825967,0.5254307066941033,3.1116929947848884,0.1895270573509326,0.21897702480645162,0.4311331064901144,2.7467724774453695,0.14298340141519253,-0.743025065,-1.8489751,5.13952515,-0.47774374999999997,0.53550003,-0.088500001,14.962951,0.31542499999999996,1.278525095,1.7604750990000002,9.82342585,0.79316875,-0.17677501,-0.64950004,10.79077525,0.0939125,0.395643775625,0.6613312425,5.196225225,0.18524686625,45,62,0,16,17,0,62,46,0.42473815993640096,-0.7686616416299615,0.004626341917184999,-0.8826119604558283,-0.1881277355408959,-0.6866212315781199,-1.2377763011131748,0.3131967770964317,Squat
-0.037215727080645175,-1.0836701982258063,9.399970574193546,-0.08417772185483875,0.27348192030797314,0.3692184398505788,3.0890129913045565,0.3771639650638369,0.21644509159885536,0.27848235414151934,2.5123954676378766,0.3056538426014568,-0.743025065,-1.8489751,5.13952515,-0.718025,0.53550003,-0.427050025,14.962951,0.835724985,1.278525095,1.421925075,9.82342585,1.553749985,0.045525003,-1.00500003,9.0545255,-0.126946875,0.27630001849999997,0.19460626250000002,4.948031437500001,0.519234375,24,62,0,36,38,0,62,26,-0.5205847535822836,-0.7450916383911149,0.488276757338023,0.48228817915606204,-0.18013598813882092,-0.1062219484728395,-0.9531733587442872,-0.05154305386006497,Squat
-0.09360000550806451,-1.2218189934677421,10.113757583870965,-0.08742006169354838,0.18774789418938495,0.3318754967671471,2.2470019379436033,0.45521790736703693,0.1555161357494797,0.25955648675598336,1.9624168919875131,0.392974283194589,-0.44145003000000005,-2.4390001,6.4550254,-0.718025,0.292500005,-0.81405,13.693500499999999,0.835724985,0.7339500350000001,1.6249501,7.238475099999999,1.553749985,-0.105525005,-1.105275025,9.621525,-0.21326250000000002,0.31674375875,0.37627500125,3.307931250000001,0.7335453125,37,62,0,38,25,0,62,24,-0.16333525409615815,-1.47564919597988,-0.10773356872513952,0.6348761139275587,-0.7463643690858781,2.5247885549428366,-1.2053908468334549,-0.7115599025237747,Squat
-0.15902299225806457,-1.703380730403226,10.438150811290324,0.013687903580645163,0.17640305891911734,0.5116225708203914,2.5299915538759916,0.34055843558117604,0.13986969894380857,0.43106896425598334,2.1314471808012483,0.27970583243288244,-0.45255001,-2.6675252,5.09745015,-0.5126000000000001,0.26745001,-1.128525,13.693500499999999,0.835724985,0.7200000200000001,1.5390002,8.596050349999999,1.348324985,-0.13747499999999999,-1.4799750500000002,11.125463,0.018459375,0.212925005,0.6467624624999997,3.6461065,0.45923281250000003,50,62,0,30,12,0,62,32,0.48387956341737753,-0.9887137083394725,-0.6206547499460275,0.2549810895969755,-0.08183981511004035,-0.6611807051030327,-0.753044329417702,-0.35032921333726375,Squat
-0.11706895771774194,-1.2239468408387097,8.63998109032258,-0.09504576383870963,0.16235342542017764,0.863168097873681,2.1978417304572706,0.24027955293652292,0.13350141079136316,0.7114403623870966,1.7812350460978144,0.1914930713444328,-0.45255001,-2.6675252,5.09745015,-0.546837485,0.26745001,0.0915,13.693500499999999,0.4109875,0.7200000200000001,2.7590252,8.596050349999999,0.957824985,-0.12851250250000001,-1.2127500425,8.949262999999998,-0.071465625,0.22040626875,1.0066312875,3.303074837499998,0.2864468735,48,57,0,38,14,5,62,24,0.5051855381475223,-0.32904327654106624,0.41184399722019527,0.004370894089312455,-0.22944306937424042,-0.9289059835446905,-0.3783475272488408,-0.37139868872660164,Squat
-0.290043153,-0.7365605221935484,10.694618145967743,-0.016169555072580638,0.31148670776870163,0.4690302646498846,2.6883896764142214,0.2951615564263539,0.22441615964516134,0.39600291902601464,2.4436235751300734,0.23216295364177938,-0.984525,-1.4990250999999999,5.93400025,-0.546837485,0.157950005,0.0915,13.8645005,0.57371875,1.142475005,1.5905250999999998,7.93050025,1.120556235,-0.22953751249999998,-0.8247750574999999,11.34877525,0.003403124999999999,0.264618778875,0.67768134625,4.413881499999999,0.32174999675,56,57,0,29,6,5,62,33,-1.167967436728545,0.04086040523393481,-0.40469402595257215,0.3018725735365958,0.5367931006429139,-0.9559105632029112,-1.2473582734634459,-0.372526204764545,Squat
-0.5921310649596773,-0.1160782388387097,10.373455959677418,0.02035997976612904,0.32721802087252055,1.0031393338523493,2.8851861978457274,0.2549523691496437,0.29296998230228927,0.8506763396930281,2.6460453777315296,0.19919521975156082,-0.984525,-1.4990250999999999,5.372025150000001,-0.35055625,0.0020250000000000008,1.5705000500000001,13.8645005,0.57371875,0.98655,3.06952515,8.49247535,0.9242750000000001,-0.6802500300000001,-0.1822500085,9.16305,-0.029184375,0.5455874912500001,1.7281313825,4.513218875,0.2665609355,60,35,0,32,2,26,62,30,0.39869929407043037,0.2912975143628005,-0.2932631734566825,0.695266335717029,-1.2240582408853489,-1.1594070311589681,-1.2993410877029221,-0.06303421329940262,Squat
-0.5014850976612902,0.07496007491935487,8.959974490322582,0.006848387096774196,0.3946570323893655,0.9390154879047664,2.7600612909147677,0.19447726179494984,0.3263362119953174,0.7850154381638916,2.1736054829864724,0.16977136446409988,-0.97747505,-1.3580250999999999,5.372025150000001,-0.25416875,0.29452501,1.5705000500000001,14.0090255,0.37819375,1.2720000599999999,2.92852515,8.63700035,0.6323624999999999,-0.64852502,0.12198750525000002,8.622525249999999,-0.03719375,0.4933312775,1.66818758375,3.527887275000001,0.31356875,50,28,0,35,12,33,62,27,0.8063693836972523,0.027108636673708844,0.5725667603468267,0.47931324250852536,-0.6492073274254766,-1.179453264096329,-0.8536566723003607,-0.9904451385840725,Squat
-0.14359960179838707,-0.9408012542903227,9.965650718548389,0.02912560479032257,0.31295260403117486,0.6536201998477041,3.2913378994333224,0.2014748178441345,0.25361403167221636,0.515253302528616,3.155866675598335,0.16764848469198756,-0.83752504,-1.7134501000000002,6.0075,-0.3498,0.29452501,0.916950065,14.393475500000001,0.37819375,1.1320500500000001,2.630400165,8.3859755,0.72799375,-0.06622500575,-1.1542501,9.051224999999999,0.011618749500000001,0.399,0.6559688137499999,6.891262725000001,0.311540625,39,55,0,29,23,7,62,33,-0.7012898887140928,1.308043389458741,0.06506294286290819,-0.050200713535313454,-0.42590844121823546,0.8029900616266628,-1.7919034800977853,-0.7837419352448229,Squat
0.027228630879032264,-1.120673029435484,9.078336579032259,0.005645261967741934,0.154213144929372,0.28435628444823324,2.6748019269937777,0.13915866635709154,0.1262376075798647,0.25369679400364215,2.2545616705515092,0.09251936437721124,-0.34199999999999997,-1.7134501000000002,6.1414504,-0.3498,0.28747500000000004,-0.611550035,14.393475500000001,0.246125,0.629475,1.1019000650000002,8.252025100000001,0.595925,0.049050002999999995,-1.03927504,8.54047535,0.016018749,0.210262516625,0.5470126,3.4481441375,0.076226562,24,62,0,24,38,0,62,38,-0.6008040525705332,-0.3091332097727376,0.7159763573047926,-1.1029126383025691,-0.28869499034718427,-1.2830926775538771,-0.8354179072725723,1.3114696922698483,Squat
-0.28083871651612907,-0.9976064900806452,10.587927116935482,0.06394415314516129,0.4338078800388823,0.18410576820214125,2.6746315921049577,0.08934995708296785,0.3934960569687825,0.16090607153746092,2.3514690352497394,0.06693231016389174,-0.9944999999999999,-1.34595005,6.4980004000000005,-0.28105,0.28747500000000004,-0.7725,14.635501,0.246125,1.281975,0.5734500499999999,8.1375006,0.5271750000000001,-0.1997250075,-0.9620250100000001,10.2120005,0.043278124,0.8814000264999999,0.3376499774999999,4.664906975000003,0.09501250025,35,62,0,9,27,0,62,53,-0.33630794422622495,-0.446848754783585,-0.011142781477808587,-0.2666971003756496,-1.4542153962492845,-1.0494166668534872,-1.309259069469175,2.195334944437235,Squat
-0.34961976782258075,-0.9264629339516128,10.461053722580646,-0.008379737903225808,0.3933029296697185,0.2738960981555445,2.8409112607014393,0.22874689634574133,0.34323169678459936,0.24199441381633713,2.4619716690426636,0.15904618561394385,-0.9944999999999999,-1.34595005,5.6769752,-0.671825,0.28755002,-0.4065,14.635501,0.26723125000000003,1.28205002,0.9394500499999999,8.9585258,0.93905625,-0.300487505,-0.8560125325,9.817275124999998,0.029425,0.7053750249999999,0.42073122124999995,4.475607250000001,0.1315015625,49,62,0,21,13,0,62,41,-0.1515660253322695,0.02144441181236822,-0.14327408878725278,-1.4775820509658533,-1.2519018144288763,-1.1990423439886682,-1.147415667134648,1.9302704689358654,Squat
-0.16638266589758063,-0.8782209999193549,8.843442733064515,-0.044225100967741925,0.24725102767095017,0.29731068808444633,2.0326779256889944,0.2121447684554655,0.1893152253886577,0.23738967474505726,1.713084984131113,0.1420130331841831,-0.64995002,-1.3534500500000002,5.6769752,-0.671825,0.28755002,-0.176025015,12.132526,0.26723125000000003,0.93750004,1.1774250350000002,6.4555508,0.93905625,-0.1377375025,-0.85050005,8.726287750000001,0.0167749995,0.24764999987500003,0.46513123624999997,2.674312937499999,0.1023859375,49,62,0,30,13,0,62,32,-0.3268202186700133,0.08642163234289511,0.1821968310210905,-1.4799778316703482,-0.5857575026818567,-0.6619752602753621,-1.037383430222665,2.351871512925624,Squat
-0.40097541533306463,-0.730778254048387,9.987915038709678,-0.009322278419354839,0.2769299030148176,0.3446748944624947,2.945869816752247,0.06026796903419351,0.24659072175296567,0.2785140342466181,2.6987156225806452,0.049803150833506775,-0.96105005,-1.3534500500000002,5.433,-0.14245000000000002,-0.036975,-0.041550001,14.664000999999999,0.097075,0.92407505,1.3119000490000001,9.231001,0.23952500000000002,-0.40552501,-0.6650250125,9.950250749999999,-0.00715,0.48024375375,0.3609000250000002,5.0113131875,0.086590624,62,62,0,32,0,0,62,30,-0.3953618815909079,-0.18400781535655875,-0.0048291708293129445,-0.19957278964703148,-1.0924049233012711,-0.5616839973016412,-1.4360233512159488,-0.6118360108720515,Squat
-0.4312971879032258,-0.6311286471129031,9.51749323709677,-0.053792439548387104,0.22928196742571924,0.2093551034668805,2.7191302142541476,0.15588433100534682,0.18034449108740896,0.1498581199406868,2.1757627273152957,0.12018440749011448,-0.96105005,-1.2255,5.433,-0.45196250000000004,-0.036975,-0.041550001,14.664000999999999,0.19394375,0.92407505,1.183949999,9.231001,0.64590625,-0.37297500499999997,-0.6675,9.0157135,-0.04107812500000001,0.2791124850000001,0.19991251500000007,4.4893131375,0.1702078125,62,62,0,38,0,0,62,24,-0.6642905352633496,0.5759731380072417,0.49939818941730063,-0.6021547720562048,-0.09325074407922385,1.4906158399777985,-0.8224125399427025,0.21651828937209538,Squat
-0.42324315395161294,-0.443962511125,10.446638081451615,-0.0012219755645161343,0.18387833616595523,0.3976792130936153,2.6283349020098354,0.20394766825772753,0.15189974368886575,0.3459774286048387,2.282824746019772,0.16384698854058272,-0.806550015,-1.2255,7.042500199999999,-0.45196250000000004,-0.12802501,0.31050000499999997,15.486976,0.36396249999999997,0.678525005,1.536000005,8.444475800000001,0.815925,-0.383737505,-0.5997375,9.4650005,0.01808125,0.2799749987500001,0.5897812550000001,4.3186687500000005,0.310406245,62,52,0,27,0,10,62,35,-0.46782483452237866,0.47972056584362494,0.651475600326504,-0.15372909328612944,-0.5449261757359656,-0.8128501632108067,-0.9027852457686807,-0.3694160541435392,Squat
-0.24400283056451616,-0.3038407359475806,10.215746901612905,-0.03749758016129032,0.35225731935256055,0.35647676766110364,3.1236405421277897,0.2518466940673902,0.3036190497762748,0.28369145124089484,2.69817179219563,0.20380547498439128,-0.806550015,-0.94402504,5.4750004,-0.483725,0.36900001,0.31050000499999997,15.486976,0.42088749999999997,1.175550025,1.2545250449999998,10.0119756,0.9046125,-0.18105000999999998,-0.284550005,9.50898775,-0.066996875,0.63397501,0.37230001949999997,5.1771757125,0.28434999499999997,42,50,0,34,20,12,62,28,0.012988043706206053,-0.06950673387747405,0.1481185180940489,0.09127530234169053,-1.2152587465718163,-0.714860740479939,-1.135621824796208,-0.7715880688851628,Squat
-0.2767173504032258,-0.25166371938709675,8.634167367741936,-0.021152822661290326,0.3911197792738923,0.39920121568954453,2.137368493668046,0.24305464526200948,0.33331920942247667,0.29656788300936526,1.7717187192507804,0.19621414422996875,-1.3245,-0.94402504,5.4750004,-0.483725,0.36900001,0.6885000450000001,12.9620255,0.42088749999999997,1.69350001,1.6325250850000002,7.487025099999999,0.9046125,-0.3064875125,-0.28447501,9.027488,0.045821874,0.6015000349999999,0.36103127150000003,2.771474849999999,0.244268745,42,49,0,24,20,13,62,38,-0.2691703108100869,0.3400179642687549,0.33799711980217256,-0.2051807797055004,-0.5361281437935443,-0.2622233011321322,-0.7454263521459574,-0.5765782455731925,Squat
