timestamp,datetime,time,accX,accY,accZ,gyrX,gyrY,gyrZ
1692440406933,2023-08-19 13:20:06.933,0.0,0.14895001,-0.060000002,9.77505,0.10615,-0.018975,-1.117325
1692440406976,2023-08-19 13:20:06.976,0.043,-0.054,0.042000003,9.74895,0.11055,-0.163075,-1.2414875
1692440407003,2023-08-19 13:20:07.003,0.07,0.23295002,-0.124050006,9.739051,0.0969375,-0.3114375,-1.1598125
1692440407037,2023-08-19 13:20:07.037,0.104,-0.18495001,-0.012,9.691051,0.079475,-0.309375,-0.9009
1692440407057,2023-08-19 13:20:07.057,0.124,-0.46305,0.13605,10.146001,0.0650375,-0.2930125,-0.7717875
1692440407083,2023-08-19 13:20:07.083,0.15,-0.09,0.054,9.80595,0.0512875,-0.2629,-0.6615125
1692440407117,2023-08-19 13:20:07.117,0.184,0.24000001,-0.12195001,10.74705,0.054175,-0.14795,-0.5762625
1692440407142,2023-08-19 13:20:07.142,0.209,0.49800003,0.0019500001,11.314051,0.0581625,-0.1087625,-0.5660875
1692440407169,2023-08-19 13:20:07.169,0.236,0.83295006,0.033,9.861,0.0449625,-0.110275,-0.516175
1692440407194,2023-08-19 13:20:07.194,0.261,0.24900001,0.39705002,9.69795,0.0196625,-0.1508375,-0.4329875
1692440407228,2023-08-19 13:20:07.228,0.295,0.076950006,0.507,8.944051,0.005225,-0.2814625,-0.340175
1692440407246,2023-08-19 13:20:07.246,0.313,-0.252,0.17400001,8.3220005,0.0347875,-0.3073125,-0.3658875
1692440407283,2023-08-19 13:20:07.283,0.35,2.3100002,-1.33095,9.61005,0.11165,-0.231825,-0.4453625
1692440407308,2023-08-19 13:20:07.308,0.375,1.48395,-1.04595,10.870951,0.084975,-0.2077625,-0.3458125
1692440407335,2023-08-19 13:20:07.335,0.402,-0.09195001,0.09705,11.983951,-0.0257125,-0.257125,-0.06985
1692440407363,2023-08-19 13:20:07.363,0.43,-1.605,1.179,9.387,-0.2836625,-0.4307875,0.451
1692440407390,2023-08-19 13:20:07.390,0.457,-1.4490001,0.624,8.30805,-0.26895,-0.3597,0.3482875
1692440407417,2023-08-19 13:20:07.417,0.484,-1.00605,0.16695,9.403951,0.0372625,0.1287,-0.41525
1692440407444,2023-08-19 13:20:07.444,0.511,0.61605,-0.91605,10.938001,0.1810875,0.36574998,-0.7352125
1692440407472,2023-08-19 13:20:07.472,0.539,2.5399501,-2.01795,10.6050005,0.2349875,0.4989875,-0.82445
1692440407500,2023-08-19 13:20:07.500,0.567,3.0859501,-2.32605,10.58205,0.0253,0.2915,-0.27101249
1692440407531,2023-08-19 13:20:07.531,0.598,-0.44895002,0.19305001,10.29405,-0.191125,-0.0364375,0.1797125
1692440407562,2023-08-19 13:20:07.562,0.629,-0.291,0.141,9.871051,-0.5196125,-0.6191625,0.6898375
1692440407593,2023-08-19 13:20:07.593,0.66,0.024,0.076050006,9.424951,-0.4862,-0.6067875,0.5776375
1692440407624,2023-08-19 13:20:07.624,0.691,0.41205,0.08805001,8.63595,-0.128975,-0.126775,-0.014162499
1692440407655,2023-08-19 13:20:07.655,0.722,0.40500003,0.09705,9.865951,0.0235125,0.0551375,-0.215875
1692440407690,2023-08-19 13:20:07.690,0.757,0.02205,0.45405003,9.76305,0.15015,0.110275,-0.27981248
1692440407714,2023-08-19 13:20:07.714,0.781,0.23700002,0.23895001,9.057,0.17173749,0.076175,-0.23333749
1692440407742,2023-08-19 13:20:07.742,0.809,0.15795001,0.10695001,9.093,0.2063875,0.043175,-0.170775
1692440407773,2023-08-19 13:20:07.773,0.84,-0.09900001,0.38700002,10.024051,0.2129875,0.0435875,-0.17655
1692440407803,2023-08-19 13:20:07.803,0.87,-0.19005,0.38205,10.048051,0.18205,0.0543125,-0.202125
1692440407832,2023-08-19 13:20:07.832,0.899,-0.19305001,0.32205,9.672001,0.16885,0.07755,-0.241725
1692440407860,2023-08-19 13:20:07.860,0.927,0.19695,0.016050002,9.922951,0.17985,0.14739999,-0.2776125
1692440407896,2023-08-19 13:20:07.896,0.963,0.49800003,-0.117000006,9.745951,0.15235,0.15785,-0.070675
1692440407927,2023-08-19 13:20:07.927,0.994,-0.09705,0.31305,9.21,0.1095875,0.120037496,0.0092124995
1692440407961,2023-08-19 13:20:07.961,1.028,-0.13695,0.028050002,10.392,0.0276375,0.0221375,0.0732875
1692440407989,2023-08-19 13:20:07.989,1.056,0.216,-0.15795001,10.68,0.0055,0.0061875,0.082499996
1692440408024,2023-08-19 13:20:08.024,1.091,-0.40305,0.44700003,8.323951,-0.01375,0.043449998,0.102575
1692440408044,2023-08-19 13:20:08.044,1.111,0.12195001,0.0139500005,8.33205,-0.01705,0.06655,0.1408
1692440408068,2023-08-19 13:20:08.068,1.135,-0.22095,0.48795003,9.769951,-0.012925,0.08305,0.153725
1692440408101,2023-08-19 13:20:08.101,1.168,0.36900002,-0.28005,10.56,0.012925,0.099825,0.0028875
1692440408122,2023-08-19 13:20:08.122,1.189,0.36900002,-0.28005,10.56,0.012925,0.099825,0.0028875
1692440408152,2023-08-19 13:20:08.152,1.219,0.36900002,-0.28005,10.56,0.012925,0.099825,0.0028875
1692440408179,2023-08-19 13:20:08.179,1.246,0.36900002,-0.28005,10.56,0.012925,0.099825,0.0028875
1692440408212,2023-08-19 13:20:08.212,1.279,0.36900002,-0.28005,10.56,0.012925,0.099825,0.0028875
1692440408241,2023-08-19 13:20:08.241,1.308,-0.17295001,0.018000001,10.825951,-0.058575,-0.089237496,0.24145
1692440408269,2023-08-19 13:20:08.269,1.336,-0.17295001,0.018000001,10.825951,-0.058575,-0.089237496,0.24145
1692440408301,2023-08-19 13:20:08.301,1.368,-0.17295001,0.018000001,10.825951,-0.058575,-0.089237496,0.24145
1692440408337,2023-08-19 13:20:08.337,1.404,0.23700002,0.25995,9.76095,-0.071775,-0.1439625,0.3914625
1692440408374,2023-08-19 13:20:08.374,1.441,-0.53505003,0.51900005,10.347,-0.0727375,-0.1810875,0.4263875
1692440408411,2023-08-19 13:20:08.411,1.478,-0.47295,0.41805002,8.941951,0.0020625,-0.12925,0.33935
1692440408431,2023-08-19 13:20:08.431,1.498,-0.73395,0.837,9.306001,0.0682,-0.0499125,0.2013
1692440408478,2023-08-19 13:20:08.478,1.545,0.96000004,-0.41595003,9.43305,0.179025,0.1648625,-0.14973749
1692440408499,2023-08-19 13:20:08.499,1.566,1.365,-0.46395,10.407001,0.15345,0.1676125,-0.1181125
1692440408521,2023-08-19 13:20:08.521,1.588,1.3579501,-0.66300005,10.737,0.15345,0.1676125,-0.1181125
1692440408551,2023-08-19 13:20:08.551,1.618,0.73800004,-0.57405,9.8539505,-0.0132,-0.0512875,0.117425
1692440408581,2023-08-19 13:20:08.581,1.648,-0.50100005,0.28905,9.61005,-0.1835625,-0.28393748,0.30855
1692440408607,2023-08-19 13:20:08.607,1.674,-0.80505,0.89895004,9.64305,-0.215875,-0.2926,0.34155
1692440408632,2023-08-19 13:20:08.632,1.699,-1.3369501,1.0500001,10.12005,-0.1915375,-0.213125,0.279675
1692440408661,2023-08-19 13:20:08.661,1.728,0.321,-0.064050004,10.12905,0.0254375,0.1445125,-0.177375
1692440408696,2023-08-19 13:20:08.696,1.763,0.9670501,-0.25095,9.79605,0.1566125,0.33055,-0.4439875
1692440408709,2023-08-19 13:20:08.709,1.776,0.651,0.045,10.345051,0.2272875,0.423225,-0.5856125
1692440408745,2023-08-19 13:20:08.745,1.812,0.14205001,0.25500003,9.102,0.12773749,0.20185,-0.4169
1692440408772,2023-08-19 13:20:08.772,1.839,-0.3,0.20805001,8.134951,0.050325,0.0188375,-0.292325
1692440408804,2023-08-19 13:20:08.804,1.871,0.41400003,0.28395,9.042001,0.007425,-0.1188,-0.186175
1692440408831,2023-08-19 13:20:08.831,1.898,0.85695004,0.105000004,9.603001,0.021724999,-0.0820875,-0.1549625
1692440408859,2023-08-19 13:20:08.859,1.926,0.25905,-0.021000002,10.323001,0.0413875,-0.0149875,-0.0603625
1692440408885,2023-08-19 13:20:08.885,1.952,0.16095,-0.13605,9.8230505,0.03135,-0.052525,0.000275
1692440408914,2023-08-19 13:20:08.914,1.981,0.32295,0.034950003,10.005,0.0088,-0.1016125,0.0477125
1692440408944,2023-08-19 13:20:08.944,2.011,0.91200006,-0.15300001,10.59105,-0.0463375,-0.0884125,0.0479875
1692440408970,2023-08-19 13:20:08.970,2.037,0.108,-0.043050002,10.71105,-0.064075,-0.058575,0.0191125
1692440409000,2023-08-19 13:20:09.000,2.067,0.00795,-0.47400004,10.44495,-0.0779625,-0.0232375,0.0138875
1692440409025,2023-08-19 13:20:09.025,2.092,-0.05595,-0.531,10.455001,-0.087725,0.0004125,0.033825
1692440409053,2023-08-19 13:20:09.053,2.12,0.087000005,-0.54495,10.30605,-0.110825,0.0290125,0.0383625
1692440409082,2023-08-19 13:20:09.082,2.149,0.37605003,-0.51195,10.01895,-0.17985,0.077275,0.0350625
1692440409110,2023-08-19 13:20:09.110,2.177,0.10605001,-0.33495003,9.394051,-0.201025,0.0823625,0.0804375
1692440409139,2023-08-19 13:20:09.139,2.206,0.10095,-0.26805001,9.403951,-0.2028125,0.0341,0.1304875
1692440409171,2023-08-19 13:20:09.171,2.238,0.09105001,-0.34395,10.12695,-0.1848,0.0116875,0.063525
1692440409200,2023-08-19 13:20:09.200,2.267,0.10305001,-0.27,10.066951,-0.1233375,0.0125124995,-0.0177375
1692440409228,2023-08-19 13:20:09.228,2.295,0.087000005,-0.27,9.64305,-0.0935,0.0176,0.0122375
1692440409256,2023-08-19 13:20:09.256,2.323,0.10095,-0.25095,9.64305,-0.047849998,0.02255,0.0603625
1692440409285,2023-08-19 13:20:09.285,2.352,0.0,-0.33195,9.82005,-0.029975,0.0257125,0.0430375
1692440409313,2023-08-19 13:20:09.313,2.38,0.052950002,-0.26505002,9.92805,-0.0158125,0.0303875,-0.0094875
1692440409340,2023-08-19 13:20:09.340,2.407,-0.11100001,-0.246,9.835051,-0.000275,0.0444125,-0.0952875
1692440409367,2023-08-19 13:20:09.367,2.434,0.034050003,-0.39705002,9.98595,0.0011,0.0523875,-0.089925
1692440409397,2023-08-19 13:20:09.397,2.464,0.076950006,-0.29895002,9.8869505,-0.0031625,0.0732875,-0.131175
1692440409425,2023-08-19 13:20:09.425,2.492,-0.049050003,-0.21795002,9.62895,-0.005225,0.0796125,-0.17173749
1692440409452,2023-08-19 13:20:09.452,2.519,-0.00795,-0.21795002,9.67395,-0.0061875,0.0743875,-0.1909875
1692440409479,2023-08-19 13:20:09.479,2.546,0.01905,-0.25605002,9.828,0.0009625,0.0455125,-0.1868625
1692440409508,2023-08-19 13:20:09.508,2.575,-0.05595,-0.27,9.865951,0.0077,0.036025,-0.175725
1692440409535,2023-08-19 13:20:09.535,2.602,-0.08505,-0.273,9.877951,0.013062499,0.026124999,-0.143275
1692440409564,2023-08-19 13:20:09.564,2.631,-0.022950001,-0.30600002,9.768001,0.0103124995,0.026675,-0.1243
1692440409591,2023-08-19 13:20:09.591,2.658,-0.123,-0.34695002,9.97095,0.0048125,0.031075,-0.087037496
1692440409620,2023-08-19 13:20:09.620,2.687,-0.003,-0.29205,9.934951,-0.01155,0.032725,0.064899996
1692440409648,2023-08-19 13:20:09.648,2.715,0.012,-0.26505002,9.85095,-0.0191125,0.0281875,0.1332375
1692440409676,2023-08-19 13:20:09.676,2.743,-0.039,-0.23400001,9.904051,-0.02365,0.01815,0.150425
1692440409703,2023-08-19 13:20:09.703,2.77,-0.051000003,-0.16995001,9.712951,-0.0188375,0.0127875,0.1172875
1692440409733,2023-08-19 13:20:09.733,2.8,0.031050002,-0.13605,9.604951,-0.0083875,0.0070125,0.0704
1692440409760,2023-08-19 13:20:09.760,2.827,0.00795,-0.162,9.672001,0.0213125,0.00055,-0.0642125
1692440409792,2023-08-19 13:20:09.792,2.859,-0.043950003,-0.21000001,9.918,0.03355,0.00055,-0.127875
1692440409819,2023-08-19 13:20:09.819,2.886,-0.14505,-0.282,9.94995,0.0402875,0.0004125,-0.11715
1692440409847,2023-08-19 13:20:09.847,2.914,-0.058050003,-0.26295,9.9210005,0.0347875,0.0022,-0.041525
1692440409876,2023-08-19 13:20:09.876,2.943,0.0,-0.23205002,9.946951,0.013612499,0.0143,0.1145375
1692440409904,2023-08-19 13:20:09.904,2.971,0.028950002,-0.23400001,9.70995,0.0034375,0.017324999,0.1786125
1692440409932,2023-08-19 13:20:09.932,2.999,0.04605,-0.19395001,9.727051,-0.0017875,0.014162499,0.224125
1692440409961,2023-08-19 13:20:09.961,3.028,0.058050003,-0.177,9.8869505,0.0048125,-0.0009625,0.135025
1692440409988,2023-08-19 13:20:09.988,3.055,-0.078,-0.16995001,9.684,0.0116875,-0.00825,0.0276375
1692440410015,2023-08-19 13:20:10.015,3.082,-0.01305,-0.21795002,9.768001,0.0242,-0.015675,-0.09185
1692440410046,2023-08-19 13:20:10.046,3.113,0.01905,-0.25305,9.92805,0.029424999,-0.013062499,-0.0919875
1692440410074,2023-08-19 13:20:10.074,3.141,0.02205,-0.24900001,9.90705,0.031075,-0.0086624995,-0.0647625
1692440410101,2023-08-19 13:20:10.101,3.168,-0.09705,-0.201,9.768001,0.0199375,-0.004675,-0.0092124995
1692440410130,2023-08-19 13:20:10.130,3.197,-0.01305,-0.24105,9.75105,0.010725,-0.004125,-0.0229625
1692440410159,2023-08-19 13:20:10.159,3.226,-0.063,-0.25305,9.873,-0.0033,0.0037125,-0.100099996
1692440410184,2023-08-19 13:20:10.184,3.251,-0.043950003,-0.21795002,9.816001,-0.0053625,0.0097624995,-0.12045
1692440410214,2023-08-19 13:20:10.214,3.281,0.024,-0.18900001,9.77505,-0.00715,0.0127875,-0.1101375
1692440410241,2023-08-19 13:20:10.241,3.308,-0.12105001,-0.22695,9.772051,-0.0077,0.0100375,-0.0295625
1692440410271,2023-08-19 13:20:10.271,3.338,0.04095,-0.23700002,9.777,-0.0034375,0.0070125,0.0037125
1692440410298,2023-08-19 13:20:10.298,3.365,0.024,-0.28500003,10.014001,0.0001375,0.0028875,-0.006875
1692440410326,2023-08-19 13:20:10.326,3.393,-0.04695,-0.21795002,9.918,-0.000275,-0.000275,-0.050325
1692440410354,2023-08-19 13:20:10.354,3.421,-0.043950003,-0.19800001,9.79395,-0.00275,-0.0045375,-0.098037496
1692440410382,2023-08-19 13:20:10.382,3.449,0.003,-0.29700002,9.8230505,-0.004125,-0.0039875,-0.1508375
1692440410409,2023-08-19 13:20:10.409,3.476,-0.039,-0.294,9.909,-0.0020625,0.0017875,-0.1467125
1692440410439,2023-08-19 13:20:10.439,3.506,-0.07005,-0.32505003,9.993,-0.0075625,0.00715,-0.020624999
1692440410465,2023-08-19 13:20:10.465,3.532,-0.003,-0.26295,9.68595,-0.015125,0.007975,0.058575
1692440410495,2023-08-19 13:20:10.495,3.562,-0.01995,-0.31995,9.607051,-0.0248875,0.0132,0.095699996
1692440410523,2023-08-19 13:20:10.523,3.59,-0.10395,-0.32805002,9.98595,-0.026124999,0.013475,0.088825
1692440410551,2023-08-19 13:20:10.551,3.618,-0.079950005,-0.31095,9.934951,-0.0264,0.011825,0.088
1692440410577,2023-08-19 13:20:10.577,3.644,-0.075,-0.28005,9.736951,-0.0276375,0.0163625,0.04895
1692440410607,2023-08-19 13:20:10.607,3.674,-0.015000001,-0.26295,9.739051,-0.0273625,0.0209,0.013612499
1692440410633,2023-08-19 13:20:10.633,3.7,0.04095,-0.26805001,9.769951,-0.02475,0.0218625,0.0089375
1692440410662,2023-08-19 13:20:10.662,3.729,-0.018000001,-0.27,9.871051,-0.01375,0.01045,0.1225125
1692440410689,2023-08-19 13:20:10.689,3.756,-0.039,-0.29205,9.889951,-0.0081124995,0.0015125,0.1901625
1692440410716,2023-08-19 13:20:10.716,3.783,0.039,-0.25800002,9.684,-0.003575,-0.0064625,0.234575
1692440410745,2023-08-19 13:20:10.745,3.812,-0.01305,-0.30795002,9.712951,0.0022,-0.014162499,0.22825
1692440410775,2023-08-19 13:20:10.775,3.842,-0.14895001,-0.246,9.92595,0.00275,-0.0125124995,0.1780625
1692440410807,2023-08-19 13:20:10.807,3.874,-0.109050006,-0.23400001,9.705001,0.0034375,-0.0044,0.0518375
1692440410838,2023-08-19 13:20:10.838,3.905,-0.079950005,-0.201,9.780001,0.0067375,0.0177375,-0.0897875
1692440410871,2023-08-19 13:20:10.871,3.938,-0.19305001,-0.27495003,10.05,0.0100375,0.026675,-0.1535875
1692440410899,2023-08-19 13:20:10.899,3.966,-0.11100001,-0.33495003,9.772051,0.013475,0.035475,-0.2396625
1692440410934,2023-08-19 13:20:10.934,4.001,-0.07305,-0.32805002,9.765,0.0100375,0.041249998,-0.26427498
1692440410968,2023-08-19 13:20:10.968,4.035,-0.03705,-0.29700002,9.80595,-0.00275,0.040425,-0.241175
1692440410991,2023-08-19 13:20:10.991,4.058,-0.078,-0.24900001,9.67395,-0.009075,0.03025,-0.194975
1692440411028,2023-08-19 13:20:11.028,4.095,-0.087000005,-0.354,9.94995,-0.0165,0.0089375,-0.1161875
1692440411055,2023-08-19 13:20:11.055,4.122,-0.11100001,-0.34005,9.9210005,-0.012925,0.0011,-0.0380875
1692440411088,2023-08-19 13:20:11.088,4.155,-0.049050003,-0.34905002,9.847051,-0.0165,-0.00165,0.0517
1692440411119,2023-08-19 13:20:11.119,4.186,-0.087000005,-0.31995,9.828,-0.02695,-0.0045375,0.2047375
1692440411150,2023-08-19 13:20:11.150,4.217,-0.042000003,-0.32805002,9.898951,-0.02915,-0.0078375,0.2110625
1692440411180,2023-08-19 13:20:11.180,4.247,0.024,-0.30795002,9.94995,-0.0276375,-0.0097624995,0.180675
1692440411214,2023-08-19 13:20:11.214,4.281,-0.043950003,-0.29895002,9.84405,-0.0176,-0.009625,0.043449998
1692440411244,2023-08-19 13:20:11.244,4.311,-0.03195,-0.28905,9.813001,-0.0077,-0.0187,-0.0650375
1692440411274,2023-08-19 13:20:11.274,4.341,-0.01305,-0.31995,9.847051,-0.00385,-0.021175,-0.0704
1692440411305,2023-08-19 13:20:11.305,4.372,-0.11100001,-0.25605002,9.87495,-0.0012375,-0.01265,-0.0397375
1692440411337,2023-08-19 13:20:11.337,4.404,0.0049500004,-0.29205,9.765,0.0004125,-0.0078375,-0.006875
1692440411366,2023-08-19 13:20:11.366,4.433,-0.051000003,-0.26505002,9.813001,0.002475,-0.00935,0.0275
1692440411399,2023-08-19 13:20:11.399,4.466,-0.12105001,-0.26805001,9.99495,0.0037125,-0.01265,0.0611875
1692440411435,2023-08-19 13:20:11.435,4.502,-0.09900001,-0.30600002,9.705001,0.0061875,-0.017324999,0.0859375
1692440411466,2023-08-19 13:20:11.466,4.533,-0.07005,-0.402,9.93795,0.003575,-0.0039875,0.0380875
1692440411493,2023-08-19 13:20:11.493,4.56,-0.022950001,-0.34905002,9.889951,-0.0,0.00825,0.007425
1692440411525,2023-08-19 13:20:11.525,4.592,-0.09,-0.30600002,9.48795,-0.0053625,0.0092124995,0.003025
1692440411556,2023-08-19 13:20:11.556,4.623,-0.079950005,-0.354,9.916051,-0.009625,0.0048125,0.01595
1692440411591,2023-08-19 13:20:11.591,4.658,-0.06105,-0.29700002,9.89505,-0.0067375,0.0033,0.0111375
1692440411611,2023-08-19 13:20:11.611,4.678,-0.063,-0.24405001,9.717,-0.004675,0.0023375,0.0078375
1692440411649,2023-08-19 13:20:11.649,4.716,0.055050004,-0.19800001,9.84405,0.00055,0.0001375,0.017324999
1692440411679,2023-08-19 13:20:11.679,4.746,0.075,-0.23895001,9.934951,0.00825,-0.0042625,0.0394625
1692440411707,2023-08-19 13:20:11.707,4.774,0.23505001,-0.31605002,9.904051,0.0251625,-0.0235125,0.005775
1692440411742,2023-08-19 13:20:11.742,4.809,0.35205,-0.33705002,9.555,0.02475,-0.0482625,-0.113299996
1692440411776,2023-08-19 13:20:11.776,4.843,0.13905,-0.28695002,9.495001,0.01595,-0.0653125,-0.138325
1692440411806,2023-08-19 13:20:11.806,4.873,0.052950002,-0.21795002,9.571051,-0.0022,-0.095425,-0.111925
1692440411837,2023-08-19 13:20:11.837,4.904,0.031050002,-0.162,9.057,-0.0009625,-0.077825,-0.084425
1692440411864,2023-08-19 13:20:11.864,4.931,0.22500001,-0.33,8.85105,0.0070125,-0.0554125,-0.0840125
1692440411898,2023-08-19 13:20:11.898,4.965,-0.01305,-0.44700003,9.556951,0.0188375,-0.0248875,-0.0598125
1692440411924,2023-08-19 13:20:11.924,4.991,-0.010950001,-0.45900002,9.768001,0.0127875,-0.023924999,-0.01265
1692440411957,2023-08-19 13:20:11.957,5.024,0.15105,-0.34395,9.042001,-0.0023375,-0.021724999,0.045375
1692440411991,2023-08-19 13:20:11.991,5.058,0.33795002,-0.354,8.21895,-0.0374,0.0006875,0.0902
1692440412024,2023-08-19 13:20:12.024,5.091,0.04605,-0.55695003,8.616,-0.0477125,-0.01375,-0.0149875
1692440412054,2023-08-19 13:20:12.054,5.121,-0.03195,-0.54795,8.575951,-0.0501875,-0.0361625,-0.07975
1692440412087,2023-08-19 13:20:12.087,5.154,-0.087000005,-0.31995,7.6110005,-0.0749375,-0.0408375,-0.069025
1692440412116,2023-08-19 13:20:12.116,5.183,0.17295001,-0.38700002,6.6439505,-0.08965,0.0099,0.0776875
1692440412142,2023-08-19 13:20:12.142,5.209,0.333,-0.47805002,6.84,-0.080025,0.032449998,0.073699996
1692440412178,2023-08-19 13:20:12.178,5.245,0.028950002,-0.37095,7.46505,-0.06985,0.0394625,0.000275
1692440412209,2023-08-19 13:20:12.209,5.276,0.25905,-0.411,7.00995,-0.0730125,0.000275,-0.1560625
1692440412237,2023-08-19 13:20:12.237,5.304,0.043050002,-0.67695004,7.1040006,-0.064899996,-0.0369875,-0.2220625
1692440412279,2023-08-19 13:20:12.279,5.346,-0.24795002,-0.684,7.5439506,-0.0594,-0.0405625,-0.2520375
1692440412304,2023-08-19 13:20:12.304,5.371,-0.094050005,-0.73200005,7.9440002,-0.0935,-0.0108624995,-0.18425
1692440412334,2023-08-19 13:20:12.334,5.401,-0.126,-0.77805007,8.23095,-0.1197625,0.0276375,-0.064075
1692440412363,2023-08-19 13:20:12.363,5.43,-0.45600003,-0.45705003,8.500951,-0.1373625,0.0697125,0.06875
1692440412398,2023-08-19 13:20:12.398,5.465,-0.09900001,-0.35595003,8.35305,-0.1287,0.1254,0.2666125
1692440412430,2023-08-19 13:20:12.430,5.497,0.10095,-0.23700002,9.363001,-0.087725,0.1450625,0.262075
1692440412464,2023-08-19 13:20:12.464,5.531,0.16800001,-0.15,10.15095,0.0361625,0.128425,0.24475
1692440412493,2023-08-19 13:20:12.493,5.56,0.22800002,0.15,9.579,0.09735,0.0774125,0.2278375
1692440412520,2023-08-19 13:20:12.520,5.587,0.20400001,0.279,10.042951,0.1904375,-0.034649998,0.1863125
1692440412559,2023-08-19 13:20:12.559,5.626,0.10605001,0.12900001,10.375951,0.2300375,-0.07315,0.15565
1692440412586,2023-08-19 13:20:12.586,5.653,0.56805,0.049950004,11.13,0.29755,-0.1101375,0.11385
1692440412619,2023-08-19 13:20:12.619,5.686,0.57705003,0.016050002,11.235001,0.291225,-0.115225,0.1233375
1692440412650,2023-08-19 13:20:12.650,5.717,-0.04695,-0.060000002,12.183001,0.2583625,-0.132275,0.1324125
1692440412679,2023-08-19 13:20:12.679,5.746,0.10605001,0.105000004,12.178051,0.2171125,-0.157575,0.1577125
1692440412709,2023-08-19 13:20:12.709,5.776,0.051000003,0.43995002,11.299951,0.13859999,-0.135025,0.2484625
1692440412742,2023-08-19 13:20:12.742,5.809,0.17505,0.66705,11.58405,0.121825,-0.041525,0.2864125
1692440412773,2023-08-19 13:20:12.773,5.84,0.132,0.86595005,11.623051,0.147125,-0.0132,0.2385625
1692440412804,2023-08-19 13:20:12.804,5.871,0.15795001,0.92295,11.862,0.2233,0.0086624995,-0.02805
1692440412834,2023-08-19 13:20:12.834,5.901,-0.29505002,1.19895,11.637,0.2553375,0.0086624995,-0.1601875
1692440412869,2023-08-19 13:20:12.869,5.936,-0.26205,1.09605,11.908051,0.2943875,0.0154,-0.2952125
1692440412895,2023-08-19 13:20:12.895,5.962,-0.58695,0.88500005,12.337951,0.3078625,0.0625625,-0.4676375
1692440412928,2023-08-19 13:20:12.928,5.995,-0.26205,0.57105005,14.328001,0.2998875,0.0900625,-0.5328125
1692440412960,2023-08-19 13:20:12.960,6.027,0.35895002,0.46800002,15.570001,0.273625,0.115775,-0.5262125
1692440412988,2023-08-19 13:20:12.988,6.055,0.53895,0.99300003,14.530951,0.1524875,0.13805,-0.2850375
1692440413018,2023-08-19 13:20:13.018,6.085,0.61305004,1.36395,13.642951,0.0273625,0.0268125,-0.0884125
1692440413046,2023-08-19 13:20:13.046,6.113,0.16995001,1.5120001,14.920951,0.0155375,-0.054725,-0.1291125
1692440413079,2023-08-19 13:20:13.079,6.146,0.18705001,1.2220501,14.851951,0.0895125,-0.1456125,-0.328625
1692440413111,2023-08-19 13:20:13.111,6.178,0.47400004,0.49500003,15.12705,0.13255,-0.141625,-0.379775
1692440413144,2023-08-19 13:20:13.144,6.211,0.37905002,0.042000003,16.597052,0.13653749,-0.0963875,-0.386375
1692440413167,2023-08-19 13:20:13.167,6.234,0.72795004,-0.033,15.996,0.0818125,-0.083875,-0.3444375
1692440413205,2023-08-19 13:20:13.205,6.272,0.86205006,0.12105001,13.18605,-0.0974875,-0.080575,-0.0730125
1692440413239,2023-08-19 13:20:13.239,6.306,0.53205,0.23895001,11.173051,-0.172425,-0.090475,0.0664125
1692440413269,2023-08-19 13:20:13.269,6.336,0.39105,-0.064050004,10.926001,-0.2211,-0.12815,0.128975
1692440413300,2023-08-19 13:20:13.300,6.367,0.582,-0.61200005,12.133051,-0.186175,-0.129525,0.102437496
1692440413332,2023-08-19 13:20:13.332,6.399,0.47205,-0.60795003,11.87895,-0.1819125,-0.116325,0.1502875
1692440413358,2023-08-19 13:20:13.358,6.425,0.66795003,-0.39000002,11.026951,-0.2030875,-0.1021625,0.2468125
1692440413390,2023-08-19 13:20:13.390,6.457,0.261,0.17400001,9.64995,-0.2701875,-0.07535,0.4214375
1692440413416,2023-08-19 13:20:13.416,6.483,0.039,0.42795002,7.9750504,-0.275275,-0.0677875,0.4217125
1692440413448,2023-08-19 13:20:13.448,6.515,1.00605,0.22005,6.4020004,-0.187825,-0.0473,0.202125
1692440413478,2023-08-19 13:20:13.478,6.545,0.96000004,-0.16005,6.3040504,-0.034649998,-0.01375,-0.1775125
1692440413508,2023-08-19 13:20:13.508,6.575,0.39495003,-0.043050002,6.6730504,0.0121,-0.050325,-0.3356375
1692440413541,2023-08-19 13:20:13.541,6.608,0.75195,0.08295,6.3160505,0.0204875,-0.1216875,-0.437525
1692440413572,2023-08-19 13:20:13.572,6.639,1.06605,0.034950003,6.2710505,-0.016224999,-0.19373749,-0.4536125
1692440413600,2023-08-19 13:20:13.600,6.667,-0.372,0.102000006,6.0139503,-0.0242,-0.194975,-0.40535
1692440413630,2023-08-19 13:20:13.630,6.697,-0.22800002,-0.45705003,5.5210505,-0.0248875,-0.2057,-0.4318875
1692440413661,2023-08-19 13:20:13.661,6.728,-0.17595,-0.49995002,5.631,-0.04015,-0.0719125,-0.425975
1692440413693,2023-08-19 13:20:13.693,6.76,-0.16095,-0.47400004,6.4360504,-0.072875,0.06215,-0.304975
1692440413726,2023-08-19 13:20:13.726,6.793,-0.55905,-0.58905005,6.867,-0.1925,0.2508,0.110275
1692440413757,2023-08-19 13:20:13.757,6.824,0.13695,-0.44505003,7.25895,-0.2407625,0.2916375,0.3146
1692440413786,2023-08-19 13:20:13.786,6.853,0.76605004,-0.01905,8.599951,-0.2743125,0.341275,0.6546375
1692440413818,2023-08-19 13:20:13.818,6.885,1.8910501,-0.64605004,7.221,-0.2039125,0.2127125,0.66522497
1692440413849,2023-08-19 13:20:13.849,6.916,0.546,-0.44295,7.8240004,-0.1340625,0.0416625,0.5630625
1692440413882,2023-08-19 13:20:13.882,6.949,-1.167,0.018000001,11.06295,-0.07975,-0.378125,0.6241125
1692440413913,2023-08-19 13:20:13.913,6.98,-0.37905002,0.32205,10.620001,-0.0759,-0.427625,0.69836247
1692440413944,2023-08-19 13:20:13.944,7.011,0.22500001,0.95205003,8.01795,0.0385,0.0358875,0.5990875
1692440413973,2023-08-19 13:20:13.973,7.04,1.008,1.1359501,6.2899504,0.132275,0.26235,0.420475
1692440413999,2023-08-19 13:20:13.999,7.066,1.3930501,0.648,7.2570004,0.3427875,0.2547875,-0.171875
1692440414032,2023-08-19 13:20:14.032,7.099,0.60795003,0.25095,10.93305,0.43835,0.096525,-0.46928748
1692440414064,2023-08-19 13:20:14.064,7.131,0.051000003,0.53295004,11.793,0.47025,-0.25575,-0.6210875
1692440414090,2023-08-19 13:20:14.090,7.157,0.21795002,0.85395,10.543051,0.3969625,-0.3102,-0.4731375
1692440414122,2023-08-19 13:20:14.122,7.189,0.75705004,0.97605,9.082951,0.2371875,-0.1236125,-0.23567499
1692440414150,2023-08-19 13:20:14.150,7.217,0.99600005,0.90900004,9.58605,0.2058375,-0.0265375,-0.2717
1692440414179,2023-08-19 13:20:14.179,7.246,0.48405004,0.88995004,10.347,0.2212375,-0.032725,-0.4200625
1692440414208,2023-08-19 13:20:14.208,7.275,0.37095,0.99000007,10.77795,0.2292125,-0.088,-0.42405
1692440414241,2023-08-19 13:20:14.241,7.308,0.19695,1.1890501,10.036051,0.22275,-0.1167375,-0.4142875
1692440414276,2023-08-19 13:20:14.276,7.343,0.642,0.93000007,9.607051,0.1819125,-0.0089375,-0.4701125
1692440414309,2023-08-19 13:20:14.309,7.376,0.49095002,0.64995,9.98295,0.1810875,0.016775,-0.4640625
1692440414334,2023-08-19 13:20:14.334,7.401,0.52005005,0.49005002,9.966001,0.177375,0.018975,-0.416625
1692440414367,2023-08-19 13:20:14.367,7.434,0.54105,0.40905002,9.471001,0.1175625,-0.0020625,-0.13805
1692440414386,2023-08-19 13:20:14.386,7.453,0.67995006,0.279,9.238951,0.0600875,-0.00495,-0.002475
1692440414426,2023-08-19 13:20:14.426,7.493,0.67095006,0.33,8.86095,-0.0507375,-0.0097624995,0.1214125
1692440414456,2023-08-19 13:20:14.456,7.523,0.201,0.36105,8.887051,-0.114125,-0.0356125,0.2726625
1692440414486,2023-08-19 13:20:14.486,7.553,-0.11805001,0.37005,9.13095,-0.1280125,-0.0444125,0.319825
1692440414517,2023-08-19 13:20:14.517,7.584,0.13395001,0.10005,9.49695,-0.1287,-0.0273625,0.3339875
1692440414547,2023-08-19 13:20:14.547,7.614,0.11805001,0.0139500005,9.62895,-0.1128875,0.0933625,0.3641
1692440414581,2023-08-19 13:20:14.581,7.648,0.38295,0.049950004,9.813001,-0.1395625,0.1775125,0.4395875
1692440414616,2023-08-19 13:20:14.616,7.683,0.39495003,0.19800001,9.64605,-0.1659625,0.1782,0.45705
1692440414648,2023-08-19 13:20:14.648,7.715,0.62700003,0.40605003,9.150001,-0.1859,0.126225,0.3683625
1692440414682,2023-08-19 13:20:14.682,7.749,1.36995,0.38205,7.8820505,-0.1387375,0.0419375,0.1716
1692440414702,2023-08-19 13:20:14.702,7.769,1.5439501,0.17400001,7.4359503,-0.098725,-0.013612499,0.047849998
1692440414736,2023-08-19 13:20:14.736,7.803,0.42405003,0.303,7.62795,-0.0325875,-0.1975875,-0.1918125
1692440414767,2023-08-19 13:20:14.767,7.834,0.46695003,0.42105,7.7160006,-0.0182875,-0.2794,-0.23375
1692440414801,2023-08-19 13:20:14.801,7.868,0.73800004,0.44205,7.2570004,0.003025,-0.2594625,-0.2162875
1692440414829,2023-08-19 13:20:14.829,7.896,0.80205005,0.42105,6.9700503,0.0202125,-0.1991,-0.226325
1692440414863,2023-08-19 13:20:14.863,7.93,0.55095005,0.43500003,6.61005,0.0507375,-0.1452,-0.2748625
1692440414897,2023-08-19 13:20:14.897,7.964,0.77805007,0.31305,5.82495,0.057475,-0.1480875,-0.32285
1692440414929,2023-08-19 13:20:14.929,7.996,-0.16395001,0.38205,4.80105,0.0424875,-0.1527625,-0.5119125
1692440414962,2023-08-19 13:20:14.962,8.029,0.16095,0.13800001,4.9729505,0.0171875,-0.116325,-0.5864375
1692440414991,2023-08-19 13:20:14.991,8.058,0.51000005,0.009000001,6.498,0.0188375,-0.0543125,-0.49995
1692440415025,2023-08-19 13:20:15.025,8.092,-0.058050003,0.40395,7.491,0.0078375,0.0886875,-0.0452375
1692440415051,2023-08-19 13:20:15.051,8.118,0.04605,0.492,8.089951,-0.0165,0.122099996,0.2376
1692440415082,2023-08-19 13:20:15.082,8.149,0.16095,0.71295005,8.49195,-0.014712499,0.2072125,0.52305
1692440415114,2023-08-19 13:20:15.114,8.181,-0.042000003,1.15995,10.962001,0.02145,0.26125,0.518375
1692440415146,2023-08-19 13:20:15.146,8.213,0.10605001,1.0309501,11.48595,0.1296625,0.30855,0.339625
1692440415179,2023-08-19 13:20:15.179,8.246,-0.51795,1.34895,12.118051,0.22605,0.2938375,0.0826375
1692440415201,2023-08-19 13:20:15.201,8.268,0.112950005,1.5120001,12.870001,0.234575,0.2701875,0.0292875
1692440415229,2023-08-19 13:20:15.229,8.296,0.47205,1.917,12.694951,0.2341625,0.2550625,-0.00605
1692440415259,2023-08-19 13:20:15.259,8.326,1.116,2.319,11.59395,0.26565,0.201575,-0.18493749
1692440415292,2023-08-19 13:20:15.292,8.359,0.38595003,2.63205,12.19995,0.3031875,0.1093125,-0.3213375
1692440415318,2023-08-19 13:20:15.318,8.385,0.064950004,2.4379501,13.629001,0.407,-0.1266375,-0.5413375
1692440415355,2023-08-19 13:20:15.355,8.422,0.18900001,3.0010502,14.529,0.4417875,-0.179575,-0.5757125
1692440415383,2023-08-19 13:20:15.383,8.45,0.41700003,3.4129503,14.557051,0.4186875,-0.1230625,-0.589325
1692440415415,2023-08-19 13:20:15.415,8.482,0.47895002,3.0010502,14.895,0.3922875,-0.0856625,-0.641025
1692440415446,2023-08-19 13:20:15.446,8.513,-0.17595,2.9290502,15.241951,0.382525,-0.0735625,-0.6879125
1692440415478,2023-08-19 13:20:15.478,8.545,-0.666,2.9530501,15.175051,0.3251875,-0.0495,-0.4778125
1692440415509,2023-08-19 13:20:15.509,8.576,-0.43395,2.5440001,14.7300005,0.2701875,-0.0009625,-0.3865125
1692440415542,2023-08-19 13:20:15.542,8.609,-0.058050003,2.0670002,15.739951,0.1698125,0.1233375,-0.3023625
1692440415572,2023-08-19 13:20:15.572,8.639,-0.022950001,1.51005,15.1699505,0.113437496,0.1632125,-0.2072125
1692440415598,2023-08-19 13:20:15.598,8.665,0.38595003,0.94695,15.345,0.0394625,0.182325,-0.032449998
1692440415639,2023-08-19 13:20:15.639,8.706,0.25905,0.47595003,16.55595,-0.24475,0.157025,0.550825
1692440415667,2023-08-19 13:20:15.667,8.734,1.4290501,0.62895006,15.321001,-0.3493875,0.122925,0.67553747
1692440415696,2023-08-19 13:20:15.696,8.763,1.8769501,0.43995002,14.272951,-0.44165,0.0785125,0.749925
1692440415723,2023-08-19 13:20:15.723,8.79,1.44105,0.22200002,14.469001,-0.510125,-0.0803,0.57722497
1692440415756,2023-08-19 13:20:15.756,8.823,0.24195,-0.186,13.309951,-0.4681875,-0.2891625,0.2893
1692440415783,2023-08-19 13:20:15.783,8.85,0.055050004,-0.57900006,12.4459505,-0.4464625,-0.3202375,0.3025
1692440415814,2023-08-19 13:20:15.814,8.881,-0.36495003,-0.55305004,11.158051,-0.434225,-0.2721125,0.402875
1692440415847,2023-08-19 13:20:15.847,8.914,-0.48195,0.42105,8.736,-0.432025,-0.0449625,0.6485875
1692440415880,2023-08-19 13:20:15.880,8.947,1.6849501,0.55695003,6.42105,-0.38225,0.1480875,0.59125
1692440415912,2023-08-19 13:20:15.912,8.979,2.325,0.052050002,6.4020004,-0.3029125,0.17545,0.3722125
1692440415938,2023-08-19 13:20:15.938,9.005,0.31395,-0.17895001,6.0529504,-0.1282875,-0.0477125,-0.115775
1692440415970,2023-08-19 13:20:15.970,9.037,-0.41805002,0.354,5.66295,-0.0994125,-0.239525,-0.21835
1692440416002,2023-08-19 13:20:16.002,9.069,0.27105,0.77205,5.11905,-0.12705,-0.319,-0.2660625
1692440416033,2023-08-19 13:20:16.033,9.1,0.56505,0.91395,4.61205,-0.1247125,-0.192775,-0.3883
1692440416062,2023-08-19 13:20:16.062,9.129,0.42405003,0.32505003,3.9490502,0.0004125,-0.0369875,-0.906125
1692440416096,2023-08-19 13:20:16.096,9.163,-0.40095,-0.15,5.09805,0.147675,-0.1082125,-1.205875
1692440416128,2023-08-19 13:20:16.128,9.195,-0.58695,-0.69600004,6.2920504,0.1467125,-0.117425,-1.1144375
1692440416155,2023-08-19 13:20:16.155,9.222,-1.6290001,-0.186,6.72795,-0.0325875,0.088,-0.512875
1692440416184,2023-08-19 13:20:16.184,9.251,-2.6239502,1.1719501,7.5870004,-0.1700875,0.275825,-0.0814
1692440416213,2023-08-19 13:20:16.213,9.28,1.25205,-0.40395,6.144,-0.270325,0.494175,0.2979625
1692440416247,2023-08-19 13:20:16.247,9.314,1.4080501,-0.87105006,7.22805,-0.203225,0.8529125,0.523875
1692440416278,2023-08-19 13:20:16.278,9.345,-3.1890001,0.25305,11.611051,-0.2897125,0.2431,0.98408747
1692440416310,2023-08-19 13:20:16.310,9.377,-0.87495005,0.39705002,11.166,-0.39833748,-0.083875,1.2549624
1692440416342,2023-08-19 13:20:16.342,9.409,1.0849501,1.146,7.5150003,-0.271425,0.36574998,1.150875
1692440416375,2023-08-19 13:20:16.375,9.442,1.04205,1.4809501,5.8110003,0.0625625,0.452925,0.6430875
1692440416409,2023-08-19 13:20:16.409,9.476,0.63195,1.3300501,7.3549504,0.23333749,0.1403875,0.356675
1692440416438,2023-08-19 13:20:16.438,9.505,0.16605,0.87105006,10.069051,0.537625,-0.379775,-0.1362625
1692440416470,2023-08-19 13:20:16.470,9.537,-1.18605,0.74895006,11.39805,0.599225,-0.4643375,-0.230175
1692440416501,2023-08-19 13:20:16.501,9.568,-0.99195004,1.0170001,10.198951,0.4598,-0.2976875,-0.0727375
1692440416532,2023-08-19 13:20:16.532,9.599,-0.20700002,1.3060501,9.31995,0.3243625,-0.087175,0.081125
1692440416562,2023-08-19 13:20:16.562,9.629,-0.109050006,1.4569501,9.162001,0.1643125,0.264825,0.1973125
1692440416597,2023-08-19 13:20:16.597,9.664,-0.16905001,1.55295,9.922951,0.209825,0.21367499,-0.11055
1692440416627,2023-08-19 13:20:16.627,9.694,-0.20205002,1.38495,9.8539505,0.2600125,0.1186625,-0.342375
1692440416659,2023-08-19 13:20:16.659,9.726,-0.65895003,1.3249501,9.415951,0.3070375,-0.012375,-0.6507875
1692440416691,2023-08-19 13:20:16.691,9.758,-0.777,1.1550001,9.595051,0.2883375,-0.0292875,-0.6494125
1692440416717,2023-08-19 13:20:16.717,9.784,-0.72900003,1.0500001,10.07205,0.2019875,0.042625,-0.43614998
1692440416750,2023-08-19 13:20:16.750,9.817,-0.37395,1.0170001,10.15095,0.15125,0.1027125,-0.3155625
1692440416781,2023-08-19 13:20:16.781,9.848,0.201,1.21305,9.84405,0.0411125,0.1694,-0.0867625
1692440416811,2023-08-19 13:20:16.811,9.878,0.16095,1.3609501,9.705001,-0.0059125,0.1518,0.0306625
1692440416839,2023-08-19 13:20:16.839,9.906,0.23505001,1.455,9.47595,-0.0257125,0.0028875,0.14739999
1692440416876,2023-08-19 13:20:16.876,9.943,0.43095002,1.47105,8.908051,0.001925,-0.086075,0.1236125
1692440416906,2023-08-19 13:20:16.906,9.973,0.112950005,1.4140501,9.2029505,0.0732875,-0.2052875,0.0144375
1692440416935,2023-08-19 13:20:16.935,10.002,0.453,1.2750001,9.80595,0.1274625,-0.256025,-0.0782375
1692440416968,2023-08-19 13:20:16.968,10.035,0.28500003,1.2250501,9.54705,0.132825,-0.24887499,-0.0895125
1692440416993,2023-08-19 13:20:16.993,10.06,0.26595002,1.21305,9.415951,0.115225,-0.2330625,-0.0666875
1692440417021,2023-08-19 13:20:17.021,10.088,0.31605002,1.1200501,9.38895,0.047849998,-0.202675,0.0495
1692440417048,2023-08-19 13:20:17.048,10.115,0.12195001,1.1890501,9.436951,0.0231,-0.1731125,0.135025
1692440417074,2023-08-19 13:20:17.074,10.141,0.096,1.2220501,9.523951,0.007975,-0.13585,0.221925
1692440417098,2023-08-19 13:20:17.098,10.165,0.003,1.23705,9.507001,-0.0077,-0.0738375,0.2635875
1692440417127,2023-08-19 13:20:17.127,10.194,0.034050003,1.2610501,9.27705,-0.01155,-0.0471625,0.2244
1692440417165,2023-08-19 13:20:17.165,10.232,0.003,1.0530001,9.31995,-0.0119624995,-0.004125,0.1203125
1692440417184,2023-08-19 13:20:17.184,10.251,-0.078,0.92100006,9.391951,-0.0114124995,0.0044,0.0419375
1692440417211,2023-08-19 13:20:17.211,10.278,-0.058050003,0.744,9.14805,-0.016224999,0.00825,-0.0339625
1692440417242,2023-08-19 13:20:17.242,10.309,0.01695,0.69795,8.57295,-0.0605,0.0254375,-0.1043625
1692440417272,2023-08-19 13:20:17.272,10.339,-0.11100001,0.70500004,8.24505,-0.096525,0.036575,-0.1056
1692440417298,2023-08-19 13:20:17.298,10.365,-0.11595,0.61905,8.145,-0.1508375,0.0429,-0.0900625
1692440417324,2023-08-19 13:20:17.324,10.391,-0.26895002,0.64305,7.9270506,-0.1584,0.043175,-0.0815375
1692440417350,2023-08-19 13:20:17.350,10.417,-0.26700002,0.63105005,7.518,-0.157575,0.050325,-0.0532125
1692440417377,2023-08-19 13:20:17.377,10.444,-0.29805002,0.63105005,7.326,-0.1529,0.0658625,-0.012925
1692440417406,2023-08-19 13:20:17.406,10.473,-0.28605002,0.63795,7.3840504,-0.1335125,0.1027125,-0.022
1692440417434,2023-08-19 13:20:17.434,10.501,0.10605001,0.564,7.3290005,-0.10505,0.118525,-0.1012
1692440417463,2023-08-19 13:20:17.463,10.53,0.22800002,0.33705002,7.0920005,-0.0952875,0.1128875,-0.091575
1692440417499,2023-08-19 13:20:17.499,10.566,-0.19500001,0.25305,6.9649506,-0.1007875,0.0504625,0.0086624995
1692440417531,2023-08-19 13:20:17.531,10.598,-0.003,0.32205,6.9259505,-0.120175,0.01045,0.082775
1692440417558,2023-08-19 13:20:17.558,10.625,0.14400001,0.31800002,6.4570503,-0.145475,-0.0077,0.1819125
1692440417585,2023-08-19 13:20:17.585,10.652,0.036000002,0.32205,5.4619503,-0.1764125,0.0088,0.3661625
1692440417610,2023-08-19 13:20:17.610,10.677,-0.36,0.43995002,5.8560004,-0.1727,0.0034375,0.400125
1692440417632,2023-08-19 13:20:17.632,10.699,-0.33600003,0.42105,6.4480505,-0.136675,-0.014712499,0.4972
1692440417664,2023-08-19 13:20:17.664,10.731,-0.12795001,0.61905,6.912,-0.109037496,0.0188375,0.564575
1692440417690,2023-08-19 13:20:17.690,10.757,-0.006,0.86100006,6.9619503,-0.07975,0.0765875,0.6059625
1692440417720,2023-08-19 13:20:17.720,10.787,0.27600002,0.72705,7.3759503,-0.01705,0.1364,0.6303
1692440417783,2023-08-19 13:20:17.783,10.85,0.012,0.77205,10.79895,0.1172875,-0.027224999,0.3323375
1692440417819,2023-08-19 13:20:17.819,10.886,-0.64500004,0.88995004,11.689951,0.10945,-0.12595,0.1370875
1692440417854,2023-08-19 13:20:17.854,10.921,-0.26700002,1.419,10.93095,0.0631125,-0.0661375,0.208725
1692440417888,2023-08-19 13:20:17.888,10.955,-0.72195005,2.0719502,12.898951,0.0026125,0.1368125,0.3532375
1692440417897,2023-08-19 13:20:17.897,10.964,-0.59205,2.154,13.428,0.044,0.1665125,0.243375
1692440417917,2023-08-19 13:20:17.917,10.984,-0.42195,2.25405,13.135951,0.1304875,0.154275,0.020075
1692440417938,2023-08-19 13:20:17.938,11.005,-0.27600002,2.05995,12.835951,0.2275625,0.12979999,-0.2393875
1692440417961,2023-08-19 13:20:17.961,11.028,-0.78900003,2.4120002,13.240951,0.3034625,0.098037496,-0.47245
1692440417985,2023-08-19 13:20:17.985,11.052,-1.713,2.9509501,14.944951,0.3447125,0.059675,-0.6397875
1692440418019,2023-08-19 13:20:18.019,11.086,-1.27005,3.6349502,15.802051,0.373725,0.0479875,-0.773025
1692440418044,2023-08-19 13:20:18.044,11.111,-0.80805004,3.6859503,16.800001,0.398475,0.092675,-0.8053375
1692440418077,2023-08-19 13:20:18.077,11.144,-1.59,3.4099503,18.91395,0.4365625,0.1313125,-0.8493375
1692440418105,2023-08-19 13:20:18.105,11.172,-1.2030001,2.8530002,18.112051,0.4549875,0.1056,-0.82115
1692440418139,2023-08-19 13:20:18.139,11.206,-1.0519501,2.8879502,17.95395,0.2957625,0.079475,-0.596475
1692440418168,2023-08-19 13:20:18.168,11.235,-0.62100005,2.7280502,18.72195,0.198,0.072875,-0.50325
1692440418200,2023-08-19 13:20:18.200,11.267,-0.16395001,1.9240501,16.45605,0.0573375,0.0160875,-0.3565375
1692440418230,2023-08-19 13:20:18.230,11.297,-0.39405003,1.1149501,16.63305,0.0022,-0.022275,-0.2506625
1692440418261,2023-08-19 13:20:18.261,11.328,-1.07805,0.73200005,14.881051,-0.121275,-0.0812625,0.07315
1692440418296,2023-08-19 13:20:18.296,11.363,0.12705001,0.26295,12.991951,-0.28187498,-0.055825,0.395175
1692440418315,2023-08-19 13:20:18.315,11.382,0.08205,0.09,13.55895,-0.35145,-0.0209,0.4591125
1692440418347,2023-08-19 13:20:18.347,11.414,0.17505,-0.21000001,12.55605,-0.400675,-0.0028875,0.4580125
1692440418381,2023-08-19 13:20:18.381,11.448,-0.38205,-0.52395004,10.390051,-0.4701125,-0.0499125,0.4862
1692440418414,2023-08-19 13:20:18.414,11.481,-0.93900007,-0.624,9.327001,-0.498575,-0.07975,0.54614997
1692440418447,2023-08-19 13:20:18.447,11.514,-1.215,-0.70305,8.83695,-0.5295125,-0.0625625,0.566775
1692440418474,2023-08-19 13:20:18.474,11.541,-0.73095006,-0.29700002,7.86495,-0.536525,-0.004125,0.542575
1692440418501,2023-08-19 13:20:18.501,11.568,0.94305,0.19605,6.93795,-0.534875,0.152075,0.529375
1692440418525,2023-08-19 13:20:18.525,11.592,1.863,0.23400001,6.7969503,-0.4994,0.17765,0.4554
1692440418552,2023-08-19 13:20:18.552,11.619,1.8769501,0.061950002,5.9350505,-0.4246,0.11715,0.2916375
1692440418582,2023-08-19 13:20:18.582,11.649,0.54105,-0.117000006,5.3110504,-0.2211,-0.27115,-0.22825
1692440418610,2023-08-19 13:20:18.610,11.677,-0.89595,0.12900001,5.6290503,-0.1489125,-0.49885,-0.47341248
1692440418640,2023-08-19 13:20:18.640,11.707,-1.5190501,0.102000006,4.89195,-0.093775,-0.610775,-0.642125
1692440418674,2023-08-19 13:20:18.674,11.741,-1.2030001,-0.13395001,4.2259502,-0.06435,-0.1276,-0.5401
1692440418709,2023-08-19 13:20:18.709,11.776,-0.61095005,-0.507,4.4440503,-0.050875,0.1802625,-0.4862
1692440418732,2023-08-19 13:20:18.732,11.799,-0.86295,-0.32505003,5.196,-0.0528,0.42515,-0.4016375
1692440418761,2023-08-19 13:20:18.761,11.828,-1.3300501,-0.69600004,6.8500504,-0.14135,0.6260375,-0.0317625
1692440418787,2023-08-19 13:20:18.787,11.854,-2.13105,-0.201,8.535001,-0.2228875,0.618475,0.25245
1692440418814,2023-08-19 13:20:18.814,11.881,-1.1020501,0.064050004,7.69995,-0.3048375,0.59785,0.563475
1692440418841,2023-08-19 13:20:18.841,11.908,1.79295,-0.49800003,6.2059503,-0.3529625,0.605825,0.832975
1692440418879,2023-08-19 13:20:18.879,11.946,-0.88005006,0.14805001,9.19305,-0.2580875,0.48633748,1.1246125
1692440418914,2023-08-19 13:20:18.914,11.981,-2.388,0.98100007,11.194051,-0.2569875,0.2072125,1.1356125
1692440418925,2023-08-19 13:20:18.925,11.992,-0.76695,0.82800007,10.608001,-0.23127499,-0.219725,1.09175
1692440418953,2023-08-19 13:20:18.953,12.02,1.45305,1.2780001,8.49195,-0.1252625,-0.23815,0.9994875
1692440418986,2023-08-19 13:20:18.986,12.053,1.02495,1.9530001,4.8130503,0.23815,0.1607375,0.5119125
1692440419014,2023-08-19 13:20:19.014,12.081,0.78795004,1.1580001,5.064,0.5990875,-0.254925,-0.47685
1692440419043,2023-08-19 13:20:19.043,12.11,-0.087000005,0.61395,9.847051,0.75528747,-0.5303375,-0.881375
1692440419073,2023-08-19 13:20:19.073,12.14,-1.5259501,0.48795003,13.368001,0.7852625,-0.6809,-0.9332125
1692440419101,2023-08-19 13:20:19.101,12.168,-0.47295,0.80805004,11.689951,0.5841,-0.49981248,-0.51645
1692440419132,2023-08-19 13:20:19.132,12.199,-0.039,1.23195,9.061951,0.1040875,0.0859375,0.383075
1692440419162,2023-08-19 13:20:19.162,12.229,0.036000002,1.3249501,8.908051,0.00165,0.22055,0.49555
1692440419188,2023-08-19 13:20:19.188,12.255,0.192,1.026,9.418051,0.0053625,0.20253749,0.37193748
1692440419220,2023-08-19 13:20:19.220,12.287,-0.26700002,0.84705,10.488001,0.1282875,0.00385,-0.0917125
1692440419253,2023-08-19 13:20:19.253,12.32,-0.61395,1.0879501,9.769951,0.1524875,-0.0688875,-0.2497
1692440419284,2023-08-19 13:20:19.284,12.351,-0.27600002,1.1410501,9.592951,0.1104125,-0.074525,-0.36025
1692440419317,2023-08-19 13:20:19.317,12.384,-0.40995002,1.3300501,9.688951,0.095425,0.020075,-0.385275
1692440419346,2023-08-19 13:20:19.346,12.413,-0.16905001,1.26795,9.745951,0.1078,0.0309375,-0.42075
1692440419375,2023-08-19 13:20:19.375,12.442,-0.049050003,1.1580001,9.934951,0.1436875,-0.0034375,-0.5363875
1692440419403,2023-08-19 13:20:19.403,12.47,0.09105001,1.167,10.029,0.153725,-0.0270875,-0.5665
1692440419436,2023-08-19 13:20:19.436,12.503,-0.010950001,0.96900004,9.739051,0.1271875,-0.0842875,-0.457325
1692440419466,2023-08-19 13:20:19.466,12.533,-0.18300001,0.91800004,9.969001,0.0968,-0.111237496,-0.3463625
1692440419494,2023-08-19 13:20:19.494,12.561,-0.11400001,0.86295,10.045051,0.02695,-0.1150875,-0.1065625
1692440419526,2023-08-19 13:20:19.526,12.593,-0.015000001,0.84705,9.588,-0.007975,-0.0875875,0.013612499
1692440419558,2023-08-19 13:20:19.558,12.625,-0.09,0.89895004,9.37005,-0.066,-0.033275,0.1978625
1692440419590,2023-08-19 13:20:19.590,12.657,0.132,1.005,9.504001,-0.0801625,-0.02585,0.2149125
1692440419616,2023-08-19 13:20:19.616,12.683,0.12195001,1.062,9.379951,-0.0639375,-0.0473,0.0209
1692440419656,2023-08-19 13:20:19.656,12.723,0.036000002,1.0380001,9.262951,-0.016775,-0.0941875,-0.22275
1692440419680,2023-08-19 13:20:19.680,12.747,-0.003,1.0020001,8.96595,0.002475,-0.11,-0.27225
1692440419707,2023-08-19 13:20:19.707,12.774,-0.042000003,0.99300003,8.93505,0.0166375,-0.11165,-0.2847625
1692440419736,2023-08-19 13:20:19.736,12.803,0.036000002,0.88500005,8.941951,0.02695,-0.102025,-0.2781625
1692440419763,2023-08-19 13:20:19.763,12.83,0.063,0.81795,8.535001,0.032725,-0.0748,-0.2457125
1692440419793,2023-08-19 13:20:19.793,12.86,0.028950002,0.555,8.50395,0.0248875,-0.0650375,-0.2220625
1692440419820,2023-08-19 13:20:19.820,12.887,-0.17805001,0.44700003,8.134951,-0.0132,-0.0556875,-0.13475
1692440419858,2023-08-19 13:20:19.858,12.925,-0.025050001,0.30105,7.9290004,-0.0807125,-0.0246125,0.0257125
1692440419885,2023-08-19 13:20:19.885,12.952,-0.063,0.31305,7.2709503,-0.1186625,0.001375,0.0933625
1692440419914,2023-08-19 13:20:19.914,12.981,-0.0010500001,0.37695003,6.6439505,-0.1522125,0.022824999,0.1397
1692440419944,2023-08-19 13:20:19.944,13.011,-0.21900001,0.47295,6.129,-0.1901625,0.0380875,0.2006125
1692440419973,2023-08-19 13:20:19.973,13.04,0.120000005,0.423,5.71005,-0.1843875,0.039325,0.1940125
1692440420004,2023-08-19 13:20:20.004,13.071,-0.43905002,0.38895002,6.2509503,-0.123475,0.05335,0.10615
1692440420036,2023-08-19 13:20:20.036,13.103,-0.54195005,0.32505003,6.6850505,-0.0900625,0.0611875,0.0902
1692440420064,2023-08-19 13:20:20.064,13.131,-0.20505,0.303,6.7950006,-0.0666875,0.1043625,0.207625
1692440420096,2023-08-19 13:20:20.096,13.163,-0.49395,0.50895,7.254,-0.089375,0.19525,0.448525
1692440420130,2023-08-19 13:20:20.130,13.197,-0.37395,0.63405,6.78,-0.0966625,0.20405,0.572275
1692440420155,2023-08-19 13:20:20.155,13.222,-0.043950003,0.777,6.5670004,-0.060775,0.1830125,0.608575
1692440420185,2023-08-19 13:20:20.185,13.252,0.010050001,0.94995004,8.02005,-0.0158125,0.1667875,0.494725
1692440420220,2023-08-19 13:20:20.220,13.287,-0.46095002,0.89205,8.3550005,0.038225,0.131175,0.3513125
1692440420252,2023-08-19 13:20:20.252,13.319,-0.702,0.99300003,9.19095,0.1337875,0.03135,0.121
1692440420284,2023-08-19 13:20:20.284,13.351,-0.52500004,0.90195006,11.017051,0.1769625,0.0484,-0.0066
1692440420312,2023-08-19 13:20:20.312,13.379,-0.67095006,0.75795,12.195001,0.176,0.095425,-0.0364375
1692440420343,2023-08-19 13:20:20.343,13.41,0.00795,1.28505,10.807051,0.091575,0.1266375,0.0215875
1692440420372,2023-08-19 13:20:20.372,13.439,0.20895001,1.6200001,11.434051,0.0325875,0.1007875,0.0606375
1692440420403,2023-08-19 13:20:20.403,13.47,0.33105,1.3470001,12.799951,0.029424999,-0.0306625,-0.050325
1692440420432,2023-08-19 13:20:20.432,13.499,0.17295001,1.45905,12.83895,0.0803,-0.1211375,-0.1467125
1692440420462,2023-08-19 13:20:20.462,13.529,-0.08205,1.4500501,12.717001,0.1373625,-0.2431,-0.1871375
1692440420496,2023-08-19 13:20:20.496,13.563,-0.094050005,1.368,12.934051,0.1082125,-0.23045,-0.0900625
1692440420529,2023-08-19 13:20:20.529,13.596,-0.27195,1.96695,14.161951,0.0900625,-0.187,-0.0361625
1692440420556,2023-08-19 13:20:20.556,13.623,-0.68805003,2.8189502,14.93595,0.0726,-0.0983125,-0.0297
1692440420584,2023-08-19 13:20:20.584,13.651,-0.45600003,2.93895,15.121951,0.0947375,-0.0655875,-0.120175
1692440420613,2023-08-19 13:20:20.613,13.68,-0.55905,2.709,16.747952,0.14973749,-0.0391875,-0.274175
1692440420642,2023-08-19 13:20:20.642,13.709,-0.97800004,2.35695,17.88495,0.2762375,-0.0037125,-0.5424375
1692440420673,2023-08-19 13:20:20.673,13.74,-0.76500005,2.0389502,18.847052,0.2877875,0.0166375,-0.5336375
1692440420700,2023-08-19 13:20:20.700,13.767,0.216,1.9380001,18.813002,0.182325,0.086075,-0.329175
1692440420732,2023-08-19 13:20:20.732,13.799,0.63900006,1.524,17.58105,0.0947375,0.10505,-0.2102375
1692440420761,2023-08-19 13:20:20.761,13.828,0.42405003,1.4070001,16.977001,-0.067375,0.0086624995,-0.028324999
1692440420791,2023-08-19 13:20:20.791,13.858,-0.018000001,0.873,15.721051,-0.124025,-0.077825,0.0264
1692440420823,2023-08-19 13:20:20.823,13.89,-0.69795,0.81600004,14.068951,-0.19415,-0.16775,0.097075
1692440420852,2023-08-19 13:20:20.852,13.919,0.28500003,0.53505003,13.312951,-0.2182125,-0.14973749,0.128425
1692440420885,2023-08-19 13:20:20.885,13.952,0.40005,0.25995,13.38405,-0.2481875,-0.039875,0.194975
1692440420919,2023-08-19 13:20:20.919,13.986,-0.003,-0.00705,12.315001,-0.264825,-0.0154,0.2184875
1692440420950,2023-08-19 13:20:20.950,14.017,-0.19995001,0.022950001,10.17,-0.2825625,-0.0408375,0.2435125
1692440420983,2023-08-19 13:20:20.983,14.05,-0.49395,-0.031050002,8.205,-0.3147375,-0.0411125,0.32395
1692440421010,2023-08-19 13:20:21.010,14.077,-0.36705002,0.076050006,6.70905,-0.3155625,-0.013475,0.3337125
1692440421046,2023-08-19 13:20:21.046,14.113,0.94605005,-0.177,5.3629503,-0.278025,0.055,0.2809125
1692440421076,2023-08-19 13:20:21.076,14.143,1.1880001,-0.38505003,5.7460504,-0.2220625,0.0460625,0.1992375
1692440421110,2023-08-19 13:20:21.110,14.177,0.0,-0.165,6.9580503,-0.2135375,-0.0562375,0.121825
1692440421133,2023-08-19 13:20:21.133,14.2,-0.39795002,0.045,6.8910003,-0.224675,-0.2011625,0.033275
1692440421165,2023-08-19 13:20:21.165,14.232,-0.07305,-0.21795002,5.847,-0.2545125,-0.298925,-0.128425
1692440421193,2023-08-19 13:20:21.193,14.26,-0.27405003,-0.42105,3.9580503,-0.2476375,-0.207075,-0.2127125
1692440421225,2023-08-19 13:20:21.225,14.292,-0.73800004,-0.34005,3.2590501,-0.230175,-0.0042625,-0.2699125
1692440421258,2023-08-19 13:20:21.258,14.325,-0.70005006,-0.84000003,3.01005,-0.27101249,0.1364,-0.0011
1692440421292,2023-08-19 13:20:21.292,14.359,-1.5880501,-0.112050004,5.7730503,-0.342925,0.3232625,0.5000875
1692440421320,2023-08-19 13:20:21.320,14.387,-2.28195,1.21305,7.2949505,-0.39325,0.4437125,0.806575
1692440421350,2023-08-19 13:20:21.350,14.417,1.30005,-0.86895007,6.9889503,-0.404525,0.57475,1.0344125
1692440421384,2023-08-19 13:20:21.384,14.451,-0.28395,-0.033,8.394,-0.15619999,0.6384125,0.859925
1692440421415,2023-08-19 13:20:21.415,14.482,-2.2099502,0.85605,9.47595,-0.033825,0.4296875,0.64762497
1692440421447,2023-08-19 13:20:21.447,14.514,-0.93705004,1.1530501,8.14995,0.0427625,0.0028875,0.43945
1692440421478,2023-08-19 13:20:21.478,14.545,1.07295,1.3110001,6.5340004,0.328075,0.2135375,0.091575
1692440421503,2023-08-19 13:20:21.503,14.57,1.0540501,1.3110001,5.682,0.498025,0.2385625,-0.19085
1692440421529,2023-08-19 13:20:21.529,14.596,0.83595,1.28205,7.08405,0.629475,0.066825,-0.4978875
1692440421562,2023-08-19 13:20:21.562,14.629,-0.29805002,1.00695,9.98805,0.75625,-0.4772625,-0.8641875
1692440421593,2023-08-19 13:20:21.593,14.66,-0.72405005,0.73395,10.90005,0.73755,-0.62095,-0.8239
1692440421623,2023-08-19 13:20:21.623,14.69,-0.40800002,0.66,9.946951,0.51315,-0.4543,-0.32395
1692440421655,2023-08-19 13:20:21.655,14.722,-0.14505,0.89895004,9.59805,0.351175,-0.23375,0.001925
1692440421685,2023-08-19 13:20:21.685,14.752,0.24000001,0.813,9.48795,0.106975,0.0389125,0.32395
1692440421718,2023-08-19 13:20:21.718,14.785,0.23700002,0.81600004,9.516001,0.0364375,0.0114124995,0.1442375
1692440421750,2023-08-19 13:20:21.750,14.817,-0.09195001,0.99705005,9.65505,0.0264,-0.048675,0.0229625
1692440421778,2023-08-19 13:20:21.778,14.845,0.060000002,0.85395,9.792001,0.0133375,-0.1442375,-0.1302125
1692440421811,2023-08-19 13:20:21.811,14.878,-0.11805001,0.72900003,10.43805,0.016775,-0.1441,-0.181775
1692440421841,2023-08-19 13:20:21.841,14.908,0.11805001,0.717,10.42605,0.0072875,-0.0944625,-0.2294875
1692440421871,2023-08-19 13:20:21.871,14.938,0.54795,0.71505004,9.47805,-0.0158125,-0.078375,-0.257675
1692440421902,2023-08-19 13:20:21.902,14.969,0.70905006,0.48000002,9.088051,-0.0572,-0.09515,-0.3760625
1692440421934,2023-08-19 13:20:21.934,15.001,0.29205,0.27495003,9.15705,-0.064625,-0.13365,-0.38279998
1692440421962,2023-08-19 13:20:21.962,15.029,0.027,0.17595,8.56095,-0.0889625,-0.21615,-0.19373749
1692440421996,2023-08-19 13:20:21.996,15.063,0.043050002,0.27195,8.248051,-0.1516625,-0.17985,-0.0270875
1692440422028,2023-08-19 13:20:22.028,15.095,0.010050001,0.25500003,8.47305,-0.176,-0.119075,-0.0026125
1692440422059,2023-08-19 13:20:22.059,15.126,-0.102000006,0.30600002,8.085,-0.18493749,-0.0133375,-0.0213125
1692440422094,2023-08-19 13:20:22.094,15.161,0.024,0.22200002,8.467951,-0.1769625,0.01815,-0.0606375
1692440422123,2023-08-19 13:20:22.123,15.19,-0.066,0.13605,8.32695,-0.1530375,0.056925,-0.07315
1692440422147,2023-08-19 13:20:22.147,15.214,-0.027,0.12105001,8.358001,-0.1425875,0.06545,-0.0314875
1692440422174,2023-08-19 13:20:22.174,15.241,-0.13305001,0.291,8.545051,-0.13653749,0.069025,0.0675125
1692440422198,2023-08-19 13:20:22.198,15.265,-0.054,0.27195,8.08695,-0.134475,0.069025,0.1054625
1692440422241,2023-08-19 13:20:22.241,15.308,0.16800001,0.23595001,7.5319505,-0.104225,0.06325,0.093225
1692440422269,2023-08-19 13:20:22.269,15.336,-0.45795003,0.30795002,8.272051,-0.0801625,0.0523875,0.0438625
1692440422299,2023-08-19 13:20:22.299,15.366,-0.25995,0.22200002,7.4479504,-0.039875,0.0364375,-0.068475
1692440422324,2023-08-19 13:20:22.324,15.391,-0.030000001,0.30795002,6.7450504,-0.0257125,0.054725,-0.1161875
1692440422353,2023-08-19 13:20:22.353,15.42,-0.08205,0.22395001,6.6060004,-0.0149875,0.0851125,-0.155375
1692440422389,2023-08-19 13:20:22.389,15.456,-0.70995003,0.33195,7.4890504,0.001925,0.099825,-0.1507
1692440422414,2023-08-19 13:20:22.414,15.481,-0.66195005,0.36105,7.4290504,0.01155,0.088825,-0.086075
1692440422446,2023-08-19 13:20:22.446,15.513,-0.25005,0.27705002,7.2570004,0.027224999,0.14739999,0.0603625
1692440422482,2023-08-19 13:20:22.482,15.549,0.08895,0.018000001,7.728,0.0286,0.2011625,0.0944625
1692440422517,2023-08-19 13:20:22.517,15.584,-0.54195005,0.009000001,8.997001,-0.0213125,0.137775,0.2638625
1692440422539,2023-08-19 13:20:22.539,15.606,-0.15705001,0.0019500001,9.18795,-0.06215,0.0812625,0.38445
1692440422575,2023-08-19 13:20:22.575,15.642,0.11805001,0.20295002,10.32495,-0.1313125,0.0253,0.538725
1692440422603,2023-08-19 13:20:22.603,15.67,-0.36705002,0.40605003,10.99995,-0.142725,-0.0116875,0.536525
1692440422629,2023-08-19 13:20:22.629,15.696,-0.32700002,0.294,10.93095,-0.1337875,-0.064625,0.489225
1692440422659,2023-08-19 13:20:22.659,15.726,0.015000001,0.564,11.149051,-0.0614625,-0.0867625,0.346225
1692440422694,2023-08-19 13:20:22.694,15.761,0.20595,0.78405005,12.52305,-0.01595,-0.047849998,0.280225
1692440422735,2023-08-19 13:20:22.735,15.802,0.22800002,1.1890501,12.834001,0.064625,-0.0419375,0.110825
1692440422763,2023-08-19 13:20:22.763,15.83,-0.16605,1.3230001,13.726951,0.141075,-0.1276,-0.141075
1692440422787,2023-08-19 13:20:22.787,15.854,-0.20895001,1.2730501,14.881051,0.1815,-0.1546875,-0.269775
1692440422810,2023-08-19 13:20:22.810,15.877,-0.09900001,1.5499501,14.490001,0.2189,-0.1584,-0.380325
1692440422852,2023-08-19 13:20:22.852,15.919,-0.22605,2.25405,15.358951,0.2580875,-0.0721875,-0.447975
1692440422880,2023-08-19 13:20:22.880,15.947,-0.81495005,2.4190502,16.554,0.274725,-0.0493625,-0.435325
1692440422914,2023-08-19 13:20:22.914,15.981,-0.078,1.6870501,16.812,0.304975,-0.03135,-0.45113748
1692440422944,2023-08-19 13:20:22.944,16.011,-0.079950005,1.1839501,17.451,0.345675,0.0268125,-0.5256625
1692440422977,2023-08-19 13:20:22.977,16.044,-0.58005005,0.61695004,19.591051,0.230175,0.048125,-0.4412375
1692440423006,2023-08-19 13:20:23.006,16.073,0.43605003,0.20295002,18.198,0.110825,0.046475,-0.26785
1692440423038,2023-08-19 13:20:23.038,16.105,1.0320001,0.069000006,17.643002,-0.1313125,0.0441375,0.08965
1692440423071,2023-08-19 13:20:23.071,16.138,0.65400004,0.16905001,16.465052,-0.2184875,0.0066,0.1654125
1692440423106,2023-08-19 13:20:23.106,16.173,0.78495,0.028050002,13.399051,-0.3113,-0.13805,0.14245
1692440423145,2023-08-19 13:20:23.145,16.212,0.61305004,-0.66,12.34605,-0.308825,-0.2151875,0.000825
1692440423187,2023-08-19 13:20:23.187,16.254,-0.50595003,-1.0860001,12.508051,-0.2825625,-0.22055,0.005225
1692440423228,2023-08-19 13:20:23.228,16.295,-0.73095006,-1.1530501,10.41195,-0.3201,-0.143275,0.363
1692440423272,2023-08-19 13:20:23.272,16.339,-0.57795,-0.62205005,8.583,-0.38995,0.0496375,0.63525
1692440423316,2023-08-19 13:20:23.316,16.383,-0.75000006,-0.14595,7.9410005,-0.3804625,0.2195875,0.6127
1692440423369,2023-08-19 13:20:23.369,16.436,0.90795004,-0.21300001,5.5600505,-0.26221249,0.2627625,0.3271125
1692440423413,2023-08-19 13:20:23.413,16.48,0.59205,0.20805001,3.93705,-0.091575,0.055,-0.297275
1692440423454,2023-08-19 13:20:23.454,16.521,-0.12795001,0.40605003,4.236,-0.027224999,-0.2308625,-0.64295
1692440423501,2023-08-19 13:20:23.501,16.568,0.18,-0.53595,4.31505,0.090475,-0.2525875,-0.82568747
1692440423542,2023-08-19 13:20:23.542,16.609,-0.82395005,-0.768,4.55205,0.0988625,-0.153725,-0.661925
1692440423584,2023-08-19 13:20:23.584,16.651,-1.1719501,-0.49005002,5.406,-0.110275,-0.0253,-0.116325
1692440423625,2023-08-19 13:20:23.625,16.692,-0.054,0.22005,6.87405,-0.28105,0.3056625,0.4637875
1692440423669,2023-08-19 13:20:23.669,16.736,0.546,-0.98100007,7.8,-0.17875,0.7128,0.744975
1692440423710,2023-08-19 13:20:23.710,16.777,-4.0680003,0.59505004,11.644051,-0.1703625,0.45045,0.9477875
1692440423751,2023-08-19 13:20:23.751,16.818,0.81705004,0.141,9.093,-0.194425,0.171875,1.0228626
1692440423788,2023-08-19 13:20:23.788,16.855,1.26405,0.72495,6.6319504,0.1601875,0.682275,0.7145875
1692440423823,2023-08-19 13:20:23.823,16.89,1.0890001,0.92100006,6.22305,0.315975,0.58685,0.366575
1692440423861,2023-08-19 13:20:23.861,16.928,-0.58995,0.83205,11.082001,0.5435375,-0.4800125,-0.49981248
1692440423896,2023-08-19 13:20:23.896,16.963,-0.65505004,0.50895,11.637,0.595925,-0.5401,-0.6859875
1692440423932,2023-08-19 13:20:23.932,16.999,0.23505001,0.37500003,9.708,0.5423,-0.36905,-0.6832375
1692440423973,2023-08-19 13:20:23.973,17.04,0.16800001,0.44700003,9.424951,0.3185875,-0.050049998,-0.477125
1692440424019,2023-08-19 13:20:24.019,17.086,0.055050004,0.30795002,9.8560505,0.1027125,-0.1079375,-0.1854875
1692440424060,2023-08-19 13:20:24.060,17.127,0.20895001,0.25500003,9.48495,0.0757625,-0.128975,-0.2143625
1692440424114,2023-08-19 13:20:24.114,17.181,0.13695,0.24300002,9.294001,-0.0011,-0.1203125,-0.21395
1692440424159,2023-08-19 13:20:24.159,17.226,0.3,0.26295,9.588,-0.031625,-0.1260875,-0.11605
1692440424202,2023-08-19 13:20:24.202,17.269,0.58695,0.30795002,9.05895,-0.0433125,-0.10725,-0.0451
1692440424244,2023-08-19 13:20:24.244,17.311,0.264,0.51195,8.700001,-0.044,-0.118525,0.0867625
1692440424287,2023-08-19 13:20:24.287,17.354,0.22995001,0.33900002,8.229,-0.0218625,-0.1480875,0.0708125
1692440424332,2023-08-19 13:20:24.332,17.399,0.10605001,0.19995001,7.5460505,0.0097624995,-0.130075,-0.0963875
1692440424373,2023-08-19 13:20:24.373,17.44,0.40005,-0.23895001,6.144,0.0070125,-0.08085,-0.1387375
1692440424419,2023-08-19 13:20:24.419,17.486,-0.19695,-0.45000002,7.8600006,-0.084975,-0.0422125,0.0716375
1692440424461,2023-08-19 13:20:24.461,17.528,-0.14895001,-0.522,7.3570504,-0.218625,-0.015262499,0.34553748
1692440424502,2023-08-19 13:20:24.502,17.569,0.10605001,-0.25095,7.31895,-0.2987875,0.11165,0.565675
1692440424542,2023-08-19 13:20:24.542,17.609,0.00795,0.17400001,6.97695,-0.30305,0.149325,0.679525
1692440424580,2023-08-19 13:20:24.580,17.647,0.01905,0.51600003,7.0339503,-0.1882375,0.0864875,0.5707625
1692440424619,2023-08-19 13:20:24.619,17.686,0.21300001,0.39405003,7.2180004,0.0100375,0.034649998,0.27513748
1692440424662,2023-08-19 13:20:24.662,17.729,0.015000001,0.423,8.22105,0.185625,-0.002475,-0.1018875
1692440424710,2023-08-19 13:20:24.710,17.777,0.18495001,0.44895002,8.832001,0.2451625,-0.028875,-0.34045
1692440424757,2023-08-19 13:20:24.757,17.824,-0.36495003,0.49995002,9.909,0.2143625,0.0059125,-0.2479125
1692440424804,2023-08-19 13:20:24.804,17.871,-0.279,0.59505004,10.443001,0.1799875,0.0636625,-0.0738375
1692440424852,2023-08-19 13:20:24.852,17.919,0.57705003,0.65805006,10.254001,0.141075,0.1276,-0.0086624995
1692440424896,2023-08-19 13:20:24.896,17.963,0.393,0.67905,11.527051,0.1029875,0.0045375,-0.1373625
1692440424932,2023-08-19 13:20:24.932,17.999,0.90000004,0.058950003,11.875951,0.085525,-0.1238875,-0.216975
1692440424972,2023-08-19 13:20:24.972,18.039,0.81705004,-0.32505003,12.408001,0.060775,-0.16335,-0.18865
1692440425010,2023-08-19 13:20:25.010,18.077,0.50100005,-0.32295,13.600051,-0.064075,-0.2322375,0.0077
1692440425050,2023-08-19 13:20:25.050,18.117,1.5490501,-0.16995001,13.035001,-0.212025,-0.2338875,0.2102375
1692440425091,2023-08-19 13:20:25.091,18.158,0.43800002,0.16905001,13.45905,-0.2635875,-0.1940125,0.1799875
1692440425125,2023-08-19 13:20:25.125,18.192,0.051000003,-0.15,15.265951,-0.2160125,-0.2503875,0.0023375
1692440425159,2023-08-19 13:20:25.159,18.226,0.11505,-0.60795003,18.25605,-0.1362625,-0.1588125,-0.0620125
1692440425196,2023-08-19 13:20:25.196,18.263,0.060000002,-0.70095,17.061,-0.12265,0.06655,-0.023375
1692440425236,2023-08-19 13:20:25.236,18.303,0.58395004,-1.4569501,18.279001,-0.1648625,0.1865875,0.0460625
1692440425282,2023-08-19 13:20:25.282,18.349,0.29505002,-1.2079501,18.03795,-0.22247499,0.15853749,0.1351625
1692440425325,2023-08-19 13:20:25.325,18.392,1.5870001,-1.0390501,15.358951,-0.275825,0.1144,0.0468875
1692440425369,2023-08-19 13:20:25.369,18.436,0.70395005,-1.644,13.341001,-0.25685,0.0501875,-0.2721125
1692440425405,2023-08-19 13:20:25.405,18.472,0.81705004,-1.848,14.59605,-0.225775,-0.1101375,-0.275825
1692440425451,2023-08-19 13:20:25.451,18.518,-0.53205,-2.046,11.467051,-0.2718375,-0.19525,0.119625
1692440425494,2023-08-19 13:20:25.494,18.561,0.08895,-2.12505,10.258051,-0.3749625,0.001925,0.481525
1692440425532,2023-08-19 13:20:25.532,18.599,0.38805002,-1.7830501,11.356951,-0.3823875,0.0741125,0.5251125
1692440425574,2023-08-19 13:20:25.574,18.641,-0.303,-0.61005,9.13605,-0.3689125,0.115775,0.458425
1692440425617,2023-08-19 13:20:25.617,18.684,-0.36705002,-0.22695,5.8830004,-0.284075,0.1181125,0.1678875
1692440425659,2023-08-19 13:20:25.659,18.726,-0.08205,-0.20295002,5.30595,-0.0026125,0.20735,-0.2828375
1692440425701,2023-08-19 13:20:25.701,18.768,-0.10395,-0.31605002,4.9999504,0.101475,0.2080375,-0.3832125
1692440425743,2023-08-19 13:20:25.743,18.81,0.18,-0.53295004,5.3899503,0.1208625,0.1376375,-0.5149375
1692440425787,2023-08-19 13:20:25.787,18.854,-0.54,-1.4449501,5.445,0.09185,0.103125,-0.4412375
1692440425830,2023-08-19 13:20:25.830,18.897,-1.5810001,-1.572,4.81005,-0.0611875,-0.0127875,0.0385
1692440425873,2023-08-19 13:20:25.873,18.94,-0.264,-1.05795,6.9289503,-0.31845,0.051425,0.77082497
1692440425910,2023-08-19 13:20:25.910,18.977,4.335,-1.845,4.93695,-0.4895,0.3691875,1.5727249
1692440425942,2023-08-19 13:20:25.942,19.009,-1.5190501,-0.99495006,5.05695,-0.4739625,0.140525,1.612875
1692440425988,2023-08-19 13:20:25.988,19.055,-6.6480002,0.34395,11.38605,-0.54175,-0.5346,1.30405
1692440426025,2023-08-19 13:20:26.025,19.092,1.6849501,-0.57195,10.024051,-0.2066625,0.056375,1.4669875
1692440426069,2023-08-19 13:20:26.069,19.136,0.9580501,0.78195006,6.74205,0.4904625,0.878075,0.9125875
1692440426105,2023-08-19 13:20:26.105,19.172,0.16995001,1.6390501,6.6780005,0.7486875,0.1364,-0.517
1692440426141,2023-08-19 13:20:26.141,19.208,-0.693,1.1869501,10.82295,0.9504,-0.43945,-1.176175
1692440426177,2023-08-19 13:20:26.177,19.244,-0.38895002,0.49995002,11.886001,1.1626999,-0.36519998,-1.349425
1692440426215,2023-08-19 13:20:26.215,19.282,-0.39795002,0.37995002,9.942,1.1408376,-0.231,-1.323575
1692440426251,2023-08-19 13:20:26.251,19.318,-0.69000006,0.693,8.580001,0.8173,-0.054175,-1.0437624
1692440426264,2023-08-19 13:20:26.264,19.331,-0.61095005,0.72900003,8.829,0.6268625,-0.0221375,-0.88715
1692440426288,2023-08-19 13:20:26.288,19.355,-0.41295,0.72195005,9.436951,0.484,0.0067375,-0.75515
1692440426308,2023-08-19 13:20:26.308,19.375,-0.22605,0.73395,9.871051,0.39545,0.0389125,-0.6439125
1692440426331,2023-08-19 13:20:26.331,19.398,-0.351,0.80100006,9.495001,0.3422375,0.0611875,-0.5498625
1692440426358,2023-08-19 13:20:26.358,19.425,-0.68100005,0.77205,9.222,0.274725,0.048125,-0.425975
1692440426391,2023-08-19 13:20:26.391,19.458,-0.58695,0.61005,9.46605,0.2514875,0.0367125,-0.3685
1692440426422,2023-08-19 13:20:26.422,19.489,-0.16605,0.43995002,9.559051,0.2068,0.054175,-0.21175
1692440426455,2023-08-19 13:20:26.455,19.522,0.19905001,0.49995002,9.80805,0.1197625,0.0540375,-0.058025
1692440426481,2023-08-19 13:20:26.481,19.548,0.075,0.69795,9.435,0.0661375,0.009625,0.0210375
1692440426518,2023-08-19 13:20:26.518,19.585,-0.11100001,0.83505005,8.51295,0.0077,-0.1241625,0.029975
1692440426544,2023-08-19 13:20:26.544,19.611,0.079050004,0.64995,8.24295,0.0215875,-0.164725,-0.1029875
1692440426568,2023-08-19 13:20:26.568,19.635,-0.14505,0.591,8.773951,0.051425,-0.1753125,-0.2387
1692440426596,2023-08-19 13:20:26.596,19.663,-0.14895001,0.40395,9.14295,0.0771375,-0.1683,-0.284625
1692440426624,2023-08-19 13:20:26.624,19.691,-0.039,0.231,8.31495,0.0716375,-0.13805,-0.175175
1692440426657,2023-08-19 13:20:26.657,19.724,-0.564,0.46605003,8.563951,-0.005225,-0.088,-0.08415
1692440426680,2023-08-19 13:20:26.680,19.747,-0.68805003,0.61200005,8.50905,-0.005225,-0.088,-0.08415
1692440426709,2023-08-19 13:20:26.709,19.776,-0.135,0.38505003,7.3170004,-0.0726,-0.021175,0.0180125
1692440426742,2023-08-19 13:20:26.742,19.809,0.055050004,0.282,7.8499503,-0.0484,0.06325,-0.033275
1692440426771,2023-08-19 13:20:26.771,19.838,-0.16395001,0.28905,8.7619505,-0.028875,0.065175,-0.103125
1692440426805,2023-08-19 13:20:26.805,19.872,-0.16395001,0.28905,8.7619505,-0.028875,0.065175,-0.103125
1692440426831,2023-08-19 13:20:26.831,19.898,0.35895002,-0.10695001,7.24695,-0.0697125,-0.0554125,-0.034925
1692440426866,2023-08-19 13:20:26.866,19.933,-0.25995,0.15,6.9910502,-0.1340625,-0.11385,0.251075
1692440426890,2023-08-19 13:20:26.890,19.957,-0.41295,0.25800002,6.87405,-0.1634875,-0.1464375,0.3388
1692440426918,2023-08-19 13:20:26.918,19.985,-0.034950003,0.32505003,6.6510005,-0.17105,-0.12485,0.3843125
1692440426949,2023-08-19 13:20:26.949,20.016,-0.32700002,0.51600003,6.5389504,-0.1401125,-0.062975,0.36987498
1692440426974,2023-08-19 13:20:26.974,20.041,-0.82905006,0.79200006,6.9889503,-0.093775,-0.0083875,0.32999998
1692440427006,2023-08-19 13:20:27.006,20.073,-0.08505,0.78195006,7.5079503,0.0207625,0.0463375,0.19855
1692440427034,2023-08-19 13:20:27.034,20.101,0.57195,0.423,7.5540004,0.08965,0.089925,0.1122
1692440427064,2023-08-19 13:20:27.064,20.131,-0.40995002,0.423,7.79505,0.1934625,0.1373625,-0.0094875
1692440427092,2023-08-19 13:20:27.092,20.159,-1.368,0.61395,8.07495,0.1868625,0.092675,0.0169125
1692440427125,2023-08-19 13:20:27.125,20.192,0.087000005,0.42795002,9.49995,0.0977625,0.0919875,0.1442375
1692440427155,2023-08-19 13:20:27.155,20.222,-0.72900003,0.92100006,9.8869505,0.0275,0.2437875,0.2512125
1692440427181,2023-08-19 13:20:27.181,20.248,-0.46305,1.0170001,9.354,0.0089375,0.230175,0.26785
1692440427208,2023-08-19 13:20:27.208,20.275,-0.216,1.4790001,10.500001,0.015125,0.1749,0.2338875
1692440427236,2023-08-19 13:20:27.236,20.303,-1.014,1.5310501,11.644051,0.1266375,0.0881375,0.0429
1692440427264,2023-08-19 13:20:27.264,20.331,-0.93195003,1.503,11.781,0.207625,0.053625,-0.080575
1692440427292,2023-08-19 13:20:27.292,20.359,-0.25995,1.7590501,13.317,0.3092375,0.0554125,-0.28875
1692440427319,2023-08-19 13:20:27.319,20.386,0.14205001,1.7200501,13.282051,0.31405,0.069575,-0.361625
1692440427350,2023-08-19 13:20:27.350,20.417,0.34695002,1.96695,12.811951,0.2985125,0.0460625,-0.3837625
1692440427381,2023-08-19 13:20:27.381,20.448,-0.34605002,2.52195,15.036,0.263175,-0.113575,-0.271975
1692440427412,2023-08-19 13:20:27.412,20.479,-0.83895004,2.66805,16.60395,0.2618,-0.19195,-0.2432375
1692440427441,2023-08-19 13:20:27.441,20.508,-0.43905002,2.14395,16.62795,0.2794,-0.2308625,-0.3751
1692440427468,2023-08-19 13:20:27.468,20.535,-0.49905002,1.99995,17.29305,0.27513748,-0.1912625,-0.45581248
1692440427498,2023-08-19 13:20:27.498,20.565,-0.147,2.1660001,17.47995,0.187,-0.0963875,-0.458975
1692440427527,2023-08-19 13:20:27.527,20.594,-0.13695,2.33295,16.171051,0.115637496,-0.073425,-0.3785375
1692440427556,2023-08-19 13:20:27.556,20.623,-0.693,2.091,14.916,0.02255,-0.0801625,-0.2255
1692440427586,2023-08-19 13:20:27.586,20.653,-0.85800004,1.536,16.017,0.020624999,-0.093225,-0.214225
1692440427615,2023-08-19 13:20:27.615,20.682,0.31905,0.78405005,16.66395,0.0215875,-0.04455,-0.129525
1692440427644,2023-08-19 13:20:27.644,20.711,0.57495004,0.84900004,16.63305,-0.022,0.00935,-0.0067375
1692440427675,2023-08-19 13:20:27.675,20.742,-0.65505004,0.92595005,15.085951,-0.0977625,0.0400125,0.1293875
1692440427702,2023-08-19 13:20:27.702,20.769,-0.549,0.61695004,13.82505,-0.2523125,0.006325,0.2899875
1692440427731,2023-08-19 13:20:27.731,20.798,-0.753,0.19800001,14.33205,-0.2858625,-0.0045375,0.28655
1692440427767,2023-08-19 13:20:27.767,20.834,-0.69795,0.08805001,13.272,-0.2904,0.0451,0.2767875
1692440427798,2023-08-19 13:20:27.798,20.865,-0.35295,0.078,12.678,-0.3234,0.112475,0.42075
1692440427829,2023-08-19 13:20:27.829,20.896,-0.05595,0.13095,11.754001,-0.339075,0.1265,0.46695
1692440427861,2023-08-19 13:20:27.861,20.928,-0.72195005,0.32700002,9.106951,-0.330825,0.0859375,0.4481125
1692440427886,2023-08-19 13:20:27.886,20.953,-1.0489501,0.52395004,7.46295,-0.3097875,0.0499125,0.4147
1692440427918,2023-08-19 13:20:27.918,20.985,-0.55905,0.49995002,5.5810504,-0.2272875,0.053625,0.3251875
1692440427947,2023-08-19 13:20:27.947,21.014,0.60795003,0.061950002,6.0810003,-0.165825,0.10175,0.263175
1692440427980,2023-08-19 13:20:27.980,21.047,0.93600005,-0.201,6.4450502,-0.1029875,0.1398375,0.1694
1692440428011,2023-08-19 13:20:28.011,21.078,0.38295,-0.16995001,5.8279505,-0.0468875,0.03025,-0.091575
1692440428039,2023-08-19 13:20:28.039,21.106,-0.65895003,0.483,5.3179502,-0.111925,-0.2299,-0.3397625
1692440428067,2023-08-19 13:20:28.067,21.134,-0.62295,0.44895002,5.04495,-0.1346125,-0.2800875,-0.45374998
1692440428104,2023-08-19 13:20:28.104,21.171,0.37395,-0.22005,4.09005,-0.054725,-0.1329625,-0.68145
1692440428136,2023-08-19 13:20:28.136,21.203,-0.16605,-0.46905002,4.6639504,0.0070125,-0.0363,-0.766975
1692440428160,2023-08-19 13:20:28.160,21.227,-0.60195005,-0.342,5.19105,-0.0103124995,-0.0259875,-0.667425
1692440428187,2023-08-19 13:20:28.187,21.254,-1.34595,-0.15495001,4.95195,-0.0941875,-0.043449998,-0.443025
1692440428221,2023-08-19 13:20:28.221,21.288,-0.52995,0.030000001,4.77495,-0.2657875,0.1192125,0.22825
1692440428248,2023-08-19 13:20:28.248,21.315,0.61605,-0.66,4.74795,-0.2915,0.264,0.539275
1692440428277,2023-08-19 13:20:28.277,21.344,0.072000004,-0.624,5.8180504,-0.2627625,0.3650625,0.927575
1692440428309,2023-08-19 13:20:28.309,21.376,-1.00605,-0.093,7.5220504,-0.2946625,0.238425,1.0877625
1692440428336,2023-08-19 13:20:28.336,21.403,0.75705004,-0.16695,7.1850004,-0.39627498,-0.052525,1.3451625
1692440428367,2023-08-19 13:20:28.367,21.434,0.96000004,0.042000003,6.06195,-0.366025,-0.08635,1.3443375
1692440428397,2023-08-19 13:20:28.397,21.464,-0.79605,1.2940501,6.34005,-0.1896125,-0.22825,1.007875
1692440428423,2023-08-19 13:20:28.423,21.49,2.45895,-0.615,6.25395,-0.0746625,-0.3425125,0.7244875
1692440428457,2023-08-19 13:20:28.457,21.524,1.5319501,-0.62895006,7.1779504,0.2486,-0.344575,0.161975
1692440428482,2023-08-19 13:20:28.482,21.549,-2.9190001,0.20505,9.363001,0.2567125,-0.45319998,0.0803
1692440428512,2023-08-19 13:20:28.512,21.579,-1.6530001,0.42105,9.84405,0.1013375,-0.65174997,0.1771
1692440428539,2023-08-19 13:20:28.539,21.606,1.18005,0.60705,9.4800005,-0.073699996,-0.3031875,0.4835875
1692440428568,2023-08-19 13:20:28.568,21.635,1.5870001,1.08105,9.916051,0.022824999,0.1461625,0.47355
1692440428594,2023-08-19 13:20:28.594,21.661,0.28500003,1.19595,8.205,0.1342,0.334125,0.21505
1692440428619,2023-08-19 13:20:28.619,21.686,0.30195,1.2220501,6.35895,0.3172125,-0.0495,-0.751575
1692440428648,2023-08-19 13:20:28.648,21.715,1.113,0.92805004,5.8039503,0.3975125,-0.228525,-1.0863875
1692440428677,2023-08-19 13:20:28.677,21.744,0.26595002,0.40905002,6.912,0.4972,-0.2968625,-1.2188
1692440428703,2023-08-19 13:20:28.703,21.77,-0.87195003,0.32505003,7.7070003,0.4857875,-0.314325,-1.0808874
1692440428732,2023-08-19 13:20:28.732,21.799,-1.11405,0.41295,9.48495,0.4236375,-0.309375,-0.836825
1692440428761,2023-08-19 13:20:28.761,21.828,-0.549,0.31005,10.39995,0.21367499,0.004675,-0.1945625
1692440428788,2023-08-19 13:20:28.788,21.855,-0.52995,0.279,8.928,0.109175,0.2580875,0.0814
1692440428817,2023-08-19 13:20:28.817,21.884,-0.669,0.55005,8.274,-0.0559625,0.498575,0.2960375
1692440428844,2023-08-19 13:20:28.844,21.911,-0.3,0.55200005,9.295951,-0.098175,0.46805,0.237325
1692440428877,2023-08-19 13:20:28.877,21.944,-0.23595001,0.46095002,10.9810505,-0.089375,0.346225,0.0793375
1692440428903,2023-08-19 13:20:28.903,21.97,-0.52305,0.53805,10.653001,-0.0704,0.2701875,0.0540375
1692440428929,2023-08-19 13:20:28.929,21.996,-0.726,0.59805006,10.054951,-0.061325,0.186175,0.045649998
1692440428957,2023-08-19 13:20:28.957,22.024,-0.17295001,0.74595004,10.849951,-0.058575,0.123475,0.0352
1692440428983,2023-08-19 13:20:28.983,22.05,-0.30705002,0.78900003,11.494051,-0.0309375,0.1137125,-0.0011
1692440429014,2023-08-19 13:20:29.014,22.081,-0.41295,0.708,11.379001,-0.005225,0.106425,-0.027224999
1692440429042,2023-08-19 13:20:29.042,22.109,0.28500003,0.28395,11.106001,0.0303875,0.0345125,-0.0424875
1692440429072,2023-08-19 13:20:29.072,22.139,0.55095005,0.13305001,11.326051,0.0308,0.0114124995,-0.0061875
1692440429100,2023-08-19 13:20:29.100,22.167,-0.30495003,0.588,11.89095,-0.0207625,-0.0697125,0.0933625
1692440429126,2023-08-19 13:20:29.126,22.193,-0.49395,0.744,11.472,-0.0622875,-0.1348875,0.124575
1692440429151,2023-08-19 13:20:29.151,22.218,-0.01305,0.79200006,11.08695,-0.087037496,-0.1695375,0.1331
1692440429180,2023-08-19 13:20:29.180,22.247,0.0,0.80805004,11.07495,-0.0499125,-0.0922625,0.0741125
1692440429209,2023-08-19 13:20:29.209,22.276,-0.25995,0.70095,10.81095,-0.0100375,-0.047849998,0.0067375
1692440429236,2023-08-19 13:20:29.236,22.303,0.23700002,0.64095,11.224951,0.05115,-0.0485375,-0.1343375
1692440429264,2023-08-19 13:20:29.264,22.331,0.40500003,0.78405005,12.04905,0.0616,-0.061875,-0.1612875
1692440429293,2023-08-19 13:20:29.293,22.36,0.14400001,0.93000007,11.995951,0.0559625,-0.0774125,-0.1419
1692440429322,2023-08-19 13:20:29.322,22.389,0.11805001,1.041,11.30895,0.0378125,-0.125125,-0.0482625
1692440429349,2023-08-19 13:20:29.349,22.416,-0.19995001,1.3920001,13.078051,0.047849998,-0.1357125,-0.0231
1692440429379,2023-08-19 13:20:29.379,22.446,-0.80100006,1.7179501,14.119051,0.105875,-0.105325,-0.1071125
1692440429411,2023-08-19 13:20:29.411,22.478,-0.81495005,2.3040001,13.83705,0.1431375,-0.0639375,-0.214225
1692440429435,2023-08-19 13:20:29.435,22.502,-0.91800004,2.805,14.896951,0.18287499,0.0,-0.30745
1692440429463,2023-08-19 13:20:29.463,22.53,-0.81000006,2.52195,15.031051,0.28861248,0.1343375,-0.41799998
1692440429489,2023-08-19 13:20:29.489,22.556,0.18,2.2729502,13.18305,0.3565375,0.16445,-0.510675
1692440429515,2023-08-19 13:20:29.515,22.582,0.513,1.5649501,13.863001,0.4288625,0.1288375,-0.69629997
1692440429543,2023-08-19 13:20:29.543,22.61,-0.46500003,0.52095,16.768951,0.4052125,0.05995,-0.7264125
1692440429571,2023-08-19 13:20:29.571,22.638,-1.22895,-0.0019500001,17.42295,0.3315125,-0.022275,-0.6785625
1692440429601,2023-08-19 13:20:29.601,22.668,-0.42705002,-0.15495001,16.575,0.0034375,-0.0430375,-0.1848
1692440429629,2023-08-19 13:20:29.629,22.696,0.45000002,-0.18900001,15.721051,-0.199375,0.0312125,0.1692625
1692440429657,2023-08-19 13:20:29.657,22.724,0.63495004,0.28395,15.393001,-0.4538875,0.0875875,0.4852375
1692440429688,2023-08-19 13:20:29.688,22.755,1.06305,0.531,14.550001,-0.487025,0.0251625,0.40865
1692440429715,2023-08-19 13:20:29.715,22.782,1.1230501,0.37995002,13.107,-0.468875,-0.066825,0.2486
1692440429741,2023-08-19 13:20:29.741,22.808,0.41400003,0.10005,12.030001,-0.3394875,-0.243375,-0.1271875
1692440429770,2023-08-19 13:20:29.770,22.837,-0.20700002,-0.036000002,11.544001,-0.2723875,-0.3012625,-0.2618
1692440429799,2023-08-19 13:20:29.799,22.866,-0.84405005,-0.45705003,11.082001,-0.201025,-0.28105,-0.2715625
1692440429834,2023-08-19 13:20:29.834,22.901,-0.84405005,-0.45705003,11.082001,-0.201025,-0.28105,-0.2715625
1692440429846,2023-08-19 13:20:29.846,22.913,-0.38595003,-0.84705,9.85095,-0.2176625,-0.0647625,0.021175
1692440429881,2023-08-19 13:20:29.881,22.948,-0.231,0.066,8.229,-0.3018125,0.1302125,0.358875
1692440429910,2023-08-19 13:20:29.910,22.977,0.42405003,0.57900006,6.8929505,-0.3348125,0.166375,0.4401375
1692440429942,2023-08-19 13:20:29.942,23.009,1.1850001,0.47595003,5.4420004,-0.2690875,0.1419,0.2706
1692440429970,2023-08-19 13:20:29.970,23.037,0.88605005,0.351,4.74795,-0.16555,0.0818125,0.05115
1692440430000,2023-08-19 13:20:30.000,23.067,0.0,0.24795002,4.8889503,0.0452375,-0.14795,-0.353925
1692440430032,2023-08-19 13:20:30.032,23.099,-0.15195,-0.13905,4.566,0.1029875,-0.2517625,-0.496925
1692440430059,2023-08-19 13:20:30.059,23.126,0.120000005,-0.57705003,3.8700001,0.1131625,-0.2369125,-0.60885
1692440430091,2023-08-19 13:20:30.091,23.158,0.13395001,-0.55305004,4.12095,0.0716375,-0.14795,-0.4717625
1692440430118,2023-08-19 13:20:30.118,23.185,-0.051000003,-0.76095,4.78905,-0.003025,-0.0704,-0.1959375
1692440430151,2023-08-19 13:20:30.151,23.218,-1.33395,-0.46605003,4.5760503,-0.2124375,-0.0232375,0.4851
1692440430177,2023-08-19 13:20:30.177,23.244,-1.3579501,-0.18405001,4.99695,-0.38747498,0.0878625,1.090925
1692440430206,2023-08-19 13:20:30.206,23.273,-0.666,-0.072000004,5.9430003,-0.41195,0.27115,1.3319625
1692440430238,2023-08-19 13:20:30.238,23.305,0.74205005,-0.273,6.1459503,-0.375925,0.4954125,1.4898125
1692440430267,2023-08-19 13:20:30.267,23.334,0.40995002,0.21000001,5.73705,-0.2151875,0.56374997,1.441825
1692440430295,2023-08-19 13:20:30.295,23.362,-1.5520501,0.65295005,8.85105,-0.05555,0.015675,1.0544875
1692440430319,2023-08-19 13:20:30.319,23.386,-2.3130002,1.2940501,9.825001,0.0515625,-0.15455,0.8789
1692440430350,2023-08-19 13:20:30.350,23.417,-0.62805,2.01195,9.094951,0.1898875,-0.1007875,0.770275
1692440430378,2023-08-19 13:20:30.378,23.445,1.8100501,2.2780502,7.8289504,0.566225,0.386375,0.5303375
1692440430408,2023-08-19 13:20:30.408,23.475,1.7719501,2.42895,8.64,0.7882875,0.4145625,0.117425
1692440430433,2023-08-19 13:20:30.433,23.5,0.44295,2.436,8.578051,0.9948125,0.139975,-0.5236
1692440430464,2023-08-19 13:20:30.464,23.531,-0.03195,1.9290001,9.21195,1.18635,-0.7302625,-1.5214375
1692440430494,2023-08-19 13:20:30.494,23.561,0.15405001,1.8540001,10.974001,1.049125,-0.83105,-1.403875
1692440430521,2023-08-19 13:20:30.521,23.588,0.08895,2.19405,11.190001,1.049125,-0.83105,-1.403875
1692440430553,2023-08-19 13:20:30.553,23.62,0.321,2.367,9.259951,0.710325,-0.4214375,-0.870925
1692440430580,2023-08-19 13:20:30.580,23.647,0.30900002,2.2759502,9.47295,0.44165,-0.1973125,-0.5572875
1692440430610,2023-08-19 13:20:30.610,23.677,-0.36,1.8690001,10.40205,0.3898125,-0.187825,-0.6045875
1692440430640,2023-08-19 13:20:30.640,23.707,-0.07005,1.761,10.62705,0.30827498,-0.2024,-0.7436
1692440430668,2023-08-19 13:20:30.668,23.735,-0.15705001,1.7320501,10.06005,0.2283875,-0.1395625,-0.6587625
1692440430696,2023-08-19 13:20:30.696,23.763,-0.36195,1.6290001,9.0379505,0.0397375,0.033,-0.3730375
1692440430726,2023-08-19 13:20:30.726,23.793,0.26595002,1.7920501,9.366,-0.0240625,0.083325,-0.2811875
1692440430754,2023-08-19 13:20:30.754,23.821,0.666,1.81605,9.769951,-0.0561,0.1115125,-0.2299
1692440430781,2023-08-19 13:20:30.781,23.848,0.52500004,1.677,10.43295,-0.0506,0.058849998,-0.281325
1692440430814,2023-08-19 13:20:30.814,23.881,0.18705001,1.5310501,9.792001,-0.0416625,-0.0350625,-0.352
1692440430842,2023-08-19 13:20:30.842,23.909,0.67095006,1.5139501,9.550051,-0.071225,-0.1901625,-0.39655
1692440430869,2023-08-19 13:20:30.869,23.936,0.36195,1.33305,9.828,-0.09735,-0.2088625,-0.383075
1692440430899,2023-08-19 13:20:30.899,23.966,-0.37695003,1.24395,9.79395,-0.1293875,-0.1948375,-0.2954875
1692440430929,2023-08-19 13:20:30.929,23.996,-0.010950001,1.09095,9.700951,-0.143275,-0.161425,-0.1750375
1692440430955,2023-08-19 13:20:30.955,24.022,0.043050002,0.91605,9.265051,-0.1777875,-0.0290125,0.0556875
1692440430986,2023-08-19 13:20:30.986,24.053,-0.252,0.83205,9.045,-0.19745,0.026675,0.091437496
1692440431010,2023-08-19 13:20:31.010,24.077,-0.03705,0.78900003,8.809951,-0.2189,0.060775,0.1109625
1692440431043,2023-08-19 13:20:31.043,24.11,0.312,0.777,8.34795,-0.2512125,0.126225,0.2066625
1692440431071,2023-08-19 13:20:31.071,24.138,0.28995,0.75105006,7.5100503,-0.2556125,0.143825,0.2300375
1692440431099,2023-08-19 13:20:31.099,24.166,0.08400001,0.67695004,7.1509504,-0.236775,0.0650375,0.109175
1692440431130,2023-08-19 13:20:31.130,24.197,-0.25005,0.62895006,6.6220503,-0.2156,0.0011,-0.0050875
1692440431157,2023-08-19 13:20:31.157,24.224,-0.094050005,0.63405,6.3739505,-0.174625,-0.0378125,-0.1582625
1692440431186,2023-08-19 13:20:31.186,24.253,-0.216,0.61695004,6.0550504,-0.15895,-0.003025,-0.1637625
1692440431217,2023-08-19 13:20:31.217,24.284,-0.56805,0.528,4.662,-0.143275,0.0402875,-0.1612875
1692440431246,2023-08-19 13:20:31.246,24.313,-0.79800004,0.49500003,5.517,-0.106837496,0.1035375,-0.2154625
1692440431274,2023-08-19 13:20:31.274,24.341,-0.15705001,0.20805001,7.0009503,-0.06875,0.21505,-0.2583625
1692440431305,2023-08-19 13:20:31.305,24.372,-0.05595,0.054,7.39095,-0.0672375,0.27719998,-0.2338875
1692440431333,2023-08-19 13:20:31.333,24.4,-0.03705,0.102000006,7.45305,-0.1005125,0.29645,-0.141625
1692440431361,2023-08-19 13:20:31.361,24.428,-0.37905002,-0.08595,6.6460505,-0.25575,0.18535,0.2242625
1692440431391,2023-08-19 13:20:31.391,24.458,-0.48000002,0.162,6.81195,-0.32793748,0.113437496,0.419375
1692440431419,2023-08-19 13:20:31.419,24.486,0.051000003,0.26505002,7.9750504,-0.3903625,0.0782375,0.7992875
1692440431449,2023-08-19 13:20:31.449,24.516,0.087000005,0.47100002,9.339001,-0.3812875,0.10945,0.9695125
1692440431477,2023-08-19 13:20:31.477,24.544,-0.53205,0.57900006,10.087951,-0.3064875,0.0752125,1.062875
1692440431508,2023-08-19 13:20:31.508,24.575,-0.03195,0.55695003,10.375951,-0.2476375,0.0125124995,0.962225
1692440431538,2023-08-19 13:20:31.538,24.605,-0.24495001,1.0639501,11.079,-0.118525,0.01045,0.73425
1692440431568,2023-08-19 13:20:31.568,24.635,-0.84105,1.5000001,10.390051,-0.0650375,0.0369875,0.6688
1692440431594,2023-08-19 13:20:31.594,24.661,-0.48900002,1.3920001,10.143001,-0.0009625,0.0430375,0.55935
1692440431624,2023-08-19 13:20:31.624,24.691,-0.22095,1.1149501,12.27105,0.19085,0.06875,0.14685
1692440431655,2023-08-19 13:20:31.655,24.722,-0.15900001,1.692,13.2619505,0.2905375,0.0840125,-0.0474375
1692440431684,2023-08-19 13:20:31.684,24.751,0.63195,1.9050001,13.368001,0.2728,0.0504625,-0.0353375
1692440431713,2023-08-19 13:20:31.713,24.78,0.795,2.53395,14.578951,0.249425,-0.00495,-0.0539
1692440431741,2023-08-19 13:20:31.741,24.808,-0.025050001,2.6560502,16.09395,0.2836625,-0.1901625,-0.329725
1692440431766,2023-08-19 13:20:31.766,24.833,0.0049500004,2.70195,15.0379505,0.328625,-0.286275,-0.514525
1692440431795,2023-08-19 13:20:31.795,24.862,-0.19005,2.57205,14.023951,0.3614875,-0.3331625,-0.6485875
1692440431824,2023-08-19 13:20:31.824,24.891,-1.06095,2.4100502,15.625051,0.3584625,-0.2707375,-0.72325
1692440431856,2023-08-19 13:20:31.856,24.923,-1.0350001,2.2369502,16.081951,0.2971375,-0.1164625,-0.6241125
1692440431879,2023-08-19 13:20:31.879,24.946,-0.39795002,2.23005,14.799001,0.242825,-0.0070125,-0.5064125
1692440431912,2023-08-19 13:20:31.912,24.979,-0.09705,1.491,15.28005,0.180675,0.093775,-0.38747498
1692440431941,2023-08-19 13:20:31.941,25.008,-0.54195005,0.73395,17.590052,0.0790625,0.120037496,-0.3157
1692440431971,2023-08-19 13:20:31.971,25.038,0.38805002,0.33405003,18.01095,0.015125,0.06875,-0.278025
1692440432001,2023-08-19 13:20:32.001,25.068,1.3050001,-0.036000002,16.554,-0.219175,0.013062499,-0.005775
1692440432033,2023-08-19 13:20:32.033,25.1,0.60405004,0.006,15.225,-0.3441625,-0.02475,0.108899996
1692440432061,2023-08-19 13:20:32.061,25.128,0.18195,0.109050006,13.755001,-0.4838625,-0.188925,0.1816375
1692440432088,2023-08-19 13:20:32.088,25.155,1.0009501,-0.54495,13.078051,-0.4940375,-0.242275,0.154825
1692440432115,2023-08-19 13:20:32.115,25.182,1.0890001,-0.78000003,14.115001,-0.478225,-0.2462625,0.1034
1692440432140,2023-08-19 13:20:32.140,25.207,-0.17805001,-0.72705,14.377951,-0.4525125,-0.2187625,0.1342
1692440432176,2023-08-19 13:20:32.176,25.243,-0.52995,-0.71295005,12.796051,-0.4602125,-0.219175,0.233475
1692440432203,2023-08-19 13:20:32.203,25.27,-0.09195001,-0.73695004,11.022,-0.462,-0.114125,0.35694999
1692440432237,2023-08-19 13:20:32.237,25.304,-0.44895002,-0.39705002,10.321051,-0.42075,0.068475,0.3287625
1692440432263,2023-08-19 13:20:32.263,25.33,-0.26700002,-0.39705002,9.849001,-0.390225,0.1087625,0.3342625
1692440432291,2023-08-19 13:20:32.291,25.358,0.072000004,-0.37095,8.23305,-0.351175,0.1232,0.3620375
1692440432319,2023-08-19 13:20:32.319,25.386,0.67095006,0.23595001,6.354,-0.2580875,0.12485,0.377025
1692440432355,2023-08-19 13:20:32.355,25.422,1.05795,0.231,4.248,-0.1670625,0.046475,0.2011625
1692440432382,2023-08-19 13:20:32.382,25.449,0.762,0.21705002,3.8050501,-0.1670625,0.046475,0.2011625
1692440432410,2023-08-19 13:20:32.410,25.477,-0.18495001,0.14805001,3.9750001,-0.040975,-0.1310375,-0.15853749
1692440432438,2023-08-19 13:20:32.438,25.505,-0.22395001,0.45600003,3.7189503,0.0562375,-0.240625,-0.439725
1692440432469,2023-08-19 13:20:32.469,25.536,0.079050004,0.37695003,3.79605,0.0864875,-0.2017125,-0.51713747
1692440432499,2023-08-19 13:20:32.499,25.566,-0.22095,-0.079050004,4.9090505,0.1428625,-0.0345125,-0.6040375
1692440432528,2023-08-19 13:20:32.528,25.595,-1.026,-0.39705002,7.08405,0.161975,0.002475,-0.6433625
1692440432558,2023-08-19 13:20:32.558,25.625,-1.72905,-0.75600004,6.7900505,0.1065625,0.1148125,-0.56787497
1692440432587,2023-08-19 13:20:32.587,25.654,-1.69605,-0.072000004,5.67705,0.012925,0.2919125,-0.3634125
1692440432616,2023-08-19 13:20:32.616,25.683,-0.97005004,0.65805006,5.9760003,-0.207625,0.730125,0.2784375
1692440432650,2023-08-19 13:20:32.650,25.717,1.4080501,-1.02705,5.18895,-0.2358125,0.86075,0.5297875
1692440432677,2023-08-19 13:20:32.677,25.744,-0.051000003,-0.9480001,6.14895,-0.16293749,0.8680375,0.6128375
1692440432706,2023-08-19 13:20:32.706,25.773,-2.93595,0.40095,9.79605,-0.06875,0.480425,0.73865
1692440432736,2023-08-19 13:20:32.736,25.803,-1.2720001,0.46605003,9.8869505,-0.336325,0.14739999,1.3261875
1692440432764,2023-08-19 13:20:32.764,25.831,0.97905004,0.22395001,9.033,-0.305525,0.2058375,1.3528625
1692440432794,2023-08-19 13:20:32.794,25.861,0.61095005,1.04805,7.7140503,-0.1370875,0.282425,1.1174625
1692440432822,2023-08-19 13:20:32.822,25.889,0.19395001,1.4119501,7.4869504,0.0400125,0.212025,0.76615
1692440432851,2023-08-19 13:20:32.851,25.918,0.19395001,1.4119501,7.4869504,0.0400125,0.212025,0.76615
1692440432878,2023-08-19 13:20:32.878,25.945,0.06705,0.74595004,10.8810005,0.49885,-0.5797,-0.367675
1692440432905,2023-08-19 13:20:32.905,25.972,-0.50100005,0.77205,13.258051,0.5449125,-0.61105,-0.4668125
1692440432935,2023-08-19 13:20:32.935,26.002,0.70395005,0.64095,11.47395,0.4082375,-0.469425,-0.2451625
1692440432963,2023-08-19 13:20:32.963,26.03,1.3600501,0.588,9.883051,0.2946625,-0.34045,-0.0658625
1692440432994,2023-08-19 13:20:32.994,26.061,0.81405,0.95205003,9.378,0.1995125,-0.27225,0.0042625
1692440433026,2023-08-19 13:20:33.026,26.093,0.75000006,0.93495005,9.318001,0.1065625,-0.394075,-0.2563
1692440433049,2023-08-19 13:20:33.049,26.116,0.61305004,0.72495,10.512,0.1049125,-0.4613125,-0.3961375
1692440433082,2023-08-19 13:20:33.082,26.149,0.21105,0.80595005,10.593,0.134475,-0.4252875,-0.3818375
1692440433109,2023-08-19 13:20:33.109,26.176,0.13905,0.86595005,10.041,0.132275,-0.3568125,-0.2858625
1692440433139,2023-08-19 13:20:33.139,26.206,0.68700004,0.67695004,9.43995,0.0903375,-0.1764125,-0.137225
1692440433168,2023-08-19 13:20:33.168,26.235,0.63000005,0.64995,9.67695,0.0683375,-0.1010625,-0.1571625
1692440433197,2023-08-19 13:20:33.197,26.264,0.12195001,0.76500005,10.617001,0.0213125,-0.073699996,-0.3746875
1692440433226,2023-08-19 13:20:33.226,26.293,0.31905,0.72,10.950001,-0.0017875,-0.088,-0.451825
1692440433254,2023-08-19 13:20:33.254,26.321,0.58005005,0.80100006,10.122001,-0.0176,-0.078375,-0.4522375
1692440433285,2023-08-19 13:20:33.285,26.352,0.402,0.72705,9.82995,-0.0292875,-0.0160875,-0.3320625
1692440433314,2023-08-19 13:20:33.314,26.381,0.14895001,0.60195005,10.14795,-0.0279125,-0.013612499,-0.2734875
1692440433343,2023-08-19 13:20:33.343,26.41,0.20895001,0.46395,10.345051,-0.018975,-0.0411125,-0.2189
1692440433376,2023-08-19 13:20:33.376,26.443,0.15795001,0.49695003,9.9210005,-0.0435875,0.00495,-0.181225
1692440433402,2023-08-19 13:20:33.402,26.469,0.273,0.504,9.768001,-0.0683375,0.0397375,-0.133375
1692440433432,2023-08-19 13:20:33.432,26.499,0.33795002,0.56700003,9.79605,-0.0875875,0.062425,-0.08855
1692440433461,2023-08-19 13:20:33.461,26.528,0.16800001,0.67005,10.000051,-0.0935,0.0694375,-0.07315
1692440433490,2023-08-19 13:20:33.490,26.557,0.24900001,0.74100006,9.6,-0.0719125,0.05115,-0.119075
1692440433519,2023-08-19 13:20:33.519,26.586,0.47700003,0.86100006,9.081,-0.0528,0.04235,-0.142725
1692440433545,2023-08-19 13:20:33.545,26.612,0.18,0.83895004,8.68305,-0.0067375,0.0375375,-0.1720125
1692440433576,2023-08-19 13:20:33.576,26.643,0.26805001,0.70305,9.27705,0.021724999,0.0297,-0.1876875
1692440433601,2023-08-19 13:20:33.601,26.668,0.36900002,0.76005006,9.47595,0.0735625,0.00825,-0.1975875
1692440433632,2023-08-19 13:20:33.632,26.699,0.23505001,0.64305,9.387,0.08305,0.0009625,-0.168025
1692440433658,2023-08-19 13:20:33.658,26.725,0.18495001,0.57600003,9.588,0.0702625,-0.0138875,-0.060775
1692440433686,2023-08-19 13:20:33.686,26.753,0.35205,0.47595003,9.294001,0.0529375,-0.01595,-0.020624999
1692440433713,2023-08-19 13:20:33.713,26.78,0.27105,0.54300004,9.20505,0.02695,-0.0114124995,-0.0034375
1692440433740,2023-08-19 13:20:33.740,26.807,0.11805001,0.55200005,8.877001,-0.033,-0.000825,0.0020625
1692440433767,2023-08-19 13:20:33.767,26.834,0.18900001,0.507,8.3890505,-0.0493625,0.0017875,0.0116875
1692440433794,2023-08-19 13:20:33.794,26.861,0.177,0.43695003,8.08695,-0.052525,0.0092124995,0.0328625
1692440433825,2023-08-19 13:20:33.825,26.892,0.28800002,0.282,8.08695,-0.0413875,0.0325875,0.0606375
1692440433858,2023-08-19 13:20:33.858,26.925,0.08400001,0.19995001,8.21895,-0.0416625,0.034649998,0.029975
1692440433892,2023-08-19 13:20:33.892,26.959,-0.11805001,0.078,7.518,-0.0704,0.0196625,-0.0611875
1692440433911,2023-08-19 13:20:33.911,26.978,-0.28605002,0.13605,7.3020005,-0.09405,0.020624999,-0.07425
1692440433946,2023-08-19 13:20:33.946,27.013,-0.25695002,0.24795002,6.6610503,-0.1331,0.070125,-0.060775
1692440433975,2023-08-19 13:20:33.975,27.042,0.058050003,0.22200002,6.6559505,-0.1395625,0.1167375,-0.0589875
1692440434003,2023-08-19 13:20:34.003,27.07,-0.20700002,0.12900001,6.543,-0.12045,0.188925,-0.0859375
1692440434030,2023-08-19 13:20:34.030,27.097,-0.45795003,0.17595,6.0930004,-0.103675,0.1821875,-0.09295
1692440434057,2023-08-19 13:20:34.057,27.124,-0.33405003,0.14505,6.0979505,-0.082775,0.145475,-0.0279125
1692440434087,2023-08-19 13:20:34.087,27.154,-0.26700002,0.162,6.6250505,-0.0779625,0.1573,0.02585
1692440434117,2023-08-19 13:20:34.117,27.184,-0.67395,0.21000001,6.9030004,-0.0675125,0.198275,0.087725
1692440434157,2023-08-19 13:20:34.157,27.224,-0.70500004,0.08505,6.6319504,-0.062975,0.206525,0.1106875
1692440434186,2023-08-19 13:20:34.186,27.253,-0.049050003,0.126,7.8030005,-0.0636625,0.256025,0.22715
1692440434214,2023-08-19 13:20:34.214,27.281,0.57495004,0.052050002,7.97205,-0.0699875,0.2897125,0.3048375
1692440434244,2023-08-19 13:20:34.244,27.311,-0.564,0.27705002,7.3639503,-0.0862125,0.2088625,0.406725
1692440434270,2023-08-19 13:20:34.270,27.337,-1.143,0.72900003,8.3550005,-0.08855,0.09295,0.419925
1692440434300,2023-08-19 13:20:34.300,27.367,0.18195,0.45600003,10.953,-0.0369875,0.014025,0.3906375
1692440434330,2023-08-19 13:20:34.330,27.397,0.52005005,0.27,13.2310505,0.0196625,0.083325,0.35915
1692440434359,2023-08-19 13:20:34.359,27.426,0.072000004,0.86805004,11.48595,0.0826375,0.068475,0.3213375
1692440434388,2023-08-19 13:20:34.388,27.455,0.41400003,1.23705,11.27595,0.0694375,-0.0540375,0.3276625
1692440434417,2023-08-19 13:20:34.417,27.484,0.45795003,1.0500001,13.071001,0.1021625,-0.245025,0.2118875
1692440434447,2023-08-19 13:20:34.447,27.514,0.043050002,0.84195006,13.641001,0.1590875,-0.285725,0.0759
1692440434475,2023-08-19 13:20:34.475,27.542,-0.372,0.73695004,14.743951,0.198275,-0.3045625,-0.0279125
1692440434506,2023-08-19 13:20:34.506,27.573,-0.030000001,0.75795,15.225,0.15675,-0.23485,0.091299996
1692440434535,2023-08-19 13:20:34.535,27.602,-0.31500003,1.69605,14.775001,0.10285,-0.147675,0.281325
1692440434565,2023-08-19 13:20:34.565,27.632,0.27600002,2.0650501,14.775001,0.0435875,0.00165,0.508475
1692440434593,2023-08-19 13:20:34.593,27.66,-0.61905,2.8140001,13.55895,0.0763125,0.0323125,0.4257
1692440434619,2023-08-19 13:20:34.619,27.686,-1.72905,3.3930001,14.248951,0.2369125,0.0367125,0.0045375
1692440434649,2023-08-19 13:20:34.649,27.716,-1.2409501,3.0940502,16.081951,0.336325,0.048675,-0.2250875
1692440434685,2023-08-19 13:20:34.685,27.752,-1.0690501,2.6179502,17.166,0.521125,0.1544125,-0.5823125
1692440434713,2023-08-19 13:20:34.713,27.78,-1.2390001,1.86405,15.994051,0.510125,0.2101,-0.65615
1692440434741,2023-08-19 13:20:34.741,27.808,-0.13995,0.507,17.901001,0.4197875,0.1969,-0.5696625
1692440434773,2023-08-19 13:20:34.773,27.84,-0.372,0.25305,19.854,0.124437496,0.1511125,-0.16499999
1692440434797,2023-08-19 13:20:34.797,27.864,0.642,0.279,18.514051,-0.0732875,0.1175625,0.142725
1692440434827,2023-08-19 13:20:34.827,27.894,0.69000006,0.624,15.7900505,-0.26015,0.0708125,0.4211625
1692440434858,2023-08-19 13:20:34.858,27.925,0.37905002,0.63795,13.779,-0.43614998,-0.08085,0.553575
1692440434885,2023-08-19 13:20:34.885,27.952,-0.33900002,0.60195005,11.7949505,-0.42075,-0.1662375,0.40865
1692440434917,2023-08-19 13:20:34.917,27.984,-0.441,0.36105,10.597951,-0.3048375,-0.2244,0.061875
1692440434947,2023-08-19 13:20:34.947,28.014,-0.35295,0.066,11.701951,-0.2487375,-0.1794375,-0.0053625
1692440434975,2023-08-19 13:20:34.975,28.042,-0.61395,-0.43500003,11.24205,-0.210375,-0.1093125,0.019524999
1692440435003,2023-08-19 13:20:35.003,28.07,-0.60405004,-0.52605003,9.86295,-0.20735,0.01705,0.2949375
1692440435031,2023-08-19 13:20:35.031,28.098,-0.71895003,-0.10305001,8.602051,-0.2415875,0.0609125,0.4426125
1692440435059,2023-08-19 13:20:35.059,28.126,-0.61395,0.30795002,7.6759505,-0.3144625,0.1225125,0.4323
1692440435091,2023-08-19 13:20:35.091,28.158,0.34005,0.53505003,6.4669504,-0.3122625,0.145475,0.30855
1692440435119,2023-08-19 13:20:35.119,28.186,1.1179501,0.19800001,4.93305,-0.1942875,0.1331,-0.033
1692440435146,2023-08-19 13:20:35.146,28.213,-0.058050003,0.35805002,4.7389503,-0.109175,0.0510125,-0.2805
1692440435177,2023-08-19 13:20:35.177,28.244,-1.15995,0.67905,5.181,-0.038775,-0.0763125,-0.5583875
1692440435205,2023-08-19 13:20:35.205,28.272,-1.1359501,0.79905003,5.3629503,0.0438625,-0.2264625,-0.9851875
1692440435233,2023-08-19 13:20:35.233,28.3,0.35895002,0.13800001,4.5019503,0.0900625,-0.1403875,-1.101375
1692440435265,2023-08-19 13:20:35.265,28.332,-0.26700002,-0.27495003,4.0950003,0.21175,0.1651375,-1.23915
1692440435292,2023-08-19 13:20:35.292,28.359,-2.15295,-0.17205001,3.5680501,0.158125,0.148775,-0.9098375
1692440435319,2023-08-19 13:20:35.319,28.386,-2.9520001,0.48795003,3.6780002,0.158125,0.148775,-0.9098375
1692440435350,2023-08-19 13:20:35.350,28.417,-0.81000006,0.97095007,4.43505,-0.0609125,0.3256,-0.126225
1692440435375,2023-08-19 13:20:35.375,28.442,1.3909501,-0.36795002,4.98495,-0.0044,0.8875625,0.1208625
1692440435404,2023-08-19 13:20:35.404,28.471,-0.49905002,-0.80595005,7.6920004,0.1241625,0.901175,0.0122375
1692440435432,2023-08-19 13:20:35.432,28.499,-3.52905,0.11400001,10.201051,0.137225,0.615725,0.0666875
1692440435461,2023-08-19 13:20:35.461,28.528,-2.301,0.45405003,9.361051,-0.306625,0.0493625,0.928675
1692440435490,2023-08-19 13:20:35.490,28.557,-0.70005006,0.53295004,7.68795,-0.47753748,0.2105125,1.32385
1692440435519,2023-08-19 13:20:35.519,28.586,0.47700003,0.48000002,6.9360003,-0.373175,0.640475,1.3030875
1692440435550,2023-08-19 13:20:35.550,28.617,0.33495003,0.61905,8.134951,-0.2039125,0.5058625,0.900075
1692440435580,2023-08-19 13:20:35.580,28.647,-0.13995,0.55695003,9.933001,0.08415,-0.168575,0.048125
1692440435612,2023-08-19 13:20:35.612,28.679,-0.71205,0.124050006,10.597951,0.1527625,-0.43945,-0.1783375
1692440435640,2023-08-19 13:20:35.640,28.707,-1.2790501,0.057000004,10.5379505,0.137775,-0.6175125,-0.2630375
1692440435670,2023-08-19 13:20:35.670,28.737,-0.87495005,-0.021000002,10.6050005,0.069299996,-0.546975,-0.1744875
1692440435707,2023-08-19 13:20:35.707,28.774,-0.27405003,-0.094950005,10.79205,-0.0801625,-0.245575,0.03025
1692440435731,2023-08-19 13:20:35.731,28.798,-0.441,0.105000004,10.941001,-0.1331,-0.1375,0.0935
1692440435758,2023-08-19 13:20:35.758,28.825,-0.13305001,-0.00705,10.689,-0.18493749,-0.1302125,0.1337875
1692440435787,2023-08-19 13:20:35.787,28.854,-0.07005,0.064050004,10.39995,-0.1728375,-0.1670625,0.0671
1692440435816,2023-08-19 13:20:35.816,28.883,-0.37005,0.20805001,9.873,-0.142175,-0.19607499,-0.044
1692440435846,2023-08-19 13:20:35.846,28.913,-0.37395,0.102000006,9.6,-0.0741125,-0.21133749,-0.2553375
1692440435874,2023-08-19 13:20:35.874,28.941,-0.46305,0.010950001,9.567,-0.044,-0.19305,-0.3312375
1692440435902,2023-08-19 13:20:35.902,28.969,-0.47295,0.033,9.46605,-0.0202125,-0.161975,-0.37895
1692440435931,2023-08-19 13:20:35.931,28.998,-0.27195,0.061950002,9.394051,-0.0133375,-0.0919875,-0.333575
1692440435961,2023-08-19 13:20:35.961,29.028,-0.27195,0.061950002,9.394051,-0.0133375,-0.0919875,-0.333575
1692440435989,2023-08-19 13:20:35.989,29.056,0.027,0.27495003,9.67905,-0.0259875,-0.0515625,-0.21175
1692440436016,2023-08-19 13:20:36.016,29.083,0.156,0.19605,9.66495,0.005775,-0.1018875,-0.190025
1692440436043,2023-08-19 13:20:36.043,29.11,0.264,0.13800001,9.379951,0.0264,-0.1359875,-0.16445
1692440436078,2023-08-19 13:20:36.078,29.145,-0.123,-0.0019500001,9.415951,0.0451,-0.193875,-0.109725
1692440436105,2023-08-19 13:20:36.105,29.172,-0.231,-0.17895001,9.64095,0.0372625,-0.20693749,-0.0994125
1692440436132,2023-08-19 13:20:36.132,29.199,-0.31500003,-0.13095,9.7560005,0.0171875,-0.1956625,-0.079475
1692440436161,2023-08-19 13:20:36.161,29.228,-0.12105001,-0.061950002,9.19095,-0.04675,-0.1029875,0.071775
1692440436192,2023-08-19 13:20:36.192,29.259,-0.022950001,-0.117000006,8.688001,-0.074525,-0.0526625,0.148775
1692440436221,2023-08-19 13:20:36.221,29.288,-0.264,-0.13395001,8.901,-0.0911625,-0.009075,0.1461625
1692440436250,2023-08-19 13:20:36.250,29.317,-0.38595003,-0.21495001,9.121051,-0.088275,-0.008525,0.1040875
1692440436278,2023-08-19 13:20:36.278,29.345,-0.312,-0.31095,9.153001,-0.085525,0.0088,0.0545875
1692440436309,2023-08-19 13:20:36.309,29.376,-0.33105,-0.20295002,8.95905,-0.0886875,0.0320375,0.0565125
1692440436337,2023-08-19 13:20:36.337,29.404,-0.37905002,-0.081,8.418,-0.093775,0.053625,0.0532125
1692440436365,2023-08-19 13:20:36.365,29.432,0.010050001,-0.261,8.13795,-0.0950125,0.0672375,-0.0303875
1692440436396,2023-08-19 13:20:36.396,29.463,0.16800001,-0.31095,8.20905,-0.08525,0.0631125,-0.091025
1692440436425,2023-08-19 13:20:36.425,29.492,0.09105001,-0.12900001,8.39595,-0.0702625,0.006325,-0.13859999
1692440436453,2023-08-19 13:20:36.453,29.52,0.064950004,-0.13605,8.398951,-0.076175,-0.044,-0.0935
1692440436481,2023-08-19 13:20:36.481,29.548,-0.15900001,0.12105001,8.451,-0.06875,-0.1128875,0.013475
1692440436512,2023-08-19 13:20:36.512,29.579,-0.043950003,0.24795002,7.3120503,-0.043175,-0.11495,0.01705
1692440436537,2023-08-19 13:20:36.537,29.604,-0.04695,0.22905001,6.91905,0.035475,-0.0691625,-0.031075
1692440436566,2023-08-19 13:20:36.566,29.633,-0.12795001,0.04695,7.3380003,0.0809875,-0.042625,-0.0792
1692440436595,2023-08-19 13:20:36.595,29.662,-0.24495001,-0.13905,7.3669505,0.1332375,-0.014575,-0.1780625
1692440436625,2023-08-19 13:20:36.625,29.692,-0.23805001,-0.47805002,6.912,0.121825,-0.0015125,-0.172425
1692440436656,2023-08-19 13:20:36.656,29.723,-0.18105,-0.55695003,6.57705,0.022275,0.0367125,-0.0017875
1692440436682,2023-08-19 13:20:36.682,29.749,-0.18300001,-0.684,6.69705,-0.054449998,0.05115,0.1486375
1692440436713,2023-08-19 13:20:36.713,29.78,-0.64695,-0.462,6.9310503,-0.1353,0.056375,0.3251875
1692440436740,2023-08-19 13:20:36.740,29.807,-0.52500004,-0.44700003,7.5390005,-0.2607,0.056649998,0.6488625
1692440436771,2023-08-19 13:20:36.771,29.838,0.003,-0.555,7.9890003,-0.2828375,0.08195,0.72655
1692440436800,2023-08-19 13:20:36.800,29.867,0.558,-0.48795003,7.86705,-0.2734875,0.125125,0.723525
1692440436829,2023-08-19 13:20:36.829,29.896,-0.09195001,-0.261,9.916051,-0.213125,0.104775,0.545875
1692440436858,2023-08-19 13:20:36.858,29.925,0.28800002,0.16005,10.075951,-0.1342,-0.0950125,0.37125
1692440436892,2023-08-19 13:20:36.892,29.959,1.10595,0.033,10.339951,-0.0639375,-0.155925,0.29067498
1692440436919,2023-08-19 13:20:36.919,29.986,0.051000003,0.13605,12.003,0.1153625,-0.2179375,-0.0086624995
1692440436947,2023-08-19 13:20:36.947,30.014,-0.573,0.58095,11.637,0.1755875,-0.2728,-0.1555125
1692440436975,2023-08-19 13:20:36.975,30.042,0.71595,0.555,11.022,0.228525,-0.2448875,-0.18535
1692440437003,2023-08-19 13:20:37.003,30.07,1.0699501,0.43695003,12.276001,0.260425,-0.1469875,-0.168575
1692440437030,2023-08-19 13:20:37.030,30.097,-0.70005006,0.98805004,13.477951,0.296725,-0.078375,-0.2209625
1692440437060,2023-08-19 13:20:37.060,30.127,-0.28605002,1.2750001,12.979951,0.3306875,-0.0768625,-0.355575
1692440437090,2023-08-19 13:20:37.090,30.157,0.86205006,1.194,13.1980505,0.3405875,-0.0449625,-0.34155
1692440437120,2023-08-19 13:20:37.120,30.187,-2.148,1.4950501,16.305,0.3718,0.0273625,-0.2959
1692440437145,2023-08-19 13:20:37.145,30.212,-1.8919501,1.88505,15.28005,0.37235,0.0078375,-0.29479998
1692440437175,2023-08-19 13:20:37.175,30.242,-0.18300001,1.8499501,17.10705,0.363275,0.0427625,-0.2866875
1692440437205,2023-08-19 13:20:37.205,30.272,0.83100003,1.6170001,17.712,0.3548875,0.297,-0.3518625
1692440437233,2023-08-19 13:20:37.233,30.3,0.98205006,1.6369501,15.915001,0.351175,0.3139125,-0.41854998
1692440437263,2023-08-19 13:20:37.263,30.33,-0.18495001,1.6170001,15.022051,0.295625,0.0545875,-0.35694999
1692440437292,2023-08-19 13:20:37.292,30.359,-0.45105,0.92805004,20.194052,0.2182125,-0.15125,-0.23045
1692440437320,2023-08-19 13:20:37.320,30.387,-0.018000001,0.55005,19.504951,0.1706375,-0.1417625,-0.1519375
1692440437352,2023-08-19 13:20:37.352,30.419,0.039,0.24795002,15.874051,0.09405,-0.0829125,0.0017875
1692440437386,2023-08-19 13:20:37.386,30.453,0.120000005,0.07395,13.437,-0.10615,-0.0020625,0.3265625
1692440437407,2023-08-19 13:20:37.407,30.474,0.67305005,-0.16005,13.777051,-0.177375,-0.0011,0.38005
1692440437438,2023-08-19 13:20:37.438,30.505,0.66300005,-0.67005,13.77,-0.2462625,-0.021724999,0.3922875
1692440437467,2023-08-19 13:20:37.467,30.534,-0.15900001,-0.48105,12.408001,-0.27225,-0.0493625,0.418275
1692440437496,2023-08-19 13:20:37.496,30.563,0.48900002,-0.097950004,10.809001,-0.3353625,-0.106425,0.50985
1692440437526,2023-08-19 13:20:37.526,30.593,1.2040501,-0.25605002,10.012051,-0.34595,-0.1087625,0.5102625
1692440437555,2023-08-19 13:20:37.555,30.622,0.64395005,-0.34905002,8.911051,-0.326975,-0.10505,0.4544375
1692440437585,2023-08-19 13:20:37.585,30.652,-0.20505,-0.54105,9.945001,-0.2528625,-0.15413749,0.215325
1692440437614,2023-08-19 13:20:37.614,30.681,-0.16095,-0.41895002,9.64095,-0.23127499,-0.1802625,0.0809875
1692440437641,2023-08-19 13:20:37.641,30.708,0.47700003,-0.13605,8.604,-0.22247499,-0.1122,-0.07425
1692440437672,2023-08-19 13:20:37.672,30.739,0.33495003,0.18405001,7.15605,-0.2162875,-0.0521125,-0.1423125
1692440437697,2023-08-19 13:20:37.697,30.764,0.13395001,0.27705002,6.4069505,-0.19635,-0.02035,-0.2688125
1692440437727,2023-08-19 13:20:37.727,30.794,-0.010950001,0.693,4.9180503,-0.107525,-0.0353375,-0.6171
1692440437758,2023-08-19 13:20:37.758,30.825,0.89595,0.61200005,3.7860003,0.02365,-0.0246125,-0.866525
1692440437792,2023-08-19 13:20:37.792,30.859,0.075,0.17400001,4.3819504,0.1013375,-0.0265375,-0.9862875
1692440437819,2023-08-19 13:20:37.819,30.886,-0.76005006,-0.16005,4.88205,0.2129875,-0.1276,-1.1155375
1692440437848,2023-08-19 13:20:37.848,30.915,-1.4280001,-0.648,5.1769505,0.206525,-0.147125,-0.9988
1692440437879,2023-08-19 13:20:37.879,30.946,-1.62405,-0.66795003,5.67,0.1480875,-0.0614625,-0.727375
1692440437908,2023-08-19 13:20:37.908,30.975,-1.8870001,-0.045,7.7500505,-0.0963875,0.4013625,0.1403875
1692440437935,2023-08-19 13:20:37.935,31.002,0.156,-0.76605004,7.1659503,-0.2278375,0.655325,0.555775
1692440437965,2023-08-19 13:20:37.965,31.032,1.2589501,-1.00695,5.8900504,-0.2987875,0.8402625,0.8096
1692440437992,2023-08-19 13:20:37.992,31.059,-2.0689502,0.22695,6.93795,-0.32395,0.7572125,1.08185
1692440438022,2023-08-19 13:20:38.022,31.089,-2.1390002,0.48795003,9.226951,-0.40039998,0.295075,1.44595
1692440438050,2023-08-19 13:20:38.050,31.117,-0.00795,0.41295,9.339001,-0.3267,0.3097875,1.4587375
1692440438081,2023-08-19 13:20:38.081,31.148,0.44595003,1.00695,7.7640004,0.0180125,0.5966125,1.097525
1692440438110,2023-08-19 13:20:38.110,31.177,-0.216,1.5139501,7.668,0.1742125,0.4629625,0.729025
1692440438140,2023-08-19 13:20:38.140,31.207,0.22305001,1.3609501,9.40905,0.441925,-0.1227875,-0.10395
1692440438169,2023-08-19 13:20:38.169,31.236,0.73005,0.99705005,10.491,0.565675,-0.3119875,-0.38953748
1692440438197,2023-08-19 13:20:38.197,31.264,0.11505,1.0669501,10.93095,0.658625,-0.5066875,-0.5435375
1692440438223,2023-08-19 13:20:38.223,31.29,0.15405001,1.23705,10.27005,0.5941375,-0.5636125,-0.439175
1692440438252,2023-08-19 13:20:38.252,31.319,0.74505,1.42095,9.238951,0.49513748,-0.5735125,-0.286825
1692440438280,2023-08-19 13:20:38.280,31.347,0.537,1.593,9.14295,0.3562625,-0.4807,-0.118525
1692440438309,2023-08-19 13:20:38.309,31.376,0.11505,1.5960001,9.772051,0.341275,-0.449625,-0.1632125
1692440438340,2023-08-19 13:20:38.340,31.407,0.012,1.44,10.00695,0.3601125,-0.42295,-0.3586
1692440438369,2023-08-19 13:20:38.369,31.436,-0.022950001,1.371,9.283951,0.355025,-0.36685,-0.4192375
1692440438397,2023-08-19 13:20:38.397,31.464,0.12705001,1.299,9.295951,0.2861375,-0.1925,-0.4635125
1692440438426,2023-08-19 13:20:38.426,31.493,0.16095,1.1359501,9.658051,0.2440625,-0.1252625,-0.4503125
1692440438455,2023-08-19 13:20:38.455,31.522,-0.17295001,1.1220001,9.61905,0.2041875,-0.0782375,-0.39435
1692440438485,2023-08-19 13:20:38.485,31.552,-0.31500003,1.0380001,9.4800005,0.10945,-0.011275,-0.188375
1692440438515,2023-08-19 13:20:38.515,31.582,-0.022950001,1.0170001,9.62895,0.0592625,0.02365,-0.082225
1692440438549,2023-08-19 13:20:38.549,31.616,-0.20205002,1.041,9.591001,-0.0155375,0.1035375,0.128425
1692440438568,2023-08-19 13:20:38.568,31.635,-0.09195001,1.12905,9.53295,-0.039875,0.1285625,0.2223375
1692440438601,2023-08-19 13:20:38.601,31.668,0.060000002,1.2100501,9.18795,-0.059675,0.115637496,0.2068
1692440438631,2023-08-19 13:20:38.631,31.698,0.24000001,1.0380001,9.066,-0.0521125,0.0902,0.11385
1692440438658,2023-08-19 13:20:38.658,31.725,0.18900001,0.91095006,9.14505,-0.034925,0.0583,0.01595
1692440438689,2023-08-19 13:20:38.689,31.756,0.012,0.78900003,9.106951,-0.0086624995,-0.02475,-0.1467125
1692440438719,2023-08-19 13:20:38.719,31.786,0.094050005,0.63105005,8.79105,-0.0446875,-0.0760375,-0.1557875
1692440438747,2023-08-19 13:20:38.747,31.814,0.072000004,0.53295004,8.81295,-0.076725,-0.0752125,-0.1142625
1692440438775,2023-08-19 13:20:38.775,31.842,-0.006,0.55905,8.57295,-0.1095875,-0.0644875,-0.0655875
1692440438804,2023-08-19 13:20:38.804,31.871,0.14895001,0.564,8.134951,-0.1662375,-0.0290125,0.0666875
1692440438835,2023-08-19 13:20:38.835,31.902,-0.04695,0.53505003,7.5750003,-0.18053749,-0.0099,0.131725
1692440438856,2023-08-19 13:20:38.856,31.923,-0.054,0.492,7.458,-0.181225,0.0006875,0.17379999
1692440438890,2023-08-19 13:20:38.890,31.957,-0.054,0.492,7.458,-0.181225,0.0006875,0.17379999
1692440438918,2023-08-19 13:20:38.918,31.985,0.13905,0.39705002,6.6660004,-0.1291125,0.013612499,0.073975
1692440438946,2023-08-19 13:20:38.946,32.013,-0.030000001,0.61005,6.354,-0.122237496,0.0127875,0.0407
1692440438978,2023-08-19 13:20:38.978,32.045,-0.33900002,0.75105006,6.80205,-0.10505,-0.0042625,0.081675
1692440439006,2023-08-19 13:20:39.006,32.073,0.08895,0.61395,7.1730003,-0.0787875,0.000275,0.1073875
1692440439038,2023-08-19 13:20:39.038,32.105,0.52905005,0.33195,7.7910004,-0.0045375,0.0323125,0.0422125
1692440439067,2023-08-19 13:20:39.067,32.134,-0.351,0.75105006,6.5149503,0.009075,0.0169125,-0.0226875
1692440439096,2023-08-19 13:20:39.096,32.163,0.079050004,0.88995004,6.1410003,-0.0078375,-0.050325,-0.0411125
1692440439126,2023-08-19 13:20:39.126,32.193,0.43605003,0.684,7.6180506,0.0089375,-0.0430375,-0.0539
1692440439153,2023-08-19 13:20:39.153,32.22,-0.025050001,0.70305,8.57295,0.0495,-0.0191125,-0.125125
1692440439183,2023-08-19 13:20:39.183,32.25,-0.37905002,0.80100006,8.499001,0.0979,-0.0523875,-0.22453749
1692440439211,2023-08-19 13:20:39.211,32.278,0.12705001,0.90900004,8.431951,0.0814,-0.06765,-0.1491875
1692440439240,2023-08-19 13:20:39.240,32.307,0.453,0.85095006,8.820001,0.0628375,-0.0331375,-0.0400125
1692440439267,2023-08-19 13:20:39.267,32.334,0.20895001,0.67905,10.359,0.0627,0.0523875,0.0675125
1692440439300,2023-08-19 13:20:39.300,32.367,0.33105,0.94500005,12.015,0.0312125,-0.012925,0.108075
1692440439328,2023-08-19 13:20:39.328,32.395,0.711,1.005,12.288,-0.0111375,-0.04235,0.170225
1692440439355,2023-08-19 13:20:39.355,32.422,0.66300005,0.99705005,11.482051,-0.0661375,-0.0664125,0.279675
1692440439383,2023-08-19 13:20:39.383,32.45,0.24000001,0.89895004,11.175,-0.0628375,-0.097625,0.2756875
1692440439414,2023-08-19 13:20:39.414,32.481,-0.11400001,1.1149501,12.04905,-0.0334125,-0.145475,0.17215
1692440439436,2023-08-19 13:20:39.436,32.503,0.50100005,1.1530501,12.520051,-0.0191125,-0.1188,0.1370875
1692440439471,2023-08-19 13:20:39.471,32.538,0.711,1.3780501,12.762001,-0.0048125,-0.0671,0.139425
1692440439499,2023-08-19 13:20:39.499,32.566,0.14895001,1.4140501,11.989051,0.0276375,-0.0209,0.1183875
1692440439530,2023-08-19 13:20:39.530,32.597,0.19695,1.2079501,12.10095,0.0452375,-0.0429,0.0268125
1692440439560,2023-08-19 13:20:39.560,32.627,0.61305004,1.0210501,12.80805,0.0620125,-0.0617375,-0.1032625
1692440439593,2023-08-19 13:20:39.593,32.66,0.91200006,1.0170001,12.59895,0.064625,-0.046475,-0.287375
1692440439622,2023-08-19 13:20:39.622,32.689,0.46695003,1.3450501,12.291,0.0078375,-0.0661375,-0.21835
1692440439650,2023-08-19 13:20:39.650,32.717,0.44805002,1.9069501,13.276951,-0.01705,-0.0988625,-0.15345
1692440439681,2023-08-19 13:20:39.681,32.748,0.48105,2.082,13.924951,0.0020625,-0.106837496,-0.1260875
1692440439711,2023-08-19 13:20:39.711,32.778,0.28800002,1.9429501,14.51895,0.0468875,-0.0829125,-0.1815
1692440439743,2023-08-19 13:20:39.743,32.81,0.051000003,1.46895,14.361001,0.142725,-0.040425,-0.3194125
1692440439767,2023-08-19 13:20:39.767,32.834,-0.43905002,1.04295,14.811001,0.161425,-0.0138875,-0.31845
1692440439797,2023-08-19 13:20:39.797,32.864,-0.88395005,0.71505004,17.032051,0.10285,0.0774125,-0.1683
1692440439824,2023-08-19 13:20:39.824,32.891,-1.0159501,0.96195006,16.221,0.02695,0.14575,-0.0556875
1692440439855,2023-08-19 13:20:39.855,32.922,-0.126,0.92805004,14.452051,-0.06435,0.22495,0.0727375
1692440439887,2023-08-19 13:20:39.887,32.954,1.6849501,0.19995001,16.810051,-0.1934625,0.3344,0.229625
1692440439915,2023-08-19 13:20:39.915,32.982,1.1880001,0.112050004,17.407951,-0.2305875,0.188925,0.131725
1692440439944,2023-08-19 13:20:39.944,33.011,1.8360001,0.13305001,15.514951,-0.2649625,0.026675,0.10505
1692440439973,2023-08-19 13:20:39.973,33.04,1.008,0.16005,13.66005,-0.3058,-0.1254,0.1219625
1692440440000,2023-08-19 13:20:40.000,33.067,0.14895001,0.21195,12.472951,-0.3267,-0.2827,0.1414875
1692440440033,2023-08-19 13:20:40.033,33.1,-0.51795,0.052050002,10.92105,-0.3037375,-0.2899875,0.102025
1692440440059,2023-08-19 13:20:40.059,33.126,-0.36,-0.31605002,10.177051,-0.2363625,-0.154275,-0.0119624995
1692440440088,2023-08-19 13:20:40.088,33.155,-0.76005006,-0.34905002,8.595,-0.210375,-0.04235,-0.0270875
1692440440125,2023-08-19 13:20:40.125,33.192,0.26805001,-0.897,7.42395,-0.2099625,0.15125,0.0900625
1692440440150,2023-08-19 13:20:40.150,33.217,0.84105,-1.1220001,8.290951,-0.2292125,0.2118875,0.1892
1692440440178,2023-08-19 13:20:40.178,33.245,0.50805,-0.95505005,8.68605,-0.3003,0.19139999,0.4145625
1692440440206,2023-08-19 13:20:40.206,33.273,0.13695,-0.744,7.932,-0.35255,0.1049125,0.4657125
1692440440234,2023-08-19 13:20:40.234,33.301,0.24405001,0.03795,6.1459503,-0.41965,-0.0510125,0.259325
1692440440261,2023-08-19 13:20:40.261,33.328,0.9289501,0.32205,4.49205,-0.4019125,-0.0675125,0.0836
1692440440293,2023-08-19 13:20:40.293,33.36,2.028,-0.028050002,3.0180001,-0.23925,-0.0867625,-0.29205
1692440440316,2023-08-19 13:20:40.316,33.383,2.334,-0.70305,2.5870502,-0.23925,-0.0867625,-0.29205
1692440440347,2023-08-19 13:20:40.347,33.414,0.28305,-0.57705003,4.65705,-0.0526625,-0.3276625,-0.5852
1692440440376,2023-08-19 13:20:40.376,33.443,-0.79800004,-0.50205004,6.3619504,-0.0826375,-0.6413,-0.342375
1692440440405,2023-08-19 13:20:40.405,33.472,-0.95595,-1.335,5.9830503,-0.1486375,-0.600875,-0.0996875
1692440440434,2023-08-19 13:20:40.434,33.501,-1.9020001,-0.186,6.91695,-0.2017125,-0.362175,0.1384625
1692440440465,2023-08-19 13:20:40.465,33.532,-1.6840501,1.371,6.9810004,-0.29975,0.337425,0.672925
1692440440493,2023-08-19 13:20:40.493,33.56,2.42295,-1.04295,3.657,-0.1491875,0.8892125,0.726825
1692440440521,2023-08-19 13:20:40.521,33.588,-0.18105,-0.79905003,6.8689504,0.0334125,0.9293625,0.4114
1692440440551,2023-08-19 13:20:40.551,33.618,-3.7489502,0.36600003,11.656051,0.1208625,0.69685,0.127875
1692440440578,2023-08-19 13:20:40.578,33.645,-3.2250001,0.291,11.93595,0.0204875,0.2380125,0.1225125
1692440440611,2023-08-19 13:20:40.611,33.678,0.21105,-0.246,8.746051,0.0741125,0.4978875,0.1731125
1692440440639,2023-08-19 13:20:40.639,33.706,1.7569501,-0.804,6.9030004,0.3114375,1.0498124,-0.1434125
1692440440668,2023-08-19 13:20:40.668,33.735,0.795,-0.34005,8.109,0.3256,0.847,-0.4261125
1692440440696,2023-08-19 13:20:40.696,33.763,-0.9799501,-0.16995001,10.854,0.12595,-0.095699996,-0.600875
1692440440725,2023-08-19 13:20:40.725,33.792,-0.70005006,-0.65805006,12.33405,0.036575,-0.42075,-0.516725
1692440440758,2023-08-19 13:20:40.758,33.825,0.051000003,-0.68895006,10.404,0.0088,-0.3988875,-0.385275
1692440440787,2023-08-19 13:20:40.787,33.854,0.034050003,-0.30600002,9.379951,-0.0094875,-0.278025,-0.3496625
1692440440815,2023-08-19 13:20:40.815,33.882,0.18495001,-0.12195001,9.033,-0.0452375,-0.21505,-0.33467498
1692440440844,2023-08-19 13:20:40.844,33.911,0.30195,-0.19395001,10.054951,-0.0451,-0.198825,-0.407825
1692440440876,2023-08-19 13:20:40.876,33.943,0.08400001,-0.14805001,10.246051,0.041525,-0.2068,-0.4904625
1692440440899,2023-08-19 13:20:40.899,33.966,-0.034950003,-0.109950006,9.801001,0.066825,-0.2156,-0.4442625
1692440440931,2023-08-19 13:20:40.931,33.998,0.112950005,-0.165,9.271951,0.07865,-0.2132625,-0.350625
1692440440960,2023-08-19 13:20:40.960,34.027,0.201,-0.27705002,9.65505,0.088,-0.1626625,-0.254375
1692440440987,2023-08-19 13:20:40.987,34.054,-0.07305,-0.411,9.934951,0.08525,-0.133375,-0.285175
1692440441016,2023-08-19 13:20:41.016,34.083,-0.109050006,-0.52395004,9.835051,0.0727375,-0.1115125,-0.3040125
1692440441048,2023-08-19 13:20:41.048,34.115,-0.34305,-0.60300004,9.715051,0.0158125,-0.069299996,-0.18645
1692440441077,2023-08-19 13:20:41.077,34.144,-0.50595003,-0.40395,9.78705,-0.0532125,-0.0064625,0.006325
1692440441105,2023-08-19 13:20:41.105,34.172,-0.003,-0.29700002,9.4800005,-0.075625,0.0309375,0.0617375
1692440441133,2023-08-19 13:20:41.133,34.2,0.29505002,-0.20595,9.0070505,-0.083325,0.0697125,0.0858
1692440441164,2023-08-19 13:20:41.164,34.231,0.13005,-0.16695,8.755051,-0.0554125,0.0881375,0.094325
1692440441188,2023-08-19 13:20:41.188,34.255,0.015000001,-0.21300001,8.740951,-0.0273625,0.0493625,0.0496375
1692440441220,2023-08-19 13:20:41.220,34.287,0.18705001,-0.39705002,8.83395,0.0242,-0.03575,-0.13859999
1692440441250,2023-08-19 13:20:41.250,34.317,0.216,-0.50205004,8.78205,0.0341,-0.05335,-0.1964875
1692440441278,2023-08-19 13:20:41.278,34.345,-0.08505,-0.38295,8.40795,0.0059125,-0.072325,-0.1353
1692440441307,2023-08-19 13:20:41.307,34.374,-0.28095,-0.34905002,7.8499503,-0.0218625,-0.082499996,-0.04895
1692440441336,2023-08-19 13:20:41.336,34.403,-0.042000003,-0.52905005,6.8040004,-0.05115,-0.046475,0.08085
1692440441365,2023-08-19 13:20:41.365,34.432,0.261,-0.28005,7.0750504,-0.0517,0.001375,0.117837496
1692440441393,2023-08-19 13:20:41.393,34.46,0.16305001,-0.18900001,7.6489506,-0.054725,0.0375375,0.1593625
1692440441423,2023-08-19 13:20:41.423,34.49,0.13695,-0.31995,7.386,-0.0556875,0.014575,0.2061125
1692440441450,2023-08-19 13:20:41.450,34.517,0.072000004,-0.15300001,7.36005,-0.0363,-0.0198,0.176
1692440441482,2023-08-19 13:20:41.482,34.549,-0.09,0.00405,7.55805,0.0122375,-0.056649998,0.1307625
1692440441512,2023-08-19 13:20:41.512,34.579,-0.42705002,-0.094950005,7.2300005,0.0331375,-0.056925,0.150425
1692440441540,2023-08-19 13:20:41.540,34.607,-0.33405003,-0.052050002,7.4670005,0.0875875,-0.010725,0.1731125
1692440441568,2023-08-19 13:20:41.568,34.635,-0.13695,-0.19605,7.83795,0.109175,0.0389125,0.1744875
1692440441595,2023-08-19 13:20:41.595,34.662,-0.36705002,-0.26505002,9.121051,0.116325,0.091025,0.185075
1692440441625,2023-08-19 13:20:41.625,34.692,-0.97305006,0.025950002,8.616,0.0902,0.1472625,0.24035
1692440441656,2023-08-19 13:20:41.656,34.723,-0.48000002,0.33705002,8.097,0.0598125,0.1892,0.3499375
1692440441684,2023-08-19 13:20:41.684,34.751,-0.07005,0.38505003,7.9459505,0.07205,0.231825,0.374
1692440441718,2023-08-19 13:20:41.718,34.785,-0.16605,0.37500003,9.118951,0.156475,0.22495,0.246675
1692440441745,2023-08-19 13:20:41.745,34.812,-0.57795,0.16695,10.408951,0.2008875,0.148775,0.1648625
1692440441778,2023-08-19 13:20:41.778,34.845,-0.693,-0.069000006,10.869,0.2270125,0.0672375,0.13805
1692440441803,2023-08-19 13:20:41.803,34.87,0.0049500004,0.081,10.498051,0.185075,0.0191125,0.292875
1692440441828,2023-08-19 13:20:41.828,34.895,0.12195001,0.26295,10.52595,0.1236125,0.0347875,0.422125
1692440441861,2023-08-19 13:20:41.861,34.928,0.027,0.34605002,10.36095,0.0320375,-0.0133375,0.4972
1692440441891,2023-08-19 13:20:41.891,34.958,0.27600002,0.19605,10.68,0.0308,-0.07535,0.38747498
1692440441921,2023-08-19 13:20:41.921,34.988,0.015000001,0.066,11.25405,0.0639375,-0.1634875,0.053075
1692440441949,2023-08-19 13:20:41.949,35.016,0.064950004,0.08295,11.304001,0.066,-0.179025,-0.0653125
1692440441980,2023-08-19 13:20:41.980,35.047,0.096,0.16395001,11.508,0.033825,-0.1640375,-0.0829125
1692440442008,2023-08-19 13:20:42.008,35.075,0.49095002,0.25995,12.151951,0.017324999,-0.1428625,-0.047575
1692440442038,2023-08-19 13:20:42.038,35.105,0.33495003,0.36795002,12.175951,0.0132,-0.11715,-0.0529375
1692440442066,2023-08-19 13:20:42.066,35.133,-0.26895002,0.68895006,12.135,0.0242,-0.1265,-0.0790625
1692440442096,2023-08-19 13:20:42.096,35.163,0.09105001,0.34905002,12.714001,0.065175,-0.1271875,-0.1571625
1692440442124,2023-08-19 13:20:42.124,35.191,-0.231,0.18105,12.279,0.088,-0.090475,-0.202675
1692440442154,2023-08-19 13:20:42.154,35.221,-0.33105,0.40095,11.79705,0.0859375,-0.0174625,-0.24145
1692440442181,2023-08-19 13:20:42.181,35.248,-0.32205,0.48000002,11.994,0.0611875,0.006875,-0.20955
1692440442211,2023-08-19 13:20:42.211,35.278,-0.37395,0.45900002,11.998951,0.0435875,0.0353375,-0.1716
1692440442240,2023-08-19 13:20:42.240,35.307,-0.48705003,0.46605003,12.54705,0.0583,0.087175,-0.206525
1692440442268,2023-08-19 13:20:42.268,35.335,-0.279,0.53295004,13.012951,0.06985,0.101475,-0.243925
1692440442296,2023-08-19 13:20:42.296,35.363,0.22995001,0.25095,13.368001,0.0719125,0.117975,-0.2275625
