@ HyperIMU - ianovir
@ Date:Mon Aug 21 08:06:02 GMT+03:00 2023, Sampling Rate:25ms

timestamp,bma4xy_accelerometer.x,bma4xy_accelerometer.y,bma4xy_accelerometer.z,oem_pseudo_gyro.x,oem_pseudo_gyro.y,oem_pseudo_gyro.z
1692594362378,-0.15900001,-0.11895001,10.218,-0.8611625,0.5654,6.4763875
1692594362436,-0.16095,-0.18195,10.041,-0.62067497,0.2684,3.75265
1692594362473,-0.27600002,-0.072000004,9.721951,-0.4307875,0.1445125,1.97175
1692594362530,-0.027,-0.18900001,9.67905,-0.2542375,0.059125,0.6857125
1692594362579,-0.043950003,-0.25605002,9.580951,-0.1926375,0.017875,0.38541248
1692594362622,0.04095,-0.37800002,9.76095,-0.1689875,-0.0484,0.3331625
1692594362660,0.109950006,-0.32505003,9.74895,-0.168575,-0.067925,0.33605
1692594362699,0.21105,-0.22200002,9.739051,-0.1648625,-0.08305,0.3972375
1692594362735,0.0,-0.21795002,9.98805,-0.1590875,-0.0939125,0.47753748
1692594362780,-0.135,-0.11505,9.889951,-0.117975,-0.08635,0.47753748
1692594362813,-0.102000006,-0.12900001,9.567,-0.0820875,-0.0565125,0.33467498
1692594362831,-0.19995001,-0.10005,9.636001,-0.041525,-0.0235125,0.2160125
1692594362864,-0.07005,-0.25305,9.753,0.015675,0.02365,0.04455
1692594362891,-0.03705,-0.354,10.042951,0.027775,0.0339625,-0.0490875
1692594362921,-0.039,-0.294,9.934951,0.0188375,0.0341,-0.149875
1692594362946,-0.10605001,-0.177,9.873,0.00275,0.0292875,-0.1364
1692594362973,-0.094050005,-0.16005,9.568951,-0.0127875,0.02475,-0.1115125
1692594363001,-0.01995,-0.14295001,9.721951,-0.018975,0.0207625,-0.13585
1692594363030,-0.05595,-0.26295,9.918,-0.0092124995,0.020075,-0.17407499
1692594363057,-0.20895001,-0.081,9.62205,0.0066,0.012375,-0.17545
1692594363086,0.14400001,-0.36105,9.859051,0.0061875,0.0077,-0.135575
1692594363109,-0.12105001,-0.22695,10.002001,0.0044,0.0055,-0.094875
1692594363138,-0.24495001,0.006,9.910951,0.0053625,0.0215875,-0.0974875
1692594363165,0.055050004,-0.17400001,10.087951,0.0081124995,0.0292875,-0.12375
1692594363196,0.015000001,-0.23205002,10.00695,0.0081124995,0.0292875,-0.12375
1692594363228,-0.13005,-0.21000001,9.61695,0.018424999,0.0297,-0.1181125
1692594363257,-0.10395,-0.18405001,9.85095,0.0210375,0.0105875,-0.0328625
1692594363290,-0.10395,-0.18405001,9.85095,0.0210375,0.0105875,-0.0328625
1692594363329,-0.10395,-0.18405001,9.85095,0.0210375,0.0105875,-0.0328625
1692594363359,-0.10395,-0.18405001,9.85095,0.0210375,0.0105875,-0.0328625
1692594363392,-0.063,-0.109950006,9.603001,-0.0,-0.025024999,0.268125
1692594363446,-0.063,-0.109950006,9.603001,-0.0,-0.025024999,0.268125
1692594363489,-0.063,-0.109950006,9.603001,-0.0,-0.025024999,0.268125
1692594363528,-0.066,-0.12900001,9.84405,-0.015125,-0.0097624995,0.1615625
1692594363570,-0.094050005,-0.13095,9.86295,-0.014162499,-0.0116875,0.1511125
1692594363608,-0.07005,-0.11505,9.753,0.0050875,-0.00825,-0.0100375
1692594363669,-0.11400001,-0.20595,9.95895,0.0199375,-0.0083875,-0.1777875
1692594363722,-0.123,-0.141,9.84,0.01705,-0.004675,-0.114125
1692594363768,-0.10395,-0.141,9.835051,0.0116875,0.0111375,-0.102025
1692594363803,-0.09195001,-0.112050004,9.873,0.013062499,0.01595,-0.03355
1692594363837,-0.051000003,-0.13395001,9.784051,0.01045,0.00935,0.0402875
1692594363854,-0.06105,-0.11895001,9.78705,0.01045,0.00935,0.0402875
1692594363888,-0.06795,-0.18900001,9.910951,0.0081124995,0.0022,-0.108899996
1692594363915,-0.087000005,-0.105000004,9.79905,0.0086624995,-0.0011,-0.153175
1692594363939,-0.07005,-0.093,9.772051,0.0033,-0.0061875,-0.0276375
1692594363967,-0.075,-0.13605,9.918,-2.75E-4,-0.00605,0.0449625
1692594363994,-0.043950003,-0.17895001,9.97095,-6.875E-4,-0.0045375,0.080575
1692594364024,-0.006,-0.17895001,9.732,0.004125,-0.0042625,0.0864875
1692594364053,-0.09,-0.13095,9.868051,0.004675,-0.00715,0.0787875
1692594364082,-0.11100001,-0.14805001,9.889951,0.00165,-0.0066,0.0512875
1692594364109,-0.010950001,-0.16695,9.85095,-8.25E-4,-0.0059125,0.0730125
1692594364138,-0.06795,-0.060000002,9.691051,-0.00495,-0.004125,0.2222
1692594364165,-0.13305001,-0.025950002,9.69795,-0.00385,-0.0055,0.2627625
1692594364193,-0.10605001,-0.117000006,9.86295,-0.001925,-0.0055,0.2242625
1692594364222,-0.16095,-0.13605,9.85095,0.013475,0.0020625,-0.01045
1692594364249,-0.20700002,-0.057000004,9.79905,0.0187,0.0094875,-0.1225125
1692594364279,-0.17595,-0.097950004,9.92595,0.0187,0.0174625,-0.19635
1692594364305,-0.16395001,-0.064050004,9.885,0.0132,0.0295625,-0.1830125
1692594364335,-0.19995001,0.00405,9.65505,0.01265,0.033825,-0.100237496
1692594364363,-0.13695,0.025950002,9.703051,0.01595,0.03795,0.0369875
1692594364390,-0.058050003,0.0019500001,9.861,0.021724999,0.0375375,0.025575
1692594364420,-0.078,-0.064050004,9.768001,0.037675,0.0298375,-0.069299996
1692594364447,-0.16095,-0.033,9.78705,0.039049998,0.0188375,-0.1035375
1692594364478,-0.16095,0.04695,9.670051,0.034649998,0.0055,-0.13255
1692594364505,-0.18300001,0.057000004,9.688951,0.0308,-0.002475,-0.143825
1692594364532,-0.17805001,0.03795,9.70995,0.0364375,0.004125,-0.093637496
1692594364560,-0.24495001,0.034950003,9.84,0.0446875,0.015125,0.0213125
1692594364587,-0.25500003,0.025950002,10.045051,0.0441375,0.0187,0.0353375
1692594364616,-0.303,0.105000004,9.85095,0.041249998,0.0231,0.033825
1692594364643,-0.27195,0.021000002,9.897,0.0361625,0.0287375,0.0356125
1692594364671,-0.21900001,0.094950005,9.727051,0.0254375,0.038775,0.0077
1692594364698,-0.14205001,0.09705,9.66495,0.029975,0.042625,-0.185625
1692594364727,-0.16395001,0.022950001,9.765,0.034375,0.0407,-0.2660625
1692594364753,-0.28395,0.078,9.715051,0.035475,0.036575,-0.285725
1692594364782,-0.324,0.13605,9.682051,0.027224999,0.025024999,-0.235125
1692594364811,-0.432,0.20805001,9.688951,0.0240625,0.0218625,-0.2110625
1692594364838,-0.43695003,0.19305001,10.074,0.03575,0.034649998,-0.1494625
1692594364866,-0.26205,0.054,10.48305,0.0479875,0.050875,-0.1288375
1692594364896,-0.20505,0.15495001,10.339951,0.0581625,0.06655,-0.150975
1692594364922,-0.12105001,0.60705,9.448951,0.058025,0.0570625,-0.301675
1692594364951,-0.35295,1.2060001,8.68095,0.0583,0.031075,-0.3815625
1692594364979,-0.30495003,1.1149501,8.71395,0.142175,-0.0111375,-0.6147625
1692594365007,-0.12105001,0.64095,9.64305,0.2338875,-0.0149875,-0.7627125
1692594365034,-0.063,0.31995,10.23705,0.3207875,-0.0122375,-0.8382
1692594365062,-0.075,-0.045,10.428,0.32725,-0.0235125,-0.556325
1692594365089,0.177,-0.15300001,10.93305,0.23925,-0.039049998,-0.272525
1692594365119,0.31605002,0.109050006,10.71105,0.0039875,-0.0688875,0.21573749
1692594365146,0.37095,0.411,9.825001,-0.09295,-0.0919875,0.3366
1692594365172,0.40695003,0.92595005,8.2879505,-0.1442375,-0.1227875,0.351725
1692594365203,0.51495004,1.24395,7.8120003,-0.0862125,-0.17875,0.1016125
1692594365232,0.55305004,1.27995,8.158951,0.004675,-0.1984125,-0.1186625
1692594365256,0.52905005,1.23705,8.3869505,0.11605,-0.21835,-0.353925
1692594365288,0.34305,1.098,9.208051,0.309925,-0.26675,-0.692725
1692594365316,0.261,1.06005,9.76305,0.357225,-0.2805,-0.7349375
1692594365344,0.21105,1.1080501,9.435,0.3443,-0.2371875,-0.6043125
1692594365371,0.43095002,1.2750001,9.399,0.3009875,-0.18933749,-0.517
1692594365399,0.78105,1.31805,9.625951,0.2176625,-0.1142625,-0.4411
1692594365427,1.161,1.5499501,9.403951,0.1992375,-0.1109625,-0.4252875
1692594365455,1.2379501,2.46195,8.42205,0.194975,-0.1375,-0.392425
1692594365485,0.58005005,3.4650002,6.84705,0.2424125,-0.2597375,-0.3009875
1692594365511,0.924,3.5710502,6.8980503,0.3350875,-0.32793748,-0.3287625
1692594365540,1.2550501,3.2359502,7.0200005,0.6986375,-0.4129125,-0.664125
1692594365570,1.8030001,2.56995,8.269051,0.8872875,-0.440825,-0.8573125
1692594365597,2.15205,1.7629501,8.62395,0.9999,-0.512875,-0.8811
1692594365624,2.2050002,1.7590501,6.37095,0.8793125,-0.54202497,-0.6782875
1692594365654,1.6470001,0.26295,5.29395,0.6749875,-0.562925,-0.3993
1692594365681,1.05795,-0.49995002,9.89505,0.2550625,-0.5885,0.103675
1692594365707,-0.043950003,-0.85395,8.79105,0.04235,-0.5372125,0.3317875
1692594365737,-2.7970502,-0.79395,5.94495,-0.2332,-0.377025,0.6062375
1692594365764,-1.45905,-3.3240001,10.266001,-0.812075,0.2792625,1.1092125
1692594365794,0.78105,-5.6389503,14.65305,-1.004025,0.7129375,1.219625
1692594365818,-0.906,-4.7530503,12.670951,-1.5188249,1.329625,2.10265
1692594365849,-1.794,-3.69495,10.953,-1.8882875,1.2417625,3.09705
1692594365875,-0.33600003,-3.96795,12.817051,-2.148025,0.9538375,3.9279625
1692594365904,0.12495001,-3.4939501,12.405001,-2.059475,0.49225,4.0990124
1692594365933,-0.74295,-2.8860002,11.742001,-1.8255875,0.33495,3.70315
1692594365959,-0.564,-2.5129502,12.834001,-1.2621125,0.0386375,2.585275
1692594365994,0.63495004,-2.298,12.52995,-0.9862875,-0.0209,2.0491624
1692594366023,0.79005,-2.013,11.464951,-0.727375,-0.0149875,1.5607625
1692594366055,0.063,-1.6969501,11.92695,-0.2971375,-0.0122375,0.609125
1692594366084,0.156,-2.3410501,12.204,-0.02145,-0.08415,-0.1859
1692594366112,0.027,-2.5080001,11.673,0.0726,-0.07095,-0.4659875
1692594366142,-0.20700002,-1.8930001,11.23995,0.127875,0.0154,-0.6978125
1692594366166,-0.82395005,-1.23,10.858951,0.0902,0.040425,-0.6736125
1692594366200,-0.82005006,-0.75105006,9.4129505,0.06655,0.113025,-0.632225
1692594366229,-0.29295,-1.02705,10.708051,0.1249875,0.19813749,-0.6804875
1692594366258,0.54405004,-1.3429501,11.43795,0.287925,0.3564,-0.8635
1692594366283,0.28500003,-1.065,11.173051,0.3388,0.3526875,-0.93747497
1692594366313,-0.252,-0.72300005,10.58205,0.3565375,0.28325,-0.977625
1692594366350,0.18195,-1.146,11.071951,0.340725,0.1056,-0.9675875
1692594366376,0.29700002,-1.23195,10.861951,0.3312375,0.0653125,-0.9134125
1692594366408,-0.14505,-0.82800007,10.15995,0.2864125,0.0248875,-0.702625
1692594366437,-0.30705002,-0.39000002,9.37005,0.2432375,-0.004675,-0.5787375
1692594366465,-0.13005,-0.54795,9.52095,0.2011625,-0.0023375,-0.447975
1692594366496,0.01695,-0.68895006,10.000051,0.21779999,0.039325,-0.45815
1692594366524,-0.022950001,-0.43800002,9.423,0.2393875,0.077,-0.482625
1692594366552,0.37605003,-0.74700004,9.17895,0.2490125,0.075075,-0.471625
1692594366579,0.28305,-0.81795,9.31305,0.2160125,0.0017875,-0.3416875
1692594366610,0.064950004,-0.67005,9.339001,0.18425,-0.0466125,-0.237325
1692594366638,0.052950002,-0.66300005,9.397051,0.1458875,-0.088,-0.143275
1692594366669,-0.20205002,-0.47100002,9.279,0.086899996,-0.0983125,-0.071225
1692594366695,-0.03705,-1.05795,11.41905,0.0776875,-0.0743875,-0.059125
1692594366725,0.88095003,-2.08695,13.222051,0.0834625,-0.0149875,-0.0268125
1692594366754,0.92205006,-2.5729501,12.340951,0.0589875,-0.0031625,0.0163625
1692594366781,0.063,-3.18105,15.043051,-0.146025,-0.1095875,0.37235
1692594366812,0.393,-4.30095,16.149,-0.284075,-0.19305,0.6323625
1692594366843,-0.33600003,-3.4819503,14.37495,-0.4970625,-0.2332,0.99715
1692594366876,-1.45395,-2.3430002,12.20205,-0.5643,-0.207075,1.103575
1692594366903,-2.29695,-2.082,12.71895,-0.573925,-0.1150875,1.1804374
1692594366932,-0.70500004,-3.3750002,11.950951,-0.4976125,-0.00165,1.1087999
1692594366957,0.31605002,-3.8250003,10.905001,-0.3034625,0.2871,0.8881125
1692594366993,0.13905,-3.5449502,10.870951,-0.2847625,0.3091,0.9087375
1692594367020,-0.42495003,-2.25495,9.97095,-0.3432,0.19305,1.0494
1692594367049,-0.11400001,-1.125,7.7980504,-0.477675,-0.1513875,1.2837
1692594367077,0.89100003,-1.4929501,9.030001,-0.433125,-0.2044625,1.184975
1692594367103,0.85695004,-0.91605,11.199,-0.138875,-0.1043625,0.491975
1692594367132,-0.51600003,0.6,7.7449503,0.015675,-0.0886875,0.0823625
1692594367162,-0.89895004,1.6339501,7.0150504,0.2932875,-0.1186625,-0.5933125
1692594367192,0.97905004,0.53805,8.899051,0.47341248,-0.020624999,-0.98395
1692594367222,1.0849501,0.95895004,11.319,0.678425,0.145475,-1.4317875
1692594367248,-0.70695,1.7899501,8.69295,1.0038875,0.265375,-2.2089374
1692594367281,-0.64005005,0.82005006,4.0230002,1.08295,0.0713625,-2.4740374
1692594367309,0.60105,-1.113,9.40095,1.0503625,0.089237496,-2.4657874
1692594367341,0.74205005,-0.82605004,10.225051,0.8127625,0.188375,-2.0574124
1692594367370,0.57195,0.09,5.9350505,0.5533,0.106837496,-1.5134625
1692594367399,1.4080501,0.20805001,5.44995,0.0622875,-0.16445,-0.3982
1692594367428,1.6690501,0.093,8.17095,9.625E-4,-0.2564375,-0.1687125
1692594367460,1.03695,0.50205004,9.094951,0.0364375,-0.346225,-0.109175
1692594367491,0.13695,1.2420001,5.7439504,0.1486375,-0.5445,-0.0671
1692594367520,1.38405,0.43305,10.00695,0.282425,-0.49995,-0.1436875
1692594367551,2.6449502,0.18405001,12.858001,0.3779875,-0.3986125,-0.2393875
1692594367577,0.59895,1.455,10.31595,0.401775,-0.35365,-0.18315
1692594367603,0.097950004,1.70595,8.157001,0.32725,-0.40713748,-0.05555
1692594367634,0.80895007,1.11,7.3840504,0.28215,-0.407275,-0.0389125
1692594367663,0.27600002,0.46800002,8.784,0.32945,-0.221925,-0.3843125
1692594367695,-0.07005,0.42495003,9.84,0.348425,-0.1364,-0.5328125
1692594367723,0.38805002,0.17400001,9.873,0.2454375,0.0446875,-0.4967875
1692594367748,0.78795004,0.030000001,9.67695,0.144375,0.1632125,-0.3700125
1692594367778,0.30705002,0.38205,9.729,0.0411125,0.2506625,-0.22605
1692594367808,0.01905,0.46095002,9.34395,-0.1167375,0.24585,0.04235
1692594367840,0.060000002,0.342,9.44505,-0.14685,0.2173875,0.1084875
1692594367861,0.17295001,0.141,9.957001,-0.11605,0.24035,0.0363
1692594367896,0.35205,0.22005,10.416,-0.09625,0.26125,-0.0119624995
1692594367924,0.41205,0.34395,9.990001,-0.102575,0.2486,0.026675
1692594367951,0.30705002,0.41595003,9.62205,-0.1126125,0.216425,0.0644875
1692594367982,0.10095,0.078,9.471001,-0.098725,0.1403875,0.0562375
1692594368011,0.015000001,-0.025950002,9.35805,-0.0787875,0.1172875,0.0325875
1692594368038,-0.135,0.022950001,9.10005,-0.0664125,0.11165,0.041249998
1692594368067,-0.77205,0.33900002,8.82195,-0.0902,0.1387375,0.1945625
1692594368097,-0.39795002,0.49005002,9.306001,-0.1007875,0.174625,0.2589125
1692594368126,-0.126,0.93000007,9.47805,-0.055,0.2982375,0.237325
1692594368153,-0.043950003,1.4500501,9.624001,-0.0083875,0.334125,0.1925
1692594368181,0.156,1.4640001,9.92595,0.1354375,0.26125,0.04675
1692594368210,0.087000005,1.0210501,10.347,0.24035,0.182325,-0.0961125
1692594368239,0.36405003,0.47805002,10.05,0.3872,0.0308,-0.41085
1692594368268,0.21795002,0.43005002,9.625951,0.367675,-0.0210375,-0.4390375
1692594368298,-0.010950001,0.62895006,9.418051,0.2894375,-0.0543125,-0.3273875
1692594368329,-0.26895002,0.92100006,8.832001,0.0999625,-0.0686125,0.068475
1692594368357,-0.88695,1.33305,8.14005,0.045925,-0.0474375,0.1969
1692594368387,-1.28205,1.0000501,8.17095,0.0488125,0.0402875,0.1852125
1692594368415,-0.77895004,1.1890501,8.80305,0.0994125,0.115775,0.049775
1692594368444,0.46905002,1.692,8.841001,0.2138125,0.3069,-0.289575
1692594368474,0.53205,3.3769503,7.8910503,0.24447499,0.3372875,-0.38665
1692594368504,0.31395,3.6859503,6.46395,0.3922875,0.08525,-0.5501375
1692594368532,0.13905,2.8960502,7.5079503,0.584375,-0.124025,-0.758175
1692594368560,0.71400005,1.3249501,10.290001,1.0118625,-0.4224,-1.2618375
1692594368593,0.64395005,0.61200005,10.60995,1.0522875,-0.46873748,-1.2956625
1692594368621,-1.1880001,0.28905,7.3240504,0.8787625,-0.443575,-1.033725
1692594368649,-0.79605,-0.29700002,7.9200006,0.1524875,-0.228525,-0.0097624995
1692594368677,1.4959501,-1.3930501,11.30895,-0.3771625,0.2233,0.588775
1692594368703,1.317,-2.082,9.969001,-0.3771625,0.2233,0.588775
1692594368735,0.27600002,-2.8600502,9.868051,-0.8232125,0.3653375,1.4793625
1692594368766,0.77295005,-3.01305,11.082001,-1.32715,0.0386375,2.8540876
1692594368795,1.2229501,-3.3630002,12.015,-1.495725,-0.07315,3.339325
1692594368822,0.675,-2.6230502,11.259001,-1.5850999,-0.2365,3.5684
1692594368850,-0.25995,-1.524,9.607051,-1.5351875,-0.3157,3.35995
1692594368881,-1.014,-0.76095,8.875051,-1.4210625,-0.3612125,3.019225
1692594368907,-1.059,-0.96195006,10.48305,-0.970475,-0.2297625,2.1322124
1692594368934,-0.50100005,-1.6470001,11.223001,-0.6810375,-0.0515625,1.6885
1692594368964,-0.57105005,-1.5679501,11.106001,-0.2160125,0.2781625,1.0217625
1692594368992,-0.966,-1.13205,10.882951,-0.111237496,0.3322,0.83599997
1692594369022,-0.70500004,-1.2760501,11.745001,-0.058025,0.3058,0.563475
1692594369050,-0.65895003,-1.46895,12.255,-0.03135,0.297825,0.4038375
1692594369081,-0.66195005,-1.125,12.276001,0.0055,0.296725,0.249975
1692594369109,-0.43005002,-0.8880001,11.625001,0.0653125,0.265375,0.03795
1692594369138,-0.34095,-0.66795003,11.190001,0.09405,0.2382875,-0.0697125
1692594369167,-0.351,-0.26805001,11.259001,0.169675,0.176,-0.3685
1692594369196,0.13395001,-0.21495001,11.73795,0.2096875,0.1412125,-0.502425
1692594369225,0.25395,-0.73905003,10.705951,0.308,0.0743875,-0.733425
1692594369250,0.20895001,-0.34005,10.420951,0.346775,0.028324999,-0.82335
1692594369279,0.12195001,-0.061950002,10.55805,0.3469125,-0.0295625,-0.84645
1692594369305,0.48600003,-0.20805001,10.965,0.277475,-0.1203125,-0.759825
1692594369337,0.30705002,-0.261,11.12205,0.264825,-0.137225,-0.7414
1692594369365,-0.15900001,-0.043050002,10.1629505,0.2696375,-0.1560625,-0.7016625
1692594369396,0.24195,-0.43995002,11.544001,0.2552,-0.1606,-0.6241125
1692594369424,0.66795003,-0.81600004,12.540001,0.2099625,-0.1269125,-0.421025
1692594369453,0.12195001,-0.42105,11.283001,0.177375,-0.108075,-0.3122625
1692594369483,-0.18300001,-0.48795003,10.384951,0.127875,-0.1051875,-0.1860375
1692594369511,-0.079950005,-1.3740001,12.690001,0.0292875,-0.1056,0.066825
1692594369539,-0.126,-1.52205,13.73595,-0.0202125,-0.0312125,0.231
1692594369569,-0.86295,-1.2349501,12.163951,-0.0724625,0.0045375,0.2957625
1692594369602,-0.52005005,-2.0320501,11.91495,-0.19139999,0.05335,0.41593748
1692594369626,0.264,-2.7859502,13.722001,-0.221925,0.092675,0.4849625
1692594369652,0.35700002,-2.79795,13.444051,-0.2589125,0.1230625,0.584375
1692594369681,-0.573,-3.07095,11.299951,-0.4181375,0.0372625,0.845625
1692594369709,-1.06095,-3.2220001,12.396001,-0.5025625,-0.0473,0.9202875
1692594369739,-0.79800004,-2.66895,11.88405,-0.6095375,-0.0683375,0.9695125
1692594369771,-0.67605,-1.79295,8.724,-0.6287875,-0.0083875,0.998525
1692594369799,-0.48000002,-1.21605,6.8880005,-0.5493125,0.0933625,0.8886625
1692594369829,-1.11405,-0.91605,5.6340003,-0.4588375,0.1139875,0.727375
1692594369860,0.47400004,-0.98100007,6.084,-0.356125,0.128975,0.534325
1692594369885,3.31095,-0.061950002,9.102,-0.1568875,0.1951125,0.114125
1692594369920,0.20400001,1.6390501,7.9150505,0.0603625,0.0,-0.574475
1692594369945,-1.6570501,2.769,7.1629505,0.23705,-0.2454375,-1.11375
1692594369978,-0.99000007,0.65505004,6.4360504,0.7720625,-0.28105,-2.209075
1692594370006,-1.02795,-0.31605002,6.9670506,1.03895,-0.014025,-2.6257
1692594370034,-0.51105005,-1.149,9.688951,1.1737,0.2498375,-2.7995
1692594370064,-0.74295,-0.91605,10.503,0.8507125,0.4893625,-2.079825
1692594370089,-1.9399501,0.47805002,8.56095,0.5242875,0.4888125,-1.4238125
1692594370119,-2.361,1.098,7.8960004,0.0847,0.4321625,-0.5416125
1692594370148,-2.3760002,1.1700001,8.49195,0.097075,0.498575,-0.53185
1692594370178,-2.055,0.71505004,8.06295,0.241725,0.6351125,-0.7535
1692594370208,-0.64695,-0.957,9.92595,0.5963375,0.8460375,-1.29415
1692594370234,-0.27405003,-1.21305,10.210951,0.6477625,0.823075,-1.3589125
1692594370261,-0.96795005,-0.648,9.492001,0.53473747,0.69025,-1.1807125
1692594370288,-1.3219501,0.13095,9.813001,-0.027775,0.203775,-0.3504875
1692594370321,-1.3270501,0.32505003,9.81795,-0.259875,-0.0584375,-0.0276375
1692594370350,-2.325,0.52095,9.27,-0.1739375,-0.0485375,-0.16005
1692594370376,-2.36805,0.042000003,9.79395,-0.0400125,-0.0064625,-0.3559875
1692594370403,-1.28205,-0.78195006,10.189051,0.190575,0.16115,-0.6986375
1692594370432,-1.19295,-0.651,8.36505,0.2300375,0.2660625,-0.775225
1692594370457,-1.8199501,-0.73905003,9.20505,0.1835625,0.313775,-0.7170625
1692594370485,-1.2940501,-1.09095,12.154051,-0.06985,0.1898875,-0.28435
1692594370513,0.22800002,-1.48395,12.51105,-0.183975,0.124437496,-0.0457875
1692594370544,0.097950004,0.021000002,9.17895,-0.36245,-0.0224125,0.4129125
1692594370575,-1.131,1.39005,8.226001,-0.4219875,-0.2041875,0.5630625
1692594370606,-1.03995,1.179,8.391001,-0.2160125,-0.4580125,0.21395
1692594370634,-0.39600003,0.39405003,9.373051,0.0636625,-0.383625,-0.237325
1692594370661,-0.702,0.109050006,10.299001,0.5302,-0.139975,-0.8877
1692594370690,-1.38495,-0.00705,10.10295,0.5614125,-0.113299996,-0.8672125
1692594370721,-0.74100006,-0.38700002,11.41695,0.3447125,-0.140525,-0.4701125
1692594370744,-0.034950003,-0.36600003,11.295,0.21395,-0.1255375,-0.3117125
1692594370775,-0.65205,0.25995,9.70995,0.0955625,-0.11165,-0.18975
1692594370803,-0.777,0.37995002,9.255,-0.0664125,-0.1771,0.0363
1692594370829,-0.34605002,0.16695,8.962951,-0.073699996,-0.206525,0.0847
1692594370860,-0.058050003,0.11400001,9.33405,-0.0363,-0.195525,0.073975
1692594370888,-0.29295,0.291,9.37005,0.0451,-0.1511125,-0.0031625
1692594370918,0.01695,0.21000001,10.174951,0.0561,-0.1672,-0.032725
1692594370947,0.37905002,0.31305,10.13895,0.0647625,-0.2239875,-0.0694375
1692594370975,0.30705002,0.837,8.817,0.0672375,-0.2487375,-0.047575
1692594371001,-0.03195,1.43805,7.2420006,0.0785125,-0.316525,-0.008525
1692594371034,0.44595003,0.94995004,7.7400002,0.1310375,-0.33467498,-0.110825
1692594371059,0.74205005,0.33405003,9.045,0.22893749,-0.323125,-0.2960375
1692594371090,0.711,0.351,9.16005,0.39875,-0.2831125,-0.5005
1692594371119,0.177,1.014,7.8910503,0.27555,-0.3339875,-0.121825
1692594371148,0.30900002,1.3039501,8.451,0.186175,-0.350625,0.082225
1692594371177,0.40500003,1.77795,9.045,0.15455,-0.33261248,0.1683
1692594371205,0.48105,2.45805,8.205,0.2508,-0.24365,0.046475
1692594371233,0.81900007,2.742,8.18295,0.3383875,-0.21395,-0.0851125
1692594371262,1.29795,2.29695,9.13305,0.5729625,-0.2212375,-0.40094998
1692594371290,1.8049501,1.81095,9.7560005,0.6914875,-0.26235,-0.5267625
1692594371320,1.4440501,1.5289501,9.604951,0.7110125,-0.397375,-0.3768875
1692594371348,0.83595,1.3300501,7.9819503,0.58245,-0.450725,-0.100237496
1692594371375,-0.075,0.58605003,5.9020505,0.4217125,-0.467775,0.1736625
1692594371401,-0.034950003,-0.12900001,6.6180005,0.282975,-0.436425,0.3521375
1692594371432,-0.49695003,-2.21895,9.77505,0.0523875,-0.2143625,0.531575
1692594371459,-2.13105,-1.7209501,8.99505,-0.1508375,-0.042625,0.759275
1692594371487,-2.32995,-1.5010501,6.972,-0.7580375,0.3612125,1.6731
1692594371517,-0.504,-3.45405,11.467051,-0.983125,0.6329125,2.0871124
1692594371548,-0.25995,-3.28905,11.27595,-1.1878625,1.0935374,2.695
1692594371583,-1.2580501,-1.89795,8.938951,-1.4729,0.783475,3.5255
1692594371600,-1.4059501,-1.8720001,9.226951,-1.4729,0.783475,3.5255
1692594371634,-0.231,-2.7880502,13.252951,-1.439075,0.2715625,3.5132625
1692594371662,0.28500003,-2.70195,14.023951,-1.2579875,0.1711875,3.2074625
1692594371692,0.14400001,-1.1080501,11.601001,-0.8834375,0.0188375,2.4371874
1692594371722,0.522,-0.016050002,10.870951,-0.548625,-0.2014375,1.4969625
1692594371804,-0.26895002,-1.11,13.111951,0.32945,-0.152625,-0.480975
1692594371832,0.027,-1.1509501,12.84405,0.43065,-0.086075,-0.7673875
1692594371859,0.02205,-1.182,12.508051,0.438075,-0.015125,-0.90805
1692594371890,0.18195,-1.3260001,11.580001,0.29865,0.045649998,-0.877525
1692594371920,-0.08205,-0.97605,11.029051,0.21945,0.0334125,-0.8234875
1692594371943,0.19695,-0.61200005,11.295,0.1016125,-0.00275,-0.7995625
1692594371973,-0.43905002,-0.09105001,10.359,0.0735625,-0.013475,-0.80245
1692594372002,-0.18495001,-0.44700003,11.155951,0.1067,-0.012925,-0.730675
1692594372031,0.68505,-1.5600001,12.436951,0.155925,0.0083875,-0.6617875
1692594372061,0.18705001,-2.52705,14.410951,0.18727499,0.039875,-0.5108125
1692594372089,0.39795002,-3.2650502,15.559951,0.1106875,0.007425,-0.3785375
1692594372118,0.28500003,-2.83605,14.656051,-0.18205,-0.0884125,0.05115
1692594372147,-1.0159501,-1.89795,12.8220005,-0.3158375,-0.1216875,0.25547498
1692594372175,-1.07805,-1.8240001,12.646951,-0.395175,-0.13653749,0.3823875
1692594372204,-0.84795004,-2.295,13.21695,-0.3619,-0.0303875,0.4437125
1692594372231,-0.77400005,-2.83605,13.264951,-0.29273748,0.0727375,0.4521
1692594372260,-0.60195005,-2.90805,13.152,-0.22275,0.190025,0.4753375
1692594372287,-0.882,-2.8819501,12.625951,-0.2426875,0.1830125,0.5253875
1692594372315,-0.86805004,-2.8270502,11.344951,-0.279125,0.1529,0.61985
1692594372341,-0.83595,-2.97495,11.002951,-0.336325,0.088,0.81633747
1692594372368,-0.96795005,-2.664,10.689,-0.3529625,0.06325,0.8889375
1692594372396,-1.14495,-1.90005,8.42205,-0.367125,0.0389125,0.9645625
1692594372424,-0.35295,-1.9980001,7.9440002,-0.3619,0.013475,1.0514625
1692594372451,0.076950006,-0.88500005,9.361051,-0.3276625,0.0246125,1.0096625
1692594372480,0.34995002,0.102000006,8.00595,-0.2083125,0.0133375,0.7458
1692594372505,0.70605004,0.61905,7.6399503,-0.091025,-0.0231,0.4566375
1692594372532,1.09695,1.3729501,7.9440002,0.0944625,-0.0529375,0.0198
1692594372559,1.6830001,1.8499501,7.2829504,0.57805,-0.091575,-1.1158125
1692594372588,0.34500003,2.6110501,6.56295,0.809875,-0.133375,-1.7315375
1692594372617,-0.60195005,3.6739502,3.6520503,1.0165375,-0.1929125,-2.34245
1692594372646,0.79695004,2.2090502,2.328,1.364825,-0.2572625,-3.3210375
1692594372675,1.437,1.05495,5.979,1.5162125,-0.231,-3.6173499
1692594372700,0.89595,0.33705002,7.6060505,1.6449125,-0.3152875,-3.578575
1692594372729,0.65595,-0.00705,6.7519503,1.4894,-0.45925,-3.0097375
1692594372757,1.401,-0.73695004,9.01605,0.79048747,-0.53405,-1.2952499
1692594372783,1.7689501,-0.73005,10.83495,0.414975,-0.440825,-0.5864375
1692594372810,0.52500004,0.708,8.274,0.07645,-0.35145,-0.0353375
1692594372838,0.46905002,0.98505,9.67695,-0.3436125,-0.24805,0.5498625
1692594372865,1.4130001,0.46800002,12.247951,-0.3405875,-0.1683,0.455675
1692594372892,0.27600002,0.42495003,11.44995,-0.24365,-0.0730125,0.17215
1692594372920,-0.27600002,0.25800002,9.68595,-0.10395,-0.0026125,-0.28655
1692594372947,0.028950002,-0.37605003,10.684051,-0.1021625,0.0215875,-0.3634125
1692594372975,-0.65505004,-0.10695001,10.42395,-0.1142625,0.0994125,-0.4032875
1692594373004,-0.95895004,-0.07395,10.488001,-0.1725625,0.3036,-0.37675
1692594373031,0.108,-0.51000005,11.93595,-0.2112,0.380325,-0.3372875
1692594373061,0.35700002,-0.23895001,11.307,-0.2387,0.4406875,-0.3249125
1692594373089,0.0,0.42495003,9.67395,-0.25685,0.426525,-0.312675
1692594373116,-0.24495001,0.51900005,8.06595,-0.249975,0.3378375,-0.2649625
1692594373154,-0.12795001,-0.64095,10.1320505,-0.15125,0.1722875,-0.18727499
1692594373178,0.11505,-1.0530001,10.528951,-0.022824999,0.1439625,-0.205425
1692594373211,-0.28800002,-0.675,9.12405,-0.0468875,0.14685,-0.139425
1692594373239,-0.492,-0.462,8.394,-0.2352625,0.1216875,0.21835
1692594373271,-0.31905,-0.70605004,9.00405,-0.2959,0.1186625,0.344575
1692594373317,-0.58005005,-0.21795002,9.48495,-0.295625,0.15565,0.3183125
1692594373339,-0.80805004,-0.21300001,9.580951,-0.2409,0.1684375,0.190575
1692594373379,-0.82005006,-0.52605003,10.00695,-0.1288375,0.199925,0.0686125
1692594373399,-0.81195,-0.66300005,9.946951,-0.1288375,0.199925,0.0686125
1692594373428,-0.74505,-0.79905003,9.5119505,-0.064075,0.2520375,0.041525
1692594373456,-0.231,-0.483,9.538051,-0.1060125,0.247225,0.20047499
1692594373485,-0.264,0.231,9.411,-0.1364,0.2143625,0.3224375
1692594373513,-0.42705002,0.804,8.929951,-0.143825,0.15853749,0.407275
1692594373540,-0.36495003,0.60195005,9.828,0.005775,0.0418,0.166925
1692594373568,-0.22605,0.069000006,11.395051,0.1524875,0.0143,-0.1486375
1692594373596,-0.55905,0.009000001,11.23995,0.286825,-1.375E-4,-0.4431625
1692594373625,-0.58005005,0.105000004,10.43805,0.351725,-0.03795,-0.584925
1692594373651,-0.19500001,-0.060000002,9.957001,0.2937,-0.0451,-0.4697
1692594373681,-0.18495001,-0.12705001,9.81795,0.15235,-0.026124999,-0.2292125
1692594373708,-0.15405001,-0.28905,10.210951,0.1027125,-0.028324999,-0.1478125
1692594373736,-0.52995,0.018000001,9.913951,0.060775,-0.045925,-0.09625
1692594373763,-0.85800004,0.51405,9.05895,-0.0053625,-0.0697125,-0.055825
1692594373793,-0.46800002,0.62595004,9.114,-0.0067375,-0.04675,-0.07975
1692594373823,-0.537,0.78900003,9.592951,0.0952875,0.0539,-0.2374625
1692594373853,-0.564,0.92100006,9.081,0.16445,0.083875,-0.31707498
1692594373879,-0.66405004,1.179,8.545051,0.26895,0.074525,-0.416075
1692594373907,-0.52500004,1.3039501,8.3550005,0.3100625,0.06655,-0.4712125
1692594373934,-0.34800002,1.4830501,8.3869505,0.35227498,0.0680625,-0.5335
1692594373963,0.031050002,1.491,8.298,0.4488,0.066825,-0.609125
1692594373991,-0.15900001,2.0080502,7.977,0.490875,0.0391875,-0.5944125
1692594374022,-0.42705002,2.7589502,7.34805,0.5517875,-0.0738375,-0.5097125
1692594374050,-0.528,3.0340502,6.0859504,0.5995,-0.12485,-0.5218125
1692594374078,-0.753,2.8909502,6.0379505,0.6826875,-0.152075,-0.623975
1692594374108,-0.231,1.7040001,8.15205,0.9428375,-0.1535875,-1.0602624
1692594374138,-0.46995002,1.2270001,9.712951,1.0341375,-0.1458875,-1.25125
1692594374166,-0.453,1.31295,8.35095,0.8663875,-0.12925,-1.0289125
1692594374193,-0.59205,1.38495,7.42005,0.587675,-0.090475,-0.6659125
1692594374226,-1.14795,-1.335,11.347051,0.1082125,-9.625E-4,-0.1309
1692594374251,1.07505,-1.7490001,16.386002,-0.02695,0.038225,-0.0325875
1692594374287,0.58395004,-1.0339501,8.27595,-0.5713125,0.2000625,0.6358
1692594374312,-0.50100005,-1.2060001,7.7190003,-0.9978375,0.2017125,1.4214749
1692594374340,0.91200006,-2.60595,12.826951,-1.410475,-0.0606375,2.7330875
1692594374364,1.932,-3.456,13.641001,-1.3883375,-0.1483625,2.971925
1692594374392,0.40695003,-2.7949502,10.641001,-1.37555,-0.20735,3.1169875
1692594374418,-0.19995001,-2.3790002,10.30605,-1.4169375,-0.313225,3.26315
1692594374445,0.14895001,-1.8859501,10.774951,-1.4322,-0.5160375,3.256
1692594374476,0.31605002,-1.5820501,11.005051,-1.3134,-0.4807,3.019225
1692594374498,0.381,-1.67805,10.96905,-0.916025,-0.2916375,2.34905
1692594374529,0.24405001,-1.5289501,10.74705,-0.70675,-0.236225,1.9930625
1692594374561,-0.231,-1.08405,10.998,-0.383625,-0.1808125,1.378575
1692594374588,-0.78900003,-0.62895006,10.909051,-0.2688125,-0.1450625,1.1372625
1692594374617,-0.64305,-0.43095002,10.861951,-0.0534875,-0.0022,0.7349375
1692594374647,-0.11400001,-0.61995006,11.491051,0.058575,0.0983125,0.5677375
1692594374674,-0.36705002,-0.342,11.557951,0.1596375,0.1865875,0.4211625
1692594374700,-0.42000002,-0.060000002,11.199,0.2861375,0.229625,0.15785
1692594374727,-0.43395,0.294,10.443001,0.3202375,0.2074875,0.014162499
1692594374753,0.079050004,0.08505,10.48095,0.353375,0.194425,-0.1560625
1692594374783,-0.11400001,-0.201,11.40495,0.4230875,0.18053749,-0.51315
1692594374809,-0.38595003,-0.049950004,11.194051,0.4349125,0.14465,-0.615725
1692594374837,0.177,-0.081,10.866,0.37867498,0.05335,-0.5913875
1692594374866,0.30900002,-0.14805001,10.65795,0.3350875,0.0350625,-0.53267497
1692594374895,-0.41505003,-0.049950004,10.71105,0.297275,0.022275,-0.4824875
1692594374923,0.024,-0.30600002,12.087001,0.233475,-0.0308,-0.3834875
1692594374950,0.52500004,-0.60105,12.09,0.2024,-0.046475,-0.312675
1692594374979,0.38595003,-0.16695,11.623051,0.167475,-0.0493625,-0.2217875
1692594375006,-0.279,0.11400001,11.026951,0.078375,-0.082775,-0.0149875
1692594375036,0.156,-1.2400501,12.799951,0.048675,-0.1120625,-0.01815
1692594375060,0.10305001,-1.86405,14.577001,0.0523875,-0.0873125,-0.06545
1692594375087,-0.64005005,-1.4670001,14.352,0.0144375,-0.0600875,-0.0028875
1692594375116,-1.437,-0.97395,12.894001,-0.0847,-0.044825,0.2046
1692594375146,-1.4419501,-0.92595005,11.833051,-0.2858625,0.0358875,0.6221875
1692594375175,-1.1520001,-1.7020501,12.540001,-0.2976875,0.1335125,0.6582125
1692594375206,-0.47295,-2.5470002,13.621051,-0.2451625,0.308,0.6199875
1692594375234,-0.33105,-2.32605,11.97,-0.2608375,0.3223,0.6675625
1692594375262,-0.48705003,-2.1679502,10.91205,-0.3205125,0.27719998,0.7517125
1692594375290,0.28005,-2.1060002,9.354,-0.4587,0.0952875,0.79461247
1692594375318,-0.32700002,-1.39995,9.483001,-0.4912875,-0.0391875,0.602525
1692594375344,-1.7560501,-0.70305,9.99705,-0.4785,-0.0793375,0.460625
1692594375377,-2.4760501,0.45900002,7.2259502,-0.4343625,-0.0834625,0.27775
1692594375408,-0.76500005,0.966,6.9670506,-0.166375,0.170225,-0.138325
1692594375436,0.39795002,0.78900003,7.5850506,0.2809125,0.575025,-0.6232875
1692594375461,0.65595,1.2870001,8.487,0.2809125,0.575025,-0.6232875
1692594375488,-1.2790501,1.93605,7.55805,0.716375,0.5141125,-1.5384874
1692594375517,-3.8400002,2.22795,5.052,1.0527,0.1255375,-2.447775
1692594375547,-1.5949501,0.99705005,7.5060005,1.1919875,0.106425,-2.755225
1692594375576,0.052950002,0.354,6.5719504,1.3143625,0.28985,-3.004375
1692594375604,-0.19005,0.025950002,7.6110005,1.32165,0.67155,-3.0465875
1692594375632,-0.53205,-0.08295,9.153001,1.1026125,0.5454625,-2.580875
1692594375659,-0.07305,-0.049950004,9.93795,0.7838875,0.2707375,-1.9018999
1692594375689,-0.75000006,0.97800004,5.6269503,0.2014375,-0.145475,-0.729575
1692594375716,-0.28605002,0.564,9.933001,-0.064625,-0.3025,-0.127875
1692594375748,0.38595003,0.41295,14.221951,-0.06215,-0.3216125,-0.020075
1692594375779,-1.47105,1.55505,9.63405,-0.020075,-0.31501248,0.0251625
1692594375809,-2.35395,1.93605,7.24695,0.0246125,-0.3586,0.06545
1692594375836,-0.74295,0.31500003,10.026,0.0864875,-0.3194125,-0.0814
1692594375865,-0.91305006,0.061950002,9.84,0.2916375,-0.04455,-0.6408875
1692594375893,-0.86805004,0.63795,9.40095,0.2861375,0.0391875,-0.726
1692594375920,-0.36195,1.1890501,8.853001,0.0790625,0.033825,-0.436975
1692594375952,0.216,1.3060501,8.736,0.0292875,0.0094875,-0.3427875
1692594375984,0.28305,1.0020001,9.16905,0.1293875,-0.09295,-0.43065
1692594376009,-0.312,1.1050501,9.957001,0.2063875,-0.1835625,-0.47753748
1692594376038,0.22500001,0.75795,10.681951,0.2475,-0.32505,-0.3760625
1692594376066,0.66105,0.88005006,10.207951,0.2127125,-0.337425,-0.2481875
1692594376097,0.30900002,1.4670001,8.929951,0.15895,-0.3315125,-0.1038125
1692594376125,0.14595,1.1910001,10.02105,0.07865,-0.367675,0.007425
1692594376157,0.37605003,0.65295005,11.25195,0.08965,-0.3867875,-0.058849998
1692594376185,0.33495003,0.81795,10.852051,0.1189375,-0.339075,-0.17875
1692594376216,0.064950004,1.1550001,9.77505,0.071225,-0.2990625,-0.1643125
1692594376245,0.01695,1.0360501,9.82995,-2.75E-4,-0.2641375,-0.1194875
1692594376274,0.075,0.45600003,10.52595,-0.0554125,-0.1885125,-0.09515
1692594376302,-0.05595,0.46395,10.242001,-0.036025,-0.0947375,-0.127325
1692594376330,-0.14205001,0.64605004,9.76305,-0.0639375,-0.0545875,-0.08965
1692594376360,-0.058050003,0.83895004,9.0070505,-0.1071125,-0.02035,-0.0144375
1692594376390,0.20895001,0.87105006,9.021001,-0.1307625,0.03795,0.1065625
1692594376419,0.40995002,0.82305,9.229051,-0.0567875,0.0496375,0.0968
1692594376447,0.13695,1.1029501,9.34605,-0.0204875,0.0292875,0.081675
1692594376474,-0.12105001,1.4760001,8.962951,0.0067375,-5.5E-4,0.060225
1692594376505,0.13905,1.3780501,8.746051,0.06875,-0.042075,-0.0039875
1692594376533,0.32805002,1.1389501,9.483001,0.1183875,-0.0411125,-0.0328625
1692594376563,0.33795002,0.98505,9.688951,0.2024,-0.0356125,-0.049225
1692594376592,0.17505,1.266,9.3820505,0.1991,-0.0451,-0.0286
1692594376620,-0.01305,1.5700501,8.875051,0.12979999,-0.069025,-0.0259875
1692594376651,-0.19695,1.6870501,8.403001,0.1142625,-0.070125,-0.069299996
1692594376679,-0.05595,1.5289501,8.64,0.1714625,-0.0389125,-0.236225
1692594376713,-0.14205001,1.7899501,8.487,0.2162875,-0.0144375,-0.3337125
1692594376741,-0.06795,2.4790502,8.06295,0.264,0.0254375,-0.4574625
1692594376769,0.23700002,3.0319502,7.9219503,0.28325,0.028324999,-0.5138375
1692594376799,0.762,2.8980002,7.5850506,0.4327125,-0.0320375,-0.751025
1692594376825,0.795,2.9550002,8.121,0.5542625,-0.1056,-0.87395
1692594376855,1.1730001,2.83095,8.75805,0.6578,-0.2055625,-0.922075
1692594376885,0.66105,2.6200502,8.391001,0.7068875,-0.408925,-0.76876247
1692594376915,1.01505,1.57395,8.202001,0.65835,-0.4695625,-0.6392375
1692594376944,1.302,0.92595005,8.607,0.583275,-0.4866125,-0.5203
1692594376974,0.09105001,0.24300002,9.10005,0.33495,-0.40315,-0.2132625
1692594377003,0.19395001,-0.522,9.318001,-0.113025,-0.186175,0.365475
1692594377028,-0.91995007,-0.33195,6.84705,-0.3636875,-0.0191125,0.702075
1692594377056,-0.96300006,-0.39900002,8.32905,-0.5894625,0.164725,1.0533875
1692594377086,0.40995002,-2.0770502,12.766951,-0.8600625,0.3782625,1.6465625
1692594377116,0.177,-1.8280501,10.404,-0.9274375,0.3095125,1.8863624
1692594377147,-0.76905006,-1.71405,10.876051,-1.158025,0.41593748,2.65815
1692594377186,-0.19500001,-2.4049501,12.36705,-1.2859,0.3254625,3.2025125
1692594377210,-0.34305,-2.286,11.34,-1.2544125,0.3070375,3.2313874
1692594377236,-1.09695,-2.0770502,11.331,-1.2035375,0.2827,3.1735
1692594377268,-1.06605,-2.085,12.322051,-1.073875,0.1780625,2.8555999
1692594377294,-0.64500004,-2.04405,12.943951,-0.97955,0.1626625,2.6664
1692594377322,-0.68295,-1.11,12.013051,-0.86913747,0.1771,2.4828374
1692594377350,-0.87195003,0.0,10.858951,-0.6232875,0.17613749,1.9009374
1692594377381,-0.74805003,0.71295005,11.23305,-0.2679875,0.149325,0.978725
1692594377409,-0.72900003,1.27995,10.986,-0.0407,0.1656875,0.4830375
1692594377439,-0.68295,1.2220501,11.482051,0.1948375,0.1920875,-0.0056375
1692594377467,-0.42705002,0.57105005,12.109051,0.60445,0.2077625,-0.8625375
1692594377495,-0.46995002,0.53295004,12.063001,0.73562497,0.1841125,-1.1626999
1692594377535,0.37605003,0.15495001,12.81,0.75941247,0.0919875,-1.3685375
1692594377562,0.22500001,0.66195005,11.629951,0.568425,-0.0075625,-1.1928124
1692594377595,-0.010950001,0.85395,11.173051,0.4659875,-0.0730125,-1.0580626
1692594377619,0.522,0.47805002,11.60595,0.38665,-0.14905,-0.9277125
1692594377645,0.89595,-0.72,13.429951,0.3249125,-0.23265,-0.692175
1692594377678,-0.91800004,-0.67005,14.107051,0.205425,-0.2718375,-0.297275
1692594377704,-1.0570501,-0.73905003,14.196001,0.0666875,-0.28545,-0.022
1692594377739,-0.78405005,-1.029,14.41905,-0.191125,-0.1447875,0.389675
1692594377769,-1.5280501,-0.51705,13.774951,-0.2633125,-0.0328625,0.47355
1692594377796,-1.7410501,-0.41400003,12.496051,-0.303325,0.1326875,0.400125
1692594377822,-0.97005004,-1.1370001,11.674951,-0.264825,0.2209625,0.287925
1692594377847,-0.22605,-2.0029502,11.845051,-0.2088625,0.3091,0.20927499
1692594377876,-0.40800002,-2.11305,11.986951,-0.1813625,0.3542,0.2300375
1692594377906,-0.80100006,-1.79295,11.23995,-0.319,0.230725,0.61545
1692594377936,-0.58005005,-1.59105,9.61905,-0.434775,0.1192125,0.857175
1692594377961,-0.537,-1.5700501,10.4740505,-0.540375,-0.0116875,1.0561374
1692594377991,-2.21805,-0.39195,9.64305,-0.5198875,-0.0306625,1.0036125
1692594378030,-1.473,0.19995001,8.743051,-0.4081,-0.0143,0.804925
1692594378054,0.35505003,-1.2400501,9.4800005,-0.29205,0.0842875,0.6854375
1692594378082,0.702,-1.3039501,9.02295,8.25E-4,0.32615,0.3619
1692594378111,1.8169501,-0.57705003,8.20005,0.0490875,0.25795,0.20295
1692594378137,1.7070001,0.80595005,8.451,0.01595,0.0515625,0.0506
1692594378169,0.45495003,2.4859502,6.0529504,0.0121,-0.381975,-0.518375
1692594378194,0.087000005,2.67105,4.16895,0.1672,-0.49981248,-1.023
1692594378222,0.83805007,2.151,4.86105,0.7401625,-0.477125,-2.2215874
1692594378251,0.84495,1.8019501,5.4880505,1.0280875,-0.4015,-2.7264874
1692594378278,-0.37695003,2.01,6.189,0.2013,-0.0891,-3.0124874
1692594378310,0.028950002,1.3560001,7.1320505,-0.2124375,0.0182875,-2.8087125
1692594378338,1.5679501,-0.16995001,8.32695,0.12815,-0.04455,-2.375175
1692594378364,1.1710501,-0.16995001,10.14795,0.2264625,-0.0848375,-2.0986624
1692594378394,-0.147,0.63600004,9.942,0.125125,-0.1722875,-1.6193374
1692594378422,-0.94200003,1.35195,8.08005,-0.104225,-0.29315,-1.029325
1692594378453,0.50295,0.61005,9.45705,-0.42734998,-0.3026375,-0.3848625
1692594378483,2.0370002,-0.53595,12.343051,-0.280225,-0.0323125,-0.5674625
1692594378514,0.771,-0.63405,10.67205,-0.229075,-0.011275,-0.5467
1692594378538,0.18,-0.44700003,11.28495,-0.2926,-0.1013375,-0.3355
1692594378570,0.63495004,-0.37305,11.47395,-0.5372125,-0.269225,0.1265
1692594378598,0.22095,-0.016050002,10.555051,-0.5894625,-0.220275,0.1929125
1692594378628,-0.28605002,-0.00405,9.0709505,-0.5308875,-0.0286,0.1115125
1692594378656,-0.23295002,-0.40905002,9.38895,-0.45155,0.043725,0.0232375
1692594378686,0.23505001,-0.72495,9.837001,-0.28861248,0.1764125,-0.1882375
1692594378715,0.59400004,-0.91200006,10.014001,-0.249425,0.2294875,-0.2545125
1692594378746,0.15795001,-0.57405,9.394051,-0.2915,0.20955,-0.190575
1692594378771,-0.37905002,-0.08805001,8.920051,-0.3339875,0.1445125,-0.09405
1692594378801,-0.28095,-0.25800002,9.72,-0.3221625,0.0749375,0.0515625
1692594378826,0.028950002,-0.73695004,10.677,-0.2512125,0.110275,0.0372625
1692594378859,-0.23805001,-0.55695003,10.359,-0.1126125,0.203775,-0.0741125
1692594378895,-0.34605002,-0.423,9.865951,-0.0972125,0.20735,-0.0815375
1692594378923,-0.09900001,-0.70095,10.1959505,-0.1082125,0.186725,-0.034925
1692594378946,-0.40305,-0.72300005,10.09605,-0.103125,0.1879625,0.002475
1692594378974,-0.60195005,-0.648,9.81105,-0.10175,0.1854875,0.0539
1692594379003,-0.61095005,-0.32505003,9.17205,-0.1260875,0.175175,0.075075
1692594379027,-0.49695003,-0.177,8.68095,-0.129525,0.1887875,0.027775
1692594379058,-0.312,-0.079050004,8.88405,-0.0699875,0.2242625,-0.0878625
1692594379088,-0.35505003,-0.049950004,9.625951,-0.014575,0.2220625,-0.149875
1692594379112,-0.31905,0.076050006,9.64305,0.042075,0.2008875,-0.199925
1692594379144,-0.23805001,0.60495,9.391951,0.127875,0.122925,-0.22687499
1692594379171,0.10605001,0.87495005,9.4129505,0.1654125,0.086625,-0.2189
1692594379204,0.010050001,1.014,9.2029505,0.2836625,0.0257125,-0.2756875
1692594379255,-0.33900002,0.51405,9.80805,0.4230875,-0.0617375,-0.4015
1692594379281,0.075,0.076050006,11.07705,0.4610375,-0.086075,-0.432025
1692594379301,0.19905001,0.124050006,10.345051,0.41415,-0.055275,-0.4538875
1692594379323,-0.39105,0.72495,9.186001,0.3205125,-0.045925,-0.3870625
1692594379349,-0.26895002,1.1389501,8.797951,0.21175,-0.05555,-0.2376
1692594379374,-0.13995,1.2540001,8.616,0.14025,-0.06435,-0.0867625
1692594379406,-0.23295002,1.4830501,8.77005,0.1978625,-0.0308,-0.091575
1692594379437,-0.36195,1.7490001,8.00805,0.358875,-0.0012375,-0.3730375
1692594379466,-0.36495003,1.83,7.80705,0.4274875,-0.0017875,-0.5317125
1692594379491,-0.31905,1.8760501,7.6590004,0.4871625,-0.0048125,-0.67553747
1692594379518,-0.21195,1.7320501,8.29605,0.583,-0.0053625,-0.853875
1692594379544,0.00795,1.40205,8.346001,0.609125,-0.00825,-0.8668
1692594379574,-0.21195,1.2750001,8.938951,0.60225,-0.0166375,-0.804375
1692594379600,-0.65205,1.4089501,8.488951,0.4598,-0.0367125,-0.4489375
1692594379627,-1.50705,1.5700501,7.3020005,0.3518625,-0.028875,-0.2374625
1692594379656,-1.3729501,0.777,8.15205,0.258775,0.009625,-0.0946
1692594379680,-0.70500004,-0.37605003,9.753,0.1678875,0.1992375,-0.10615
1692594379709,0.14205001,-1.8520501,11.41005,0.0941875,0.3179,-0.0818125
1692594379738,-0.42495003,-2.1420002,9.18105,-0.429,0.427625,0.8261
1692594379770,-0.37905002,-2.3790002,11.39805,-0.83435,0.3834875,1.6856124
1692594379798,-0.0010500001,-1.9789501,12.949051,-1.437975,0.1907125,3.175425
1692594379827,-0.027,-0.80895007,10.07205,-1.54825,0.0823625,3.5597374
1692594379856,-0.39795002,-0.46395,8.93505,-1.5247375,-0.028875,3.64375
1692594379883,0.20400001,-1.08405,11.391001,-1.1192499,-0.1832875,2.9288874
1692594379912,0.44295,-1.09095,12.06795,-0.8507125,-0.2050125,2.391125
1692594379941,0.22800002,-0.54300004,10.488001,-0.47547498,-0.2410375,1.6083375
1692594379974,-0.75000006,0.19995001,9.595051,-0.3647875,-0.27981248,1.3552
1692594379998,0.14400001,-0.060000002,10.266001,-0.2673,-0.301675,1.1237875
1692594380025,0.48900002,-0.42105,10.998,-0.058575,-0.220825,0.7126625
1692594380052,0.23295002,-0.42600003,11.58405,0.036849998,-0.1703625,0.5786
1692594380079,-0.126,-0.21495001,11.07705,0.098725,-0.1568875,0.5099875
1692594380109,-0.16905001,0.20805001,10.73505,0.1197625,-0.1766875,0.46048748
1692594380135,0.36900002,0.22005,11.43795,0.123475,-0.1505625,0.3733125
1692594380170,-0.16395001,0.13305001,11.962951,0.1854875,-0.060225,0.013062499
1692594380195,-0.17805001,0.117000006,11.7640505,0.2234375,-0.040425,-0.1535875
1692594380223,0.37095,-0.049950004,10.993051,0.2495625,-0.01595,-0.2935625
1692594380252,0.45495003,-0.20595,11.27595,0.236225,0.0033,-0.3075875
1692594380282,0.582,-0.16695,11.470051,0.2099625,0.0056375,-0.3147375
1692594380313,0.49095002,0.093,10.549951,0.132275,-0.062425,-0.3141875
1692594380340,-0.13305001,0.342,9.837001,0.0719125,-0.132275,-0.3246375
1692594380367,0.32595003,0.124050006,11.470051,0.075625,-0.133375,-0.3378375
1692594380394,0.52005005,0.61005,11.380951,0.094875,-0.1057375,-0.3361875
1692594380420,-0.231,0.44895002,9.22395,0.119625,-0.0446875,-0.2706
1692594380448,0.23295002,-0.43500003,11.74995,0.133925,-0.0408375,-0.2223375
1692594380479,0.74505,-0.72300005,13.899001,0.1518,-0.00825,-0.1126125
1692594380506,0.20595,-0.45195,12.007951,0.097075,0.01045,-0.016775
1692594380535,0.28995,-1.194,12.0060005,0.0012375,0.003575,0.1023
1692594380561,1.2930001,-2.0650501,14.93595,-0.174625,-0.036849998,0.2726625
1692594380589,-0.17595,-1.5679501,15.187051,-0.24805,-0.0485375,0.379775
1692594380624,-1.3219501,-1.05795,12.148951,-0.411125,-0.0985875,0.77288747
1692594380660,-0.87495005,-1.3399501,11.170051,-0.4250125,0.0226875,0.9026875
1692594380684,-1.1740501,-1.7490001,12.23295,-0.37867498,0.15675,0.855525
1692594380716,-0.58005005,-2.874,11.311951,-0.3381125,0.2630375,0.798325
1692594380744,0.9480001,-3.6480002,11.170051,-0.3471875,0.312675,0.7874625
1692594380779,0.19695,-2.367,12.121051,-0.5583875,0.1412125,1.044175
1692594380804,-1.69605,-0.66,9.724951,-0.67595,-0.013062499,1.1136125
1692594380842,-1.8010501,-0.57195,6.9859505,-0.61036247,-0.11165,0.768075
1692594380861,-1.332,-0.97605,8.190001,-0.41525,0.0413875,0.4481125
1692594380890,-0.95895004,0.0139500005,10.33695,-0.1953875,0.2607,0.1354375
1692594380917,-0.17595,1.1839501,9.262951,0.1395625,0.546425,-0.469425
1692594380944,0.35505003,2.496,8.272051,0.30085,0.5599,-0.8922375
1692594380971,0.079050004,2.9989502,7.22805,0.5148,0.50888747,-1.4537874
1692594381005,-2.8900502,2.87895,5.41095,1.0825375,0.27101249,-2.7332249
1692594381033,-2.29395,1.6870501,6.9340506,1.3605624,0.1568875,-3.215575
1692594381060,-0.52995,0.48000002,8.217,1.583175,0.14135,-3.5074875
1692594381087,0.20895001,0.186,6.91695,1.68025,0.385,-3.4408
1692594381117,-0.59895,0.71295005,6.90705,1.0236875,0.293975,-2.0307374
1692594381141,-1.08105,1.1410501,6.2899504,0.623975,0.1040875,-1.2166
1692594381168,-1.5829501,0.693,5.95905,0.36355,-0.0323125,-0.7082625
1692594381196,-0.59895,0.17205001,9.77505,0.254375,-0.0504625,-0.5245625
1692594381225,0.43605003,0.13605,10.80195,0.2094125,0.1406625,-0.5300625
1692594381254,-1.2390001,1.6030501,8.451,0.1115125,0.1783375,-0.38005
1692594381282,-2.1460502,2.12505,7.9870505,-0.1093125,-0.0273625,0.0433125
1692594381315,-1.6309501,1.3420501,10.61295,-0.0405625,-0.0878625,-0.0748
1692594381342,-1.16205,1.07895,10.419001,0.33467498,0.0906125,-0.81427497
1692594381371,-1.4779501,1.38495,9.097051,0.4250125,0.1764125,-1.012825
1692594381395,-1.5660001,1.266,8.950951,0.300025,0.1557875,-0.7610625
1692594381426,-1.1719501,0.67395,10.111951,0.300025,0.1557875,-0.7610625
1692594381453,-0.26895002,0.19095,10.60095,0.17325,0.119075,-0.4274875
1692594381483,-0.55905,0.82995003,9.460951,-0.0455125,0.0463375,-0.01705
1692594381512,-1.7770501,1.7010001,8.644951,-0.205425,-0.047025,0.2611125
1692594381541,-1.9950001,1.7299501,9.09,-0.3009875,-0.1408,0.434225
1692594381568,-0.86505,0.84900004,10.383,-0.1414875,-0.1340625,0.167475
1692594381598,-0.21405001,0.85095006,10.1629505,0.14575,0.0356125,-0.3601125
1692594381632,0.058050003,1.19895,8.88405,0.154,0.0334125,-0.3757875
1692594381667,-0.09195001,1.1869501,9.141001,0.08745,-0.0444125,-0.240625
1692594381709,-0.312,1.3920001,9.339001,0.0114124995,-0.32065,0.0977625
1692594381773,-0.51600003,1.7830501,8.146951,0.0493625,-0.3372875,0.1309
1692594381839,0.94095004,0.67905,10.5720005,0.248325,-0.2105125,-0.33673748
1692594381871,0.261,1.5139501,8.887051,0.113299996,-0.2481875,-0.061325
1692594381904,-0.034950003,1.6099501,8.793,-0.1313125,-0.385825,0.4536125
1692594381943,-0.57600003,1.5979501,9.741,-0.0276375,-0.3663,0.2492875
1692594381978,-0.27600002,1.2730501,8.920051,0.121275,-0.19813749,-0.0540375
1692594382015,0.28500003,0.80100006,9.64605,0.14575,-0.10285,-0.1299375
1692594382048,0.028950002,0.92295,9.258,0.090475,-0.0048125,-0.1599125
1692594382081,-0.41505003,1.146,8.712001,-0.065725,-0.0441375,0.0735625
1692594382096,-0.44400004,1.16295,8.841001,-0.065725,-0.0441375,0.0735625
1692594382131,-0.57600003,1.5259501,8.7289505,-0.1247125,-0.0235125,0.192225
1692594382159,-0.81000006,2.4550502,8.20005,-0.0430375,0.0605,-0.1122
1692594382187,-0.56100005,3.6109502,7.5780005,0.0358875,0.0829125,-0.3526875
1692594382215,0.82905006,3.6780002,6.93795,0.16445,0.0928125,-0.622875
1692594382243,1.12995,2.742,8.13795,0.6257625,0.003575,-1.1754875
1692594382270,0.9979501,1.8970501,9.849001,0.86501247,-0.14245,-1.2695374
1692594382298,0.93900007,1.3609501,10.00695,0.9147875,-0.440825,-0.7440125
1692594382325,0.99600005,1.21305,8.607,0.689975,-0.4717625,-0.2765125
1692594382352,0.18195,0.56895,7.15395,0.3953125,-0.4266625,0.16775
1692594382380,-0.37695003,-0.42795002,10.158001,-0.077275,-0.26235,0.72421247
1692594382410,-1.713,-1.2199501,10.390051,-0.2457125,-0.135575,0.889625
1692594382436,-2.5410001,-1.05795,8.32905,-0.438075,0.054175,1.1
1692594382464,-0.147,-1.9530001,9.208051,-0.9163,0.5828625,1.7341499
1692594382499,-0.19305001,-1.8739501,11.842951,-1.2244375,0.9612625,2.4336126
1692594382527,-1.1719501,-1.065,9.7890005,-1.3228875,0.9042,2.8411624
1692594382554,-0.69000006,-0.98805004,9.033,-1.3919125,0.697675,3.1706126
1692594382581,-0.46095002,-1.5289501,10.596001,-1.2705,0.3317875,3.1158874
1692594382606,-1.7680501,-1.2559501,10.585951,-1.1045375,0.25795,2.8598626
1692594382632,-2.6920502,-0.91200006,10.522051,-0.95507497,0.2050125,2.62625
1692594382661,-1.5499501,-1.5799501,11.769001,-0.754875,0.2077625,2.266825
1692594382688,-0.26700002,-1.9099501,12.310051,-0.66055,0.2894375,2.0767999
1692594382715,-0.54195005,-1.4599501,12.04905,-0.577775,0.3510375,1.8808625
1692594382744,-0.93495005,-0.94500005,11.701951,-0.506275,0.194425,1.4782625
1692594382774,-0.31695002,-0.81795,12.1369505,-0.46667498,0.047575,1.2623875
1692594382803,-0.38895002,-0.12195001,12.010951,-0.26015,-0.105875,0.7359
1692594382830,-0.94395006,0.43305,11.319,-0.12045,-0.12925,0.352825
1692594382856,-0.52500004,0.28905,11.533951,0.022824999,-0.142175,-0.088825
1692594382883,-0.68295,0.25095,11.424001,0.29755,-0.1051875,-0.8184
1692594382919,-0.51795,0.025950002,12.99705,0.4013625,-0.06765,-1.0198375
1692594382928,-0.30495003,-0.27,13.159051,0.461725,-0.04455,-1.11265
1692594382965,-1.0900501,-0.08295,11.14605,0.456225,-0.0419375,-1.036475
1692594382996,-1.11195,-0.79695004,11.27295,0.3422375,-0.0246125,-0.78155
1692594383025,-1.2550501,-1.7850001,13.5400505,0.2682625,0.0191125,-0.643775
1692594383051,-1.0210501,-2.45295,14.611951,0.1764125,0.0757625,-0.4926625
1692594383081,-0.93705004,-1.7209501,13.23795,-0.122375,0.1302125,-0.0584375
1692594383107,-1.0540501,-1.1340001,13.399051,-0.28875,0.1104125,0.16005
1692594383134,-1.2790501,-0.96000004,13.38405,-0.39833748,0.0768625,0.2919125
1692594383164,-1.626,-1.43805,13.48305,-0.368775,0.0422125,0.2627625
1692594383193,-0.75705004,-2.4390001,12.891001,-0.2789875,0.0539,0.172425
1692594383217,-0.76905006,-2.6209502,12.8550005,-0.203225,0.0754875,0.104775
1692594383248,-1.8919501,-2.4100502,11.814,-0.24035,0.0743875,0.2325125
1692594383275,-1.0999501,-2.7520502,11.494051,-0.335225,0.044,0.4074125
1692594383314,-0.906,-2.1660001,10.354051,-0.4855125,0.038775,0.73095
1692594383339,-1.38495,-1.383,9.76305,-0.5410625,0.0116875,0.9222125
1692594383363,-1.5190501,-1.3230001,8.14005,-0.5245625,-0.0287375,0.9101125
1692594383389,-0.84105,-1.23,7.7239504,-0.4588375,-0.0375375,0.785675
1692594383417,-1.0710001,-0.31800002,7.9960504,-0.3565375,-0.0048125,0.577775
1692594383443,-0.17805001,0.29595003,6.0360003,-0.1502875,0.0891,0.1464375
1692594383471,0.984,-0.63405,9.081,-0.0254375,0.1219625,-0.091437496
1692594383499,1.04595,-0.112050004,9.89505,0.1472625,0.1375,-0.407275
1692594383526,0.156,1.0170001,10.14105,0.512325,-0.022,-1.203125
1692594383554,-2.3779502,2.53695,7.0129504,0.619025,-0.2006125,-1.5417875
1692594383582,-0.97800004,2.1750002,4.12605,0.8151,-0.319,-2.0394
1692594383612,0.9979501,0.69795,6.3739505,0.99165,-0.1491875,-2.3337874
1692594383639,1.0680001,1.182,7.8169503,1.3135375,0.142175,-2.8931375
1692594383667,1.8360001,0.92100006,7.6090503,1.30625,0.0251625,-2.8457
1692594383694,2.5900502,0.507,7.9249506,1.177,-0.22605,-2.53715
1692594383721,1.26195,0.68100005,8.298,0.8006625,-0.7799,-1.6911125
1692594383751,0.120000005,1.3230001,8.073,0.6131125,-0.99715,-1.2577125
1692594383776,-0.171,2.0269501,8.466001,0.4478375,-1.0934,-0.877525
1692594383803,-0.61905,2.17995,7.7089505,0.29273748,-0.7855375,-0.608025
1692594383830,-0.22395001,1.6150501,9.50895,0.3322,-0.4943125,-0.7541875
1692594383859,1.5829501,0.18795002,11.57205,0.4860625,-0.0254375,-1.1823624
1692594383890,0.81195,0.41295,10.074,0.4607625,0.078099996,-1.1759
1692594383915,-0.30705002,0.684,8.82495,0.3136375,0.0721875,-0.9059875
1692594383943,0.055050004,0.21000001,10.515,-0.075075,-0.06325,-0.1824625
1692594383971,0.53895,-0.012,11.24205,-0.170225,-0.0325875,-0.0562375
1692594384001,0.402,0.17595,9.877951,-0.254375,0.1450625,-0.022275
1692594384029,0.558,0.42495003,10.3279505,-0.3102,0.1628,0.0561
1692594384055,0.273,0.49995002,9.448951,-0.3526875,0.1309,0.128425
1692594384084,-0.40995002,-0.462,9.74895,-0.31075,0.0561,0.0878625
1692594384115,0.69900006,-1.5169501,11.641951,-0.257675,0.047025,0.035475
1692594384141,0.726,-1.1560501,10.96905,-0.3003,0.1021625,0.1736625
1692594384166,0.30705002,-0.53595,9.378,-0.4302375,0.109037496,0.4291375
1692594384195,-0.058050003,-0.15300001,8.83905,-0.5625125,0.070675,0.69685
1692594384223,-0.36705002,0.052050002,9.21,-0.5786,-0.0121,0.804925
1692594384260,-0.17595,-0.23700002,9.54705,-0.3323375,0.062975,0.4602125
1692594384286,0.15795001,-0.16995001,9.688951,-0.2151875,0.12773749,0.2611125
1692594384312,0.22500001,0.04695,9.306001,-0.13365,0.1739375,0.0985875
1692594384344,0.60795003,0.042000003,9.52095,-0.054725,0.154275,-0.037125
1692594384367,0.651,0.093,9.889951,-0.0215875,0.103125,-0.0435875
1692594384401,0.22305001,0.20805001,10.18395,0.0490875,-0.0218625,-0.0400125
1692594384426,-0.12105001,0.14805001,9.82005,0.073425,-0.0743875,-0.0438625
1692594384454,0.24900001,-0.12900001,10.12695,0.09075,-0.0952875,-0.0792
1692594384480,0.44805002,-0.33195,10.1650505,0.102437496,-0.0295625,-0.2453
1692594384509,0.18705001,-0.14805001,9.82995,0.082225,0.0056375,-0.2613875
1692594384536,-0.10605001,0.117000006,9.526051,-0.004125,-1.375E-4,-0.0785125
1692594384563,-0.18795002,0.25800002,9.375,-0.032449998,-0.001925,-0.0356125
1692594384608,-0.24795002,0.33195,9.150001,1.375E-4,0.0622875,-0.1859
1692594384644,-0.08205,0.26295,9.33195,0.0834625,0.1348875,-0.31501248
1692594384676,0.02205,0.32505003,9.81105,0.109725,0.148775,-0.3146
1692594384690,0.08400001,0.47805002,9.660001,0.11935,0.1472625,-0.2910875
1692594384712,0.13905,0.75600004,9.16695,0.117975,0.1331,-0.2638625
1692594384738,0.35205,1.1220001,9.234,0.1307625,0.07645,-0.258225
1692594384761,0.109950006,1.4860501,8.96805,0.168025,0.0383625,-0.2915
1692594384788,-0.42195,1.761,8.587951,0.168025,0.0383625,-0.2915
1692594384813,-0.597,1.5649501,8.2879505,0.3158375,-0.02475,-0.4800125
1692594384844,0.109950006,0.957,9.48795,0.5086125,0.0248875,-0.850025
1692594384873,0.34500003,0.79395,8.911051,0.5619625,0.078375,-0.95425
1692594384896,-0.14505,1.14795,8.379001,0.464475,0.0705375,-0.735075
1692594384925,-0.54,1.3560001,8.343,0.3586,0.01265,-0.52085
1692594384955,-0.60195005,1.4260501,8.63595,0.2415875,-0.0224125,-0.30827498
1692594384983,-0.40305,1.2540001,8.941951,0.2448875,0.0306625,-0.3432
1692594385009,-0.90795004,1.5139501,8.3220005,0.26235,0.102025,-0.40755
1692594385036,-1.1839501,1.65795,7.3669505,0.27307498,0.1601875,-0.4514125
1692594385065,-1.11405,1.014,7.3570504,0.2888875,0.2242625,-0.554125
1692594385094,-1.167,-0.31800002,8.65005,0.310475,0.26015,-0.6395125
1692594385121,0.64905006,-1.3470001,11.60805,0.2035,0.360525,-0.46667498
1692594385149,1.74495,-1.5010501,8.169001,-0.0457875,0.38885,0.018975
1692594385178,0.80205005,-1.6540501,6.0600004,-0.4125,0.32395,0.8045125
1692594385208,1.3579501,-2.64,11.55105,-1.028775,-0.1511125,2.3731124
1692594385234,1.8409501,-3.21705,14.458951,-1.1631125,-0.3771625,2.7566
1692594385261,1.161,-2.697,10.90005,-1.2934625,-0.592625,3.0633626
1692594385289,-0.24300002,-1.6350001,9.27,-1.3083125,-0.6716875,3.0965
1692594385315,0.35700002,-1.9429501,11.332951,-1.2617,-0.7126625,3.0086374
1692594385347,0.771,-2.0989501,12.361951,-0.9977,-0.5445,2.557775
1692594385373,0.52695,-1.5630001,10.76805,-0.82225,-0.4065875,2.2589874
1692594385406,0.13905,-1.00695,9.861,-0.50545,-0.24255,1.5621375
1692594385432,1.056,-1.4239501,11.37405,-0.3774375,-0.19373749,1.2137125
1692594385462,0.89295006,-1.43295,12.07995,-0.1551,-0.0968,0.5996375
1692594385489,0.40500003,-1.1010001,12.166051,-0.0724625,-0.077275,0.36025
1692594385517,-0.09195001,-0.35205,11.350051,0.0215875,-0.076175,0.06875
1692594385545,-0.44895002,-0.15795001,11.071951,0.068475,-0.037125,-0.033275
1692594385572,0.156,-0.56895,11.74995,0.1376375,0.0391875,-0.138875
1692594385601,0.55605,-0.92595005,12.279,0.3040125,0.21395,-0.3378375
1692594385628,0.69000006,-0.73695004,11.841001,0.3430625,0.2495625,-0.383625
1692594385656,0.55605,-0.88305,11.09895,0.285175,0.160875,-0.3575
1692594385684,0.50100005,-1.07895,11.689951,0.2294875,0.0851125,-0.324225
1692594385716,0.40005,-1.00695,11.635051,0.176825,0.0253,-0.2828375
1692594385734,0.37095,-0.67905,11.103001,0.1288375,-0.00935,-0.220275
1692594385766,0.32805002,0.0019500001,10.158001,0.0572,-0.02475,-0.040975
1692594385794,0.35895002,0.13605,10.203,0.0512875,-0.02035,0.0207625
1692594385821,0.312,-0.112050004,10.9810505,0.137225,-0.00165,-0.0281875
1692594385849,0.34995002,-0.18195,11.350051,0.2035,0.01045,-0.1150875
1692594385876,-0.102000006,-0.41895002,10.996051,0.251625,0.022275,-0.2044625
1692594385911,0.96300006,-1.6699501,12.73305,0.253825,0.0405625,-0.2811875
1692594385937,2.214,-1.9410001,13.789051,0.124575,0.020624999,-0.0037125
1692594385963,0.58695,-0.71295005,12.55395,-0.0075625,-0.057475,0.2563
1692594385989,-0.16605,-0.45900002,11.283001,-0.144375,-0.1727,0.4571875
1692594386020,0.21105,-0.98100007,11.74995,-0.2079,-0.238975,0.4120875
1692594386047,-0.40800002,-1.503,11.22795,-0.143275,-0.14739999,0.2820125
1692594386079,-0.41505003,-2.46495,12.69795,-0.0675125,0.050325,0.217525
1692594386102,0.064950004,-2.84805,12.979951,-0.100925,0.1247125,0.3223
1692594386129,-0.15705001,-2.3100002,11.637,-0.1799875,0.1821875,0.49225
1692594386157,0.24405001,-1.7350501,10.146001,-0.286825,0.20295,0.6774625
1692594386184,0.61305004,-2.2999501,8.865001,-0.4401375,0.13695,0.8182625
1692594386212,0.10095,-2.01,10.762951,-0.450725,0.088825,0.7434625
1692594386239,-0.34800002,-1.00695,10.036051,-0.42061248,-0.0081124995,0.5196125
1692594386269,-1.0180501,0.42105,6.5550003,-0.3779875,-0.02035,0.3675375
1692594386291,-0.537,0.6,4.80105,-0.2869625,0.0231,0.148225
1692594386322,0.61095005,-0.22005,7.55805,0.0347875,0.2204125,-0.42473748
1692594386349,1.98705,0.08805001,11.11305,0.2057,0.296725,-0.71555
1692594386379,2.5879502,0.73200005,8.64,0.4049375,0.1871375,-1.1642125
1692594386411,-1.593,1.5139501,4.49205,0.45595,-0.0270875,-1.3596
1692594386437,-2.42805,0.45600003,8.083051,0.513975,-0.2674375,-1.562
1692594386464,-1.2889501,-0.86100006,11.09895,0.6265875,-0.277475,-1.83755
1692594386526,-0.93495005,0.492,5.907,0.39214998,0.6098125,-1.484725
1692594386553,-1.22895,0.63405,7.5010505,0.2508,0.64295,-1.241625
1692594386578,-0.72195005,0.124050006,9.564,0.214775,0.571725,-1.1471624
1692594386614,-0.08205,0.18105,10.48095,0.285725,0.5570125,-1.2035375
1692594386640,-1.0639501,0.92805004,8.82495,0.317625,0.4181375,-1.1138875
1692594386664,-2.56695,0.78705,5.88,0.2825625,0.2919125,-0.99027497
1692594386692,0.441,-1.1370001,12.343051,0.2789875,0.2132625,-0.9359625
1692594386719,1.5970501,-1.43805,16.128,0.292325,0.3394875,-0.905025
1692594386748,-1.9780501,1.0690501,10.41195,0.14905,0.32381248,-0.5473875
1692594386777,-3.1630502,2.87205,7.8790503,-0.0719125,0.14465,-0.0023375
1692594386803,-1.0540501,1.6320001,9.95895,-0.0977625,-0.0243375,0.113575
1692594386834,-1.6480501,1.4119501,10.31295,0.176,0.1574375,-0.46254998
1692594386864,-1.5259501,1.2940501,9.066,0.69465,0.3997125,-1.4652
1692594386887,-0.65205,0.93795,8.949,0.7591375,0.3738625,-1.5752
1692594386918,-0.0010500001,0.33705002,9.399,0.64968747,0.2476375,-1.3888875
1692594386945,-0.52305,0.45405003,9.44205,0.5193375,0.1324125,-1.1053625
1692594386974,-0.777,0.58095,9.17895,0.3422375,-0.0081124995,-0.692175
1692594387003,-0.83895004,1.0380001,8.67105,0.030524999,-0.18259999,0.0675125
1692594387033,-0.48000002,1.23,8.121,-0.0308,-0.1808125,0.2121625
1692594387064,-0.16395001,0.90195006,9.066,0.0281875,-0.1243,0.0757625
1692594387094,0.50295,0.33195,10.510051,0.0999625,-0.1189375,-0.040425
1692594387122,-0.015000001,0.873,9.49695,0.119075,-0.1978625,0.0506
1692594387152,-0.38205,1.35405,8.620951,0.041249998,-0.26675,0.254925
1692594387186,-0.039,1.1029501,9.22395,-0.0279125,-0.32615,0.4145625
1692594387210,-0.20700002,1.0860001,9.162001,0.0270875,-0.2952125,0.30415
1692594387237,0.28005,0.59505004,9.531,0.1230625,-0.2176625,0.1461625
1692594387267,0.61305004,0.49995002,9.95205,0.1230625,-0.2176625,0.1461625
1692594387294,0.77805007,0.67695004,10.179001,0.0793375,-0.193325,0.2556125
1692594387324,-0.018000001,1.3729501,9.31995,-0.066,-0.2784375,0.5165875
1692594387353,-0.48195,1.6699501,9.0709505,-0.1071125,-0.33165,0.5548125
1692594387382,-0.57105005,1.9620001,9.535951,-0.0031625,-0.28105,0.1794375
1692594387409,-0.14505,1.89495,9.078,0.110825,-0.180125,-0.1175625
1692594387434,0.072000004,1.7869501,8.755051,0.224125,-0.076725,-0.359975
1692594387466,0.50805,1.4500501,8.58495,0.370425,0.0193875,-0.5501375
1692594387492,0.66300005,1.30095,8.82195,0.3878875,0.0023375,-0.495825
1692594387523,0.64395005,1.34895,8.679001,0.3130875,-0.106837496,-0.177925
1692594387549,0.65400004,1.31295,8.607,0.2446125,-0.1725625,-0.029424999
1692594387575,0.50805,1.6390501,9.02295,0.1783375,-0.22825,0.0616
1692594387605,0.37605003,1.641,9.14505,0.0911625,-0.278025,0.122925
1692594387631,0.53205,2.59905,9.303,0.0845625,-0.2739,0.0922625
1692594387662,-0.010950001,2.7949502,8.71395,0.1511125,-0.2343,-0.0702625
1692594387692,-0.65505004,2.8530002,8.03895,0.2179375,-0.2036375,-0.1665125
1692594387718,-0.25500003,2.7210002,8.095051,0.401775,-0.107525,-0.4978875
1692594387748,0.975,1.845,8.99205,0.489225,-0.046475,-0.7085375
1692594387773,1.2760501,1.5840001,10.383,0.5385875,6.875E-4,-0.8498875
1692594387801,0.66300005,2.22795,8.832001,0.40974998,-0.043175,-0.6513375
1692594387829,-1.0830001,0.73695004,7.017,0.2498375,-0.1181125,-0.34925
1692594387858,0.21105,-1.1220001,9.459001,-0.0221375,-0.108899996,0.12925
1692594387887,0.44295,-2.7880502,10.186951,-0.15015,0.02805,0.287375
1692594387916,-1.3609501,-1.89495,9.141001,-0.3795,0.2022625,0.6081625
1692594387944,-0.90105003,-2.14905,9.076051,-1.145925,0.4552625,1.9375125
1692594387975,0.61995006,-2.74005,10.653001,-1.4366,0.542575,2.5238125
1692594388000,-0.40995002,-1.9740001,10.203,-1.5996749,0.597575,3.015925
1692594388032,-1.7200501,-1.2280501,9.435,-1.578775,0.4767125,3.0795875
1692594388060,-1.0350001,-1.9240501,10.62495,-1.359875,0.2264625,2.853125
1692594388089,-0.95895004,-2.4120002,12.0730505,-1.1759,0.2261875,2.60205
1692594388123,-2.09295,-1.4770501,10.384951,-0.882475,0.2567125,2.1638374
1692594388151,-2.3400002,-0.67905,9.226951,-0.7957125,0.22893749,2.0092876
1692594388193,-0.38595003,-2.11095,11.857051,-0.5666375,0.27101249,1.65275
1692594388238,-1.3939501,-1.29495,12.42195,-0.318725,0.324775,1.252075
1692594388272,-1.00905,-0.555,10.215,-0.2833875,0.039049998,0.9282625
1692594388290,-0.83595,-0.39495003,11.175,-0.2462625,-0.0622875,0.7723375
1692594388312,-0.28800002,-0.42105,11.790001,-0.1420375,-0.0617375,0.6007375
1692594388353,-0.18495001,-0.57195,12.316951,0.1529,0.0089375,0.1568875
1692594388380,-0.98505,-0.44505003,12.018001,0.3535125,-0.0603625,-0.4126375
1692594388404,-0.73605,-0.94500005,11.865001,0.3950375,-0.0968,-0.6590375
1692594388430,-0.50895,-1.2709501,13.107,0.401775,-0.0979,-0.8218375
1692594388468,0.14595,-0.59805006,10.61295,0.31295,-0.050325,-0.86735
1692594388500,-0.09705,-0.56205004,12.097051,0.1122,-0.14355,-0.64405
1692594388526,0.28500003,-0.684,13.49205,0.05555,-0.196625,-0.5907
1692594388551,0.055050004,0.15705001,12.019951,0.06215,-0.21573749,-0.6293375
1692594388576,-0.027,0.91800004,11.304001,0.1639,-0.218625,-0.7414
1692594388601,1.812,-0.94500005,13.954051,0.2332,-0.2066625,-0.7918625
1692594388635,1.4749501,-1.7899501,17.44395,0.311025,-0.1879625,-0.87285
1692594388661,0.028950002,-1.797,16.132051,0.3510375,-0.2036375,-0.910525
1692594388687,-1.4989501,-2.187,11.30895,0.1648625,-0.361625,-0.6026625
1692594388715,-2.151,-3.1710002,9.67695,0.0086624995,-0.3674,-0.3892625
1692594388744,-4.05105,-4.13805,11.613001,-0.2462625,-0.069025,-0.023375
1692594388771,-4.6470003,-4.6860003,13.6050005,-0.392425,0.1513875,0.2723875
1692594388800,-2.2699502,-3.8080502,12.12495,-0.77605,0.3639625,1.2106875
1692594388830,-1.62405,-1.8139501,9.387,-0.94063747,0.1288375,1.6326749
1692594388861,-0.43695003,-1.2780001,6.9240003,-0.9659375,-0.0782375,1.5395875
1692594388889,0.91695005,-1.4449501,6.6990004,-0.792825,0.0339625,1.0910625
1692594388918,1.6279501,-1.0360501,7.9249506,-0.564025,0.0565125,0.625075
1692594388947,2.72895,-0.864,9.342,-0.197725,-0.1414875,-0.102025
1692594388975,3.1549501,-0.29700002,8.997001,-0.0606375,-0.3491125,-0.4505875
1692594389003,2.07795,0.43995002,7.9939504,0.21065,-0.802175,-1.1682
1692594389030,-0.264,0.87495005,8.832001,0.3344,-0.97185,-1.4981999
1692594389061,-0.666,2.2729502,10.9789505,0.4543,-1.029875,-1.774575
1692594389097,2.22195,1.4790001,7.4149504,0.74387497,-0.61105,-2.154625
1692594389122,2.7889502,1.014,4.7080503,1.0357875,-0.0518375,-2.4171126
1692594389146,2.1709502,0.45405003,6.07695,1.089825,-0.0972125,-2.3084874
1692594389175,1.161,-0.74895006,9.391951,1.0586125,-0.3359125,-1.9727125
1692594389199,1.7260501,-1.2900001,10.31805,0.782925,-0.773575,-1.0146124
1692594389229,1.72905,-1.0720501,9.226951,0.544775,-0.7678,-0.5148
1692594389257,1.2400501,0.14805001,5.7319503,0.2756875,-0.6474875,-0.0474375
1692594389289,0.08400001,0.78705,7.0219502,-0.1189375,-0.4173125,0.533775
1692594389315,0.24195,0.363,8.66205,-0.1612875,-0.3493875,0.54202497
1692594389341,0.32595003,-0.09105001,8.832001,0.0169125,-0.10945,0.1071125
1692594389369,0.558,-0.012,8.092051,0.1164625,0.073425,-0.1142625
1692594389396,0.59895,-0.055050004,8.950951,0.1544125,0.2297625,-0.20019999
1692594389424,0.70905006,-0.20805001,10.491,0.1109625,0.341,-0.0768625
1692594389453,0.795,0.030000001,9.688951,0.08085,0.3229875,0.01705
1692594389477,0.51000005,0.51195,9.097051,0.023924999,0.261525,0.1544125
1692594389506,-0.094050005,0.65805006,8.619,0.0132,0.231825,0.1452
1692594389535,-0.22395001,0.37005,9.744,0.034925,0.2080375,0.0565125
1692594389563,0.34995002,-0.17895001,11.182051,0.14739999,0.246675,-0.2143625
1692594389591,0.19695,0.14805001,10.45695,0.1769625,0.3064875,-0.272525
1692594389619,-0.022950001,0.483,9.483001,0.0966625,0.3444375,-0.1516625
1692594389654,-0.07305,0.010950001,9.892051,0.044,0.3111625,-0.080025
1692594389682,-0.48000002,-0.10005,10.716001,0.016224999,0.254375,-0.0864875
1692594389718,-0.9990001,1.2030001,8.83695,-0.0017875,0.2674375,-0.1194875
1692594389743,-2.3710501,-0.00405,6.02895,-0.0042625,0.30085,-0.109175
1692594389775,0.35700002,-2.1660001,13.176001,0.0202125,0.3551625,-0.117837496
1692594389801,0.61800003,-1.77795,15.076951,0.037125,0.4406875,-0.12155
1692594389836,-1.6380001,1.47405,7.2760506,-0.2204125,0.4995375,0.3147375
1692594389861,-1.164,1.66005,6.9889503,-0.4321625,0.2512125,0.6843375
1692594389887,-1.41795,1.2030001,9.804001,-0.2451625,0.2503875,0.33385
1692594389912,-1.93305,1.2870001,11.09595,0.051975,0.3339875,-0.212025
1692594389942,-1.5190501,1.266,10.26105,0.508475,0.45045,-0.9827125
1692594389971,-0.84795004,1.2970501,10.206,0.596475,0.47079998,-1.11815
1692594389998,-0.41505003,1.215,10.017,0.61654997,0.432575,-1.1892375
1692594390031,-0.015000001,1.098,9.64605,0.5795625,0.3366,-1.1169125
1692594390047,-0.16605,1.1050501,9.721951,0.5225,0.1969,-0.9615375
1692594390079,-0.36705002,1.1359501,9.700951,0.4565,0.045925,-0.7539125
1692594390107,-0.453,1.182,9.427951,0.3304125,-0.1703625,-0.3322
1692594390137,-0.90105003,1.5259501,8.57295,0.2407625,-0.20927499,-0.0988625
1692594390166,-0.73605,1.3879501,8.533051,0.22687499,-0.181775,-0.089375
1692594390196,-0.57105005,1.3369501,9.234,0.2396625,-0.1326875,-0.13695
1692594390222,-0.65895003,1.4239501,9.141001,0.2853125,-0.038225,-0.2921875
1692594390248,-0.86505,1.69395,8.290951,0.282975,-0.0265375,-0.368775
1692594390280,-0.92700005,2.08695,8.049001,0.2685375,-0.032725,-0.4456375
1692594390310,-0.231,2.079,7.9750504,0.29755,-0.0309375,-0.6164125
1692594390335,-0.49695003,2.22105,7.8310504,0.36107498,-0.022824999,-0.7101875
1692594390362,-1.0540501,2.45295,7.518,0.48675,-0.0713625,-0.8306375
1692594390396,-1.61205,2.4460502,7.9870505,0.5237375,-0.111925,-0.85085
1692594390423,-0.76005006,1.62195,9.061951,0.5907,-0.0699875,-0.9081875
1692594390452,0.039,1.0170001,8.25,0.5930375,0.006875,-0.89595
1692594390479,-0.74805003,1.005,6.7450504,0.3454,0.070125,-0.462275
1692594390509,-0.27405003,0.53805,8.29605,0.1293875,0.0380875,-0.091437496
1692594390537,-1.38495,-0.33,9.933001,-0.0631125,0.0088,0.2344375
1692594390570,-2.265,-0.021000002,11.524951,-0.3667125,0.0719125,0.7046875
1692594390600,-0.669,-0.591,7.3669505,-0.780725,0.3345375,1.27105
1692594390627,-0.74295,-1.31595,9.99705,-0.9548,0.4593875,1.5103
1692594390657,0.031050002,-1.5439501,13.21695,-1.1281875,0.4434375,1.9091874
1692594390685,0.10305001,-1.125,10.665001,-1.2137125,0.3075875,2.1781375
1692594390714,-0.77205,-0.81105006,8.6980505,-1.293325,0.1280125,2.4134
1692594390744,0.00795,-1.62495,11.710951,-1.2216874,-0.1648625,2.4041874
1692594390771,0.01695,-1.6009501,11.623051,-1.08185,-0.2237125,2.2347875
1692594390801,-0.03705,-1.25205,10.996051,-0.9510875,-0.25753748,2.0697875
1692594390832,-0.39795002,-0.70605004,9.34395,-0.79475,-0.33467498,1.782275
1692594390861,-0.26205,-1.3810501,10.91895,-0.713075,-0.3504875,1.6005
1692594390890,-0.79605,-1.43295,12.4800005,-0.486475,-0.28187498,1.1870375
1692594390919,-1.65495,-0.33195,11.316001,-0.3509,-0.1896125,0.9953625
1692594390945,-1.2270001,-0.15300001,10.210951,-0.305525,-0.12925,0.9337625
1692594390974,-0.49395,-0.79905003,10.5720005,-0.2250875,-0.0281875,0.79254997
1692594391004,-1.0570501,-0.76995003,11.545951,-0.1126125,0.091437496,0.553025
1692594391032,-1.4950501,-0.15495001,12.018001,0.056649998,0.205975,0.042625
1692594391061,-1.7820001,0.30795002,11.034,0.0961125,0.1953875,-0.194425
1692594391092,-2.163,0.53505003,10.311001,0.1379125,0.21505,-0.2795375
1692594391122,-1.6840501,0.040050004,10.996051,0.2982375,0.3199625,-0.477675
1692594391150,-0.822,0.00405,11.776051,0.3782625,0.37785,-0.586025
1692594391180,-1.131,-0.07395,9.271951,0.42061248,0.3697375,-0.7049625
1692594391207,-0.46995002,0.040050004,11.304001,0.381425,0.2899875,-0.6802125
1692594391237,-0.13695,-0.012,11.75205,0.278025,0.0842875,-0.581625
1692594391266,-0.08205,-0.021000002,11.359051,0.2352625,-0.0308,-0.5369375
1692594391293,-0.74505,-0.052050002,11.005051,0.198825,-0.150975,-0.4808375
1692594391323,-1.6309501,-0.89295006,13.003951,0.1315875,-0.302775,-0.323125
1692594391353,-1.50405,-1.7350501,14.557051,0.0930875,-0.2734875,-0.2338875
1692594391380,-1.0900501,-1.9699501,13.02795,0.0308,-0.17407499,-0.117425
1692594391413,-1.07805,-1.64205,12.325951,-0.22055,0.0290125,0.2761
1692594391441,-2.18205,-1.0860001,12.030001,-0.363275,0.0471625,0.48427498
1692594391469,-1.3969501,-1.8280501,10.716001,-0.4912875,0.0273625,0.6406125
1692594391499,-1.75995,-2.4769502,12.054001,-0.4307875,0.1150875,0.48345
1692594391525,-2.0689502,-2.39295,12.145051,-0.4307875,0.1150875,0.48345
1692594391554,-2.62695,-2.367,10.692,-0.4664,0.15015,0.5383125
1692594391582,-0.039,-3.7720501,12.4800005,-0.573375,0.2211,0.732875
1692594391611,0.097950004,-3.5110502,11.38605,-0.60335,0.2745875,0.7420875
1692594391642,-0.63495004,-2.7640502,9.942,-0.6876375,0.0787875,0.6554625
1692594391672,-0.666,-2.23095,8.78895,-0.722975,-0.12773749,0.60115
1692594391702,-1.1329501,-1.302,7.4050503,-0.6595875,-0.320925,0.43945
1692594391730,-0.89400005,-1.0390501,7.4770503,-0.5599,-0.280775,0.3007125
1692594391760,-0.01305,-0.46605003,10.57005,-0.42845,-0.19415,0.125675
1692594391787,0.51705,0.67005,8.7619505,-0.0977625,-0.013062499,-0.2842125
1692594391816,0.24405001,1.31805,8.037001,0.11935,0.012375,-0.5852
1692594391846,-1.3939501,1.23,7.2970505,0.6494125,-0.084975,-1.4586
1692594391875,-2.35605,0.034950003,9.33705,0.8932,-0.1150875,-1.8623
1692594391900,-2.00895,-0.32505003,8.568001,1.1441375,0.1299375,-2.2276375
1692594391929,-2.352,0.40605003,6.59595,1.0935374,0.359425,-2.173325
1692594391958,-1.9609501,0.528,7.00995,0.79667497,0.666875,-1.7840625
1692594391987,-1.5780001,0.33900002,8.059051,0.69905,0.73039997,-1.6115
1692594392017,-1.6669501,0.34605002,7.7310004,0.6598625,0.7536375,-1.480325
1692594392053,-1.99995,0.504,8.26395,0.592075,0.62975,-1.1446875
1692594392067,-1.9879501,0.39705002,8.65695,0.538175,0.517275,-0.9714375
1692594392109,-0.95895004,-0.21000001,9.757951,0.457325,0.358325,-0.788975
1692594392136,-0.55395,0.066,8.466001,0.4148375,0.3037375,-0.714175
1692594392164,-1.1190001,0.22695,7.4479504,0.2261875,0.077275,-0.3025
1692594392192,-1.251,-0.22005,10.3279505,0.110275,-0.0771375,-0.0056375
1692594392222,0.49800003,-0.89505005,11.25405,-0.0444125,-0.270875,0.39214998
1692594392251,-0.64005005,0.31500003,9.394051,-0.1142625,-0.340175,0.5050375
1692594392279,-1.38195,0.79395,9.220051,-0.1808125,-0.4346375,0.5836875
1692594392307,-1.07805,0.88500005,10.11705,-0.1458875,-0.5231875,0.4269375
1692594392337,-1.03005,0.85395,8.655001,-0.016775,-0.4236375,0.165275
1692594392370,-1.7839501,0.63600004,9.18105,0.2589125,-0.158125,-0.3465
1692594392395,-1.9729501,0.64605004,9.696,0.33275,-0.0851125,-0.4943125
1692594392425,-1.04205,0.33,10.57905,0.3628625,0.0592625,-0.6491375
1692594392454,-0.46995002,0.54,9.745951,0.329175,0.1332375,-0.6518875
1692594392485,-0.48000002,0.231,10.219951,0.198,0.0807125,-0.490875
1692594392518,-0.90300006,0.47805002,10.585951,0.063525,-0.145475,-0.1797125
1692594392543,-1.167,0.897,9.30105,0.0174625,-0.21133749,-0.04235
1692594392572,-0.83895004,0.80595005,9.859051,-1.375E-4,-0.2255,0.0218625
1692594392600,-0.45795003,0.52605003,10.11495,0.022,-0.1940125,-0.0086624995
1692594392628,-0.70005006,0.51195,9.415951,0.11605,-0.104499996,-0.1643125
1692594392656,-0.56595004,0.24795002,10.065001,0.1254,-0.1012,-0.1502875
1692594392685,-0.609,0.37500003,10.06005,0.065725,-0.13255,0.0105875
1692594392717,-0.83595,0.83205,8.65005,0.023924999,-0.13915,0.066
1692594392749,-0.69495004,1.0309501,8.41005,-0.013062499,-0.1265,0.0199375
1692594392776,-0.38895002,0.97605,8.66205,0.0242,-0.1018875,-0.0889625
1692594392803,-0.03195,0.768,9.064051,0.158675,-0.0583,-0.31735
1692594392832,0.034050003,0.88500005,8.50905,0.203225,-0.070125,-0.3485625
1692594392860,-0.171,1.0360501,9.129001,0.1967625,-0.1692625,-0.15853749
1692594392891,-0.21405001,1.1770501,9.49005,0.1733875,-0.22165,-0.0268125
1692594392918,-0.18795002,1.43295,8.76,0.161425,-0.2514875,0.040975
1692594392951,-0.23805001,1.5600001,8.26395,0.1846625,-0.246125,-0.0298375
1692594392979,-0.32700002,1.5460501,8.700001,0.21945,-0.2281125,-0.1120625
1692594393008,-0.21405001,2.0389502,9.10005,0.31295,-0.1848,-0.2454375
1692594393037,0.09105001,3.14505,7.6369505,0.3469125,-0.163625,-0.276925
1692594393067,0.37395,2.97495,8.439,0.4631,-0.1574375,-0.4065875
1692594393095,0.71805006,2.8570502,8.96595,0.5966125,-0.1962125,-0.5567375
1692594393125,0.67095006,2.604,9.265051,0.8355875,-0.3449875,-0.7517125
1692594393152,0.38805002,2.982,8.41005,0.8408125,-0.41387498,-0.6917625
1692594393180,0.54105,3.0030003,8.001,0.6903875,-0.454575,-0.426525
1692594393211,-0.324,1.69605,7.2520504,0.6210875,-0.425425,-0.3260125
1692594393236,0.052950002,-0.30600002,9.250951,0.5423,-0.309925,-0.2233
1692594393267,-0.49395,-0.88995004,10.63395,0.4134625,-0.19373749,-0.08525
1692594393296,-2.62695,-0.036000002,6.90705,0.13255,-0.020624999,0.2165625
1692594393325,-2.232,0.069000006,7.8840003,-0.26345,0.18755,0.6463875
1692594393353,0.012,-2.2810502,11.09595,-0.879175,0.6395125,1.2214125
1692594393383,-0.99405,-1.98405,10.62705,-1.142075,0.9307375,1.5277625
1692594393415,-1.6650001,-0.82800007,8.88195,-1.3663375,0.8674875,2.0614
1692594393446,-0.72900003,-1.314,10.504951,-1.6698,0.5935875,3.0014875
1692594393474,-0.06105,-1.7710501,10.98795,-1.580425,0.522225,3.007125
1692594393503,-0.57795,-1.24695,10.41405,-1.2375,0.3268375,2.682075
1692594393532,-1.0330501,-0.52395004,10.61295,-1.1133375,0.159775,2.5463624
1692594393561,-0.231,-1.1029501,11.047951,-0.84122497,-0.0528,2.0794125
1692594393588,0.35895002,-1.4670001,12.477,-0.66522497,-0.061875,1.745975
1692594393619,0.15795001,-0.89505005,12.823951,-0.5124625,-0.0768625,1.440725
1692594393648,0.51705,-0.25800002,12.766951,-0.3471875,-0.238975,1.0074625
1692594393677,0.28305,0.10695001,13.498951,-0.2721125,-0.31955,0.76559997
1692594393705,-0.231,0.24795002,12.666,-0.0312125,-0.3537875,0.1480875
1692594393735,-0.27405003,-0.08595,12.607051,0.0999625,-0.329175,-0.1188
1692594393764,-0.609,-0.097950004,12.183001,0.28215,-0.21285,-0.4873
1692594393792,-1.3609501,0.13095,10.830001,0.3106125,-0.13695,-0.6043125
1692594393825,-0.91995007,-0.105000004,10.893001,0.27775,0.0196625,-0.670725
1692594393853,-0.91995007,-0.141,10.699051,0.27775,0.0196625,-0.670725
1692594393883,-0.39105,-0.43800002,10.407001,0.1896125,0.2187625,-0.4940375
1692594393910,0.051000003,-0.96000004,12.601951,0.1494625,0.224675,-0.4225375
1692594393935,0.096,-1.1509501,13.156951,0.10175,0.194425,-0.351175
1692594393964,-0.44595003,-1.146,12.607051,-0.0372625,0.0363,-0.1808125
1692594393994,-0.51105005,-1.0890001,12.427051,-0.117975,-0.0485375,-0.0779625
1692594394026,-0.51600003,-1.9600501,14.428051,-0.22605,-0.1016125,0.1384625
1692594394055,-0.59895,-2.2090502,14.148001,-0.25547498,-0.07865,0.2591875
1692594394085,-1.0999501,-2.118,13.686001,-0.338525,-0.037125,0.5608625
1692594394111,-0.95595,-2.32395,12.774,-0.391875,-0.02585,0.714725
1692594394141,-0.49695003,-2.7930002,12.694951,-0.451,0.0199375,0.852225
1692594394170,-1.0570501,-2.367,12.38895,-0.462275,0.042625,0.8135875
1692594394201,-1.79595,-1.4809501,10.88595,-0.47547498,0.0466125,0.7360375
1692594394229,-1.179,-0.98595005,9.579,-0.4549875,0.0587125,0.5710375
1692594394257,0.034050003,-0.87105006,8.805,-0.2838,0.172425,0.4807
1692594394287,0.07005,-0.51405,9.385051,-0.1722875,0.2079,0.3801875
1692594394315,-0.37395,0.51900005,7.8169503,-0.069299996,0.1857625,0.1964875
1692594394345,0.12195001,1.131,5.4760504,0.1205875,0.0273625,-0.2222
1692594394374,0.89295006,0.98505,6.0670505,0.2501125,-0.0171875,-0.4324375
1692594394403,0.58695,1.47105,7.2499504,0.582725,-0.0488125,-1.038675
1692594394432,0.16305001,1.4500501,7.8499503,0.72985,-0.1219625,-1.4166625
1692594394460,0.27600002,1.7320501,7.044,0.8449375,-0.22055,-1.7840625
1692594394491,0.31395,0.99495006,6.4960504,0.9857375,-0.3202375,-2.274525
1692594394520,0.771,-0.036000002,9.37005,1.0121375,-0.32065,-2.3681624
1692594394551,0.69000006,-0.031050002,8.84595,0.8903125,-0.31913748,-2.1786876
1692594394579,-0.27600002,0.69105005,8.248051,0.4178625,-0.355575,-1.2623875
1692594394609,-0.07005,0.71505004,8.87205,0.2102375,-0.3366,-0.82885
1692594394638,-0.45795003,1.2540001,8.596951,0.1109625,-0.2633125,-0.58465
1692594394667,-1.7770501,2.2729502,8.10705,0.1351625,-0.0484,-0.4591125
1692594394696,-0.753,1.6459501,10.596001,0.215875,0.0647625,-0.5292375
1692594394725,1.314,0.87495005,10.701,0.4885375,0.3471875,-0.99715
1692594394753,1.13505,1.08405,8.98995,0.5599,0.3928375,-1.1334125
1692594394783,0.216,1.31295,8.703,0.3760625,0.039325,-0.71885
1692594394812,-0.123,1.2079501,8.63805,0.2536875,-0.1901625,-0.4497625
1692594394843,-0.69795,1.2220501,8.580001,0.169125,-0.3177625,-0.3507625
1692594394871,-1.116,0.87105006,9.387,0.1651375,-0.2410375,-0.438075
1692594394899,-0.88395005,0.52395004,10.206,0.128975,0.0237875,-0.532125
1692594394927,-0.20895001,0.30105,10.12905,0.0724625,0.168575,-0.47575
1692594394957,-0.015000001,0.51405,8.923051,-0.1153625,0.32395,-0.134475
1692594394981,-0.35505003,0.804,8.67105,-0.201025,0.29755,0.1021625
1692594395013,-0.12795001,0.66705,9.16695,-0.24695,0.2267375,0.2957625
1692594395043,0.15105,0.32505003,9.804001,-0.2116125,0.092675,0.3856875
1692594395071,-0.049050003,0.17595,10.92405,-0.1755875,0.0485375,0.3421
1692594395101,-0.23295002,0.28905,11.302051,-0.165825,0.0044,0.3125375
1692594395130,-0.76500005,0.64095,9.954,-0.231825,-0.0638,0.3433375
1692594395158,-1.1190001,0.81600004,9.559051,-0.2608375,-0.058849998,0.3628625
1692594395187,-1.353,0.58095,9.80805,-0.2085875,0.0537625,0.212575
1692594395217,-1.52295,0.31995,10.098001,-0.14355,0.14355,0.0430375
1692594395245,-1.176,0.19095,9.516001,-0.056925,0.31185,-0.17173749
1692594395276,-0.77205,0.246,8.53995,-0.062425,0.3674,-0.15125
1692594395309,-1.059,0.56895,8.146951,-0.1236125,0.3812875,0.0309375
1692594395336,-1.1880001,0.71505004,9.02295,-0.1395625,0.3348125,0.1238875
1692594395363,-0.68295,0.708,9.69795,-0.0814,0.2336125,0.1546875
1692594395391,-0.39600003,0.78900003,9.922951,-0.0814,0.2336125,0.1546875
1692594395420,-0.78900003,1.8280501,9.835051,0.058849998,0.1098625,0.15345
1692594395448,-0.98205006,1.81605,9.859051,0.121,0.01705,0.0908875
1692594395477,-1.1520001,1.54305,10.78695,0.2237125,-0.0592625,-0.097625
1692594395507,-0.80805004,1.0860001,10.43805,0.44288749,-0.0853875,-0.586575
1692594395535,-0.52005005,1.1340001,9.406051,0.47245,-0.0609125,-0.6989125
1692594395566,-0.67800003,1.3470001,8.583,0.3460875,-0.0352,-0.528825
1692594395597,-0.74295,1.4980501,8.05395,0.2608375,-0.0407,-0.351175
1692594395625,-0.67800003,1.6200001,8.02305,0.2014375,-0.0471625,-0.1665125
1692594395654,-0.573,1.70595,7.4220004,0.223575,-0.0422125,-0.1912625
1692594395683,-1.107,2.046,7.21395,0.2935625,-0.04015,-0.2866875
1692594395713,-1.27005,2.3689501,7.5079503,0.328075,-0.0394625,-0.280225
1692594395741,-0.67800003,2.17995,8.302951,0.436425,0.014025,-0.30153748
1692594395770,-0.48900002,2.23305,9.052051,0.504075,0.0532125,-0.3812875
1692594395796,-1.2049501,2.63505,8.66205,0.5429875,0.063525,-0.4406875
1692594395827,-1.33905,2.4409502,8.18805,0.499125,-0.0125124995,-0.3916
1692594395852,-0.04695,1.44,9.385051,0.4686,-0.0347875,-0.3779875
1692594395882,0.22500001,0.78195006,8.89605,0.44825,-0.022,-0.395725
1692594395913,-1.7820001,0.85905004,7.9530005,0.27775,-0.0122375,-0.1892
1692594395942,-2.62905,0.052050002,9.45195,-0.1496,-0.009625,0.45155
1692594395969,-0.24495001,-0.83505005,12.21195,-0.355025,0.140525,0.649825
1692594396001,0.14595,-0.70305,10.078951,-0.54395,0.36781248,0.75528747
1692594396030,-0.9990001,0.17595,7.5490503,-0.9609875,0.477125,1.3069375
1692594396059,-0.015000001,-0.76305,8.889001,-1.1006875,0.1480875,1.8481375
1692594396089,-0.015000001,-0.76305,8.889001,-1.1006875,0.1480875,1.8481375
1692594396117,-0.11595,-1.764,12.115951,-0.94888747,0.0149875,1.79575
1692594396145,-0.066,-1.8280501,11.359051,-1.045825,-0.1530375,2.073225
1692594396175,-0.64500004,-0.57900006,9.93,-1.1334125,-0.2426875,2.2611876
1692594396204,-0.52305,-0.68205005,10.287001,-1.102475,-0.310475,2.2094874
1692594396235,-0.44595003,-1.0860001,12.27105,-0.94765,-0.2695,1.948925
1692594396264,-0.13995,-0.98100007,11.845051,-0.5746125,-0.1527625,1.37115
1692594396293,-0.88005006,-0.80595005,10.828051,-0.4629625,-0.13475,1.15005
1692594396322,-1.00905,-0.9480001,11.60595,-0.3334375,-0.13035,0.7258625
1692594396349,-0.915,-1.1200501,12.472951,-0.3334375,-0.13035,0.7258625
1692594396380,-1.12395,-0.61695004,12.705001,-0.171875,0.0517,0.260425
1692594396410,-0.91095006,-0.35205,11.778001,-0.143275,0.08965,0.1582625
1692594396438,-0.49695003,-0.29700002,11.704051,-0.047849998,0.120037496,-0.0598125
1692594396467,-0.75000006,0.009000001,11.512951,0.0235125,0.120037496,-0.1797125
1692594396495,-0.528,-0.22905001,11.545951,0.091437496,0.100237496,-0.3003
1692594396525,0.30405003,-0.591,12.264001,0.1890625,0.0295625,-0.504075
1692594396553,-0.15900001,-0.23700002,11.182051,0.207075,-0.0116875,-0.53955
1692594396584,-0.30705002,-0.64095,11.505,0.1837,-0.13035,-0.46695
1692594396614,0.20400001,-1.1200501,12.8890505,0.1640375,-0.1736625,-0.41525
1692594396642,0.14400001,-0.85395,12.420001,0.1326875,-0.188375,-0.3482875
1692594396671,0.00795,-0.675,11.070001,0.0037125,-0.2030875,-0.102437496
1692594396700,0.0049500004,-0.53595,11.869051,-0.0873125,-0.2151875,0.0609125
1692594396730,-0.102000006,-0.79695004,12.56595,-0.0897875,-0.2011625,0.0792
1692594396759,0.48105,-1.5820501,12.487051,-0.0793375,-0.181225,0.0996875
1692594396788,0.37905002,-1.31895,11.977051,-0.0864875,-0.1552375,0.1951125
1692594396816,-0.43005002,-0.90405005,11.412001,-0.131175,-0.1659625,0.2792625
1692594396846,-1.677,-1.1200501,10.96695,-0.21835,-0.1978625,0.4156625
1692594396874,-0.39105,-2.59695,12.657001,-0.2080375,-0.153175,0.4021875
1692594396903,0.50100005,-3.2220001,13.33905,-0.179025,0.0716375,0.3829375
1692594396931,-0.95100003,-1.3570501,10.632001,-0.24915,0.1282875,0.4879875
1692594396963,0.453,-1.1580001,9.17205,-0.429,0.0517,0.6879125
1692594396991,1.04205,-1.2349501,9.085951,-0.412225,0.022,0.6257625
1692594397021,-0.26895002,-0.69900006,8.710051,-0.2338875,-0.0419375,0.2822875
1692594397051,-0.126,-0.51705,8.367001,-0.1527625,-0.1051875,0.091437496
1692594397080,0.45495003,0.24795002,9.52095,-0.0119624995,-0.1065625,-0.2660625
1692594397108,0.35700002,1.1359501,10.191001,0.067375,-0.04895,-0.4459125
1692594397136,-0.45105,2.48895,9.64995,0.3256,0.015262499,-1.0258875
1692594397167,0.16095,2.0359502,7.7239504,0.5324,0.0374,-1.4636875
1692594397197,-0.89595,1.62705,4.8850503,0.767525,0.06765,-1.9212875
1692594397231,-1.1839501,0.85395,6.6889505,1.0905125,0.1131625,-2.5152874
1692594397259,-0.324,1.029,7.3020005,1.1154,0.157575,-2.5810125
1692594397287,-0.82395005,1.0860001,4.6480503,1.00595,0.333575,-2.325125
1692594397317,-0.597,0.279,6.8280005,0.898975,0.3702875,-2.0029626
1692594397345,1.164,-0.024,10.675051,0.77494997,0.33935,-1.6427125
1692594397376,0.65400004,1.5700501,10.68,0.4786375,0.2066625,-0.966075
1692594397405,-2.4379501,3.8430002,7.45095,0.076175,-0.1406625,-0.0253
1692594397433,-1.5810001,2.5770001,9.97095,0.0653125,-0.2836625,0.0917125
1692594397464,-0.33405003,0.87795,11.307,0.5960625,-0.074525,-0.9510875
1692594397494,-1.57395,1.01205,9.90705,0.8094625,0.097625,-1.461075
1692594397523,-0.86295,1.02405,8.929951,0.5143875,0.2121625,-1.1237875
1692594397553,0.42195,0.68100005,9.01095,0.2407625,0.2077625,-0.7228375
1692594397583,-0.123,0.78195006,9.373051,-0.0490875,0.138325,-0.35585
1692594397611,-0.44895002,0.86805004,9.95895,-0.124437496,0.050049998,-0.1931875
1692594397645,-0.48000002,1.14795,9.62895,-0.2325125,-0.1034,0.20047499
1692594397671,-0.58305,1.3110001,9.375,-0.245575,-0.1098625,0.2996125
1692594397701,-0.25695002,1.041,9.267,-0.1780625,-0.0642125,0.2624875
1692594397729,-0.28800002,1.01205,9.129001,-0.120037496,-0.0493625,0.18727499
1692594397756,-0.32700002,0.73395,8.820001,-0.0730125,-0.046475,0.12265
1692594397788,0.54405004,0.00405,9.61005,-0.0515625,-0.065725,0.0683375
1692594397815,1.0200001,-0.19095,10.464001,-0.0803,-0.077825,0.0928125
1692594397844,0.49095002,0.25095,10.203,-0.1480875,-0.1078,0.204325
1692594397872,-0.09195001,0.87495005,9.35595,-0.363825,-0.2594625,0.6697625
1692594397903,0.44295,0.97605,10.593,-0.388025,-0.31239998,0.80079997
1692594397931,-0.20895001,1.7350501,8.53995,-0.293425,-0.2616625,0.6370375
1692594397967,-0.60705,2.022,8.061001,-0.1753125,-0.2077625,0.414975
1692594397995,0.079050004,1.1890501,9.28905,0.078925,-0.1390125,-0.0738375
1692594398021,0.46905002,0.813,10.357051,0.30085,-0.0661375,-0.5017375
1692594398049,0.38295,0.804,10.692,0.32065,-0.0501875,-0.54395
1692594398078,0.23700002,1.2780001,9.613951,0.17105,-0.0862125,-0.293975
1692594398112,0.09105001,1.6009501,8.652,0.087037496,-0.1111,-0.1736625
1692594398141,-0.34305,1.8330001,7.8220506,0.060775,-0.1335125,-0.2446125
1692594398169,-0.762,1.8280501,8.500951,0.117699996,-0.129525,-0.406725
1692594398199,-0.09195001,0.87495005,9.708,0.2673,-0.044275,-0.739475
1692594398228,-0.231,1.06005,9.531,0.2899875,0.0309375,-0.784575
1692594398259,-0.27405003,1.7920501,8.676001,0.1398375,0.1183875,-0.4917
1692594398289,0.039,2.283,8.299951,0.055825,0.11935,-0.326975
1692594398318,-0.027,2.60595,7.9009504,0.0444125,0.1032625,-0.287925
1692594398347,0.15405001,2.874,7.9200006,0.24419999,0.00385,-0.5055875
1692594398374,0.40005,2.8639503,8.16195,0.3971,-0.070125,-0.652025
1692594398405,0.52005005,2.9320502,8.877001,0.538725,-0.1436875,-0.78265
1692594398433,0.67800003,2.86905,8.71905,0.6851625,-0.2715625,-0.8584125
1692594398461,0.48600003,2.673,8.379001,0.6818625,-0.3174875,-0.77165
1692594398490,-0.25500003,1.7200501,9.394051,0.5889125,-0.35475,-0.4830375
1692594398520,-1.45605,0.92295,8.691,0.5124625,-0.3256,-0.31075
1692594398548,-0.66195005,0.08805001,9.79605,0.227425,-0.0759,0.054725
1692594398578,-0.43395,-0.65595,8.061001,-0.2479125,0.3916,0.38073748
1692594398607,-1.2409501,-0.43500003,8.260051,-0.5082,0.561,0.645975
1692594398635,-1.5810001,-1.00695,9.379951,-0.7451125,0.63745,1.0121375
1692594398666,-0.18105,-2.085,10.390051,-1.0619125,0.7330125,1.71985
1692594398695,0.094050005,-1.536,11.005051,-1.18085,0.7995625,2.071575
1692594398724,-0.45600003,-0.90000004,9.327001,-1.47455,0.6447375,3.0832999
1692594398762,-0.65205,-1.39005,11.11995,-1.4590125,0.205975,3.4530375
1692594398800,-0.46095002,-1.4790001,13.104001,-1.1297,0.0444125,2.966425
1692594398837,-0.79305005,-0.94995004,11.403001,-0.997975,0.0185625,2.685925
1692594398851,0.072000004,-1.074,11.74005,-0.88783747,-0.0099,2.39525
1692594398875,0.69000006,-0.90195006,12.766951,-0.76835,-0.032725,2.063875
1692594398902,0.18,0.92100006,11.661,-0.4890875,-0.099275,1.3256375
1692594398931,-0.39795002,1.12695,10.90005,-0.323675,-0.1665125,0.9241375
1692594398959,-0.00795,0.46395,12.37695,-0.117699996,-0.220275,0.46365
1692594398995,-0.32895002,-0.25305,12.970051,0.3086875,-0.184525,-0.45155
1692594399023,-0.71895003,0.025950002,11.248951,0.4024625,-0.1243,-0.8303625
1692594399052,-0.68100005,0.17895001,10.675051,0.331925,-0.1029875,-0.8089125
1692594399082,-0.95100003,-0.076050006,10.974001,0.191125,8.25E-4,-0.643775
1692594399112,-0.96105003,-0.49005002,12.54405,0.1544125,0.06325,-0.5768125
1692594399140,-0.882,-0.99300003,13.641001,0.0928125,0.160875,-0.4389
1692594399167,-0.726,-1.0000501,13.075951,0.0369875,0.1857625,-0.3356375
1692594399198,-0.252,-1.2610501,11.24205,-0.0394625,0.1887875,-0.22165
1692594399227,-0.75495005,-1.3230001,13.456051,-0.20019999,0.1384625,-0.001375
1692594399255,-0.67395,-1.5679501,13.641001,-0.2638625,0.091575,0.13255
1692594399283,-0.75000006,-1.46895,12.481951,-0.3477375,0.0103124995,0.40507498
1692594399313,-1.7509501,-0.47100002,12.010951,-0.36313748,-0.001925,0.4723125
1692594399343,-1.8390001,-0.35895002,11.592001,-0.3260125,0.03135,0.4147
1692594399370,-1.3990501,-0.8880001,11.64,-0.2539625,0.0944625,0.2985125
1692594399400,-0.31905,-2.118,12.53205,-0.0748,0.2525875,0.0803
1692594399428,-0.693,-1.6129501,11.383051,-0.061325,0.2572625,0.1060125
1692594399459,-0.76005006,-1.3950001,10.1320505,-0.22013749,0.0730125,0.3773
1692594399489,-0.693,-1.6009501,11.161051,-0.28861248,-0.0163625,0.46461248
1692594399517,-0.70500004,-1.575,10.953,-0.3073125,-0.0551375,0.470525
1692594399547,-1.416,-0.82605004,10.074,-0.2776125,-0.0559625,0.37125
1692594399578,-1.6890001,0.72495,8.262,-0.2121625,-0.012925,0.1964875
1692594399603,-0.28605002,0.25305,6.1650004,-0.114125,0.0710875,-0.005225
1692594399633,0.132,-0.81600004,7.46295,0.045649998,0.1874125,-0.308825
1692594399659,0.49800003,-0.43800002,9.59805,0.3260125,0.25135,-0.8606125
1692594399688,0.73005,-0.043050002,8.724,0.3260125,0.25135,-0.8606125
1692594399717,0.93405,0.37695003,7.14405,0.28655,-0.0303875,-0.9370625
1692594399746,-0.48495004,1.8690001,9.35805,0.2784375,-0.3183125,-1.1154
1692594399779,0.24000001,2.0080502,8.917951,0.3474625,-0.4010875,-1.3083125
1692594399809,-0.71895003,1.4929501,5.74905,0.6941,-0.334125,-1.930775
1692594399837,-1.0690501,1.4760001,6.4960504,0.859375,-0.2561625,-2.2193875
1692594399864,-1.1839501,0.483,7.0600505,0.94159997,-0.1225125,-2.2886875
1692594399893,1.422,-1.04295,10.869,0.9068125,-0.0015125,-2.1445875
1692594399922,2.6089501,-1.4070001,11.674951,0.7833375,0.137775,-1.9025875
1692594399951,0.558,0.6,8.323951,0.2156,0.08195,-0.84315
1692594399978,0.3,1.66305,6.73005,-0.315425,-0.38334998,0.247225
1692594400008,0.50805,1.15995,7.4599504,-0.30635,-0.494175,0.3282125
1692594400039,0.24405001,0.68100005,9.076051,0.0924,-0.4285875,-0.181775
1692594400069,-0.19305001,0.342,9.993,0.259325,-0.3634125,-0.4456375
1692594400103,-0.32895002,0.124050006,10.476001,0.3113,-0.2926,-0.5698
1692594400131,0.666,-0.40395,10.699051,0.1524875,-0.0908875,-0.4758875
1692594400165,0.18,0.10005,9.768001,-0.098725,0.054449998,-0.2099625
1692594400200,-0.324,0.066,9.02805,-0.2047375,0.0374,-0.06325
1692594400226,-0.11595,-0.55305004,9.61695,-0.275275,-0.012925,0.06215
1692594400261,0.13905,-0.74700004,9.910951,-0.2591875,0.023375,0.0633875
1692594400288,0.38295,-0.45000002,10.081051,-0.2844875,0.113575,0.219725
1692594400318,0.16305001,-0.033,9.658051,-0.3564,0.0724625,0.50985
1692594400346,-0.09705,0.33195,9.20505,-0.3466375,0.0275,0.5599
1692594400374,0.13395001,0.17895001,10.167001,-0.2910875,-0.00275,0.5049
1692594400403,0.13395001,0.17895001,10.167001,-0.2910875,-0.00275,0.5049
1692594400431,-1.011,0.88500005,9.63105,-0.006875,0.030524999,0.0534875
1692594400462,-0.99000007,0.60705,8.950951,0.1078,0.0859375,-0.119625
1692594400491,0.14205001,-0.32805002,10.476001,0.1637625,0.161425,-0.2314125
1692594400520,0.55605,-0.57195,11.079,0.21175,0.2871,-0.4390375
1692594400547,-0.022950001,0.006,9.801001,0.138325,0.2347125,-0.3568125
1692594400577,-0.39795002,0.19305001,9.0070505,0.0231,0.124025,-0.1445125
1692594400609,-0.21900001,-0.19800001,9.40905,-0.0919875,-0.01595,0.1648625
1692594400640,-0.80505,-0.23205002,9.35595,-0.050325,0.02145,0.157025
1692594400667,-0.55905,0.22005,8.85795,-0.056925,0.0512875,0.2066625
1692594400695,-0.36495003,1.0669501,7.4599504,-0.0820875,0.0884125,0.2877875
1692594400723,-0.43695003,1.6170001,8.413051,-0.0506,0.1672,0.220275
1692594400752,-0.77205,1.47105,9.92595,0.0628375,0.1711875,-0.014025
1692594400780,-1.3080001,1.6510501,10.58895,0.2343,0.149325,-0.335225
1692594400810,-0.23805001,1.09305,9.150001,0.545325,0.1106875,-0.8922375
1692594400837,0.15795001,0.57405,9.48795,0.608025,0.1194875,-1.1136125
1692594400870,0.19695,-0.12705001,10.179001,0.551375,0.08635,-1.057925
1692594400897,0.28500003,-0.43500003,10.39995,0.435875,0.0125124995,-0.8570375
1692594400926,-0.252,0.057000004,9.92595,0.0738375,-0.14093749,-0.146575
1692594400955,-0.264,0.57405,9.44205,-0.1067,-0.17379999,0.2209625
1692594400984,-0.56100005,1.11705,8.734051,-0.2765125,-0.14135,0.5819
1692594401019,-0.528,1.2100501,8.214001,-0.1431375,-0.038225,0.34375
1692594401049,-0.372,1.28505,8.253,-0.015675,0.00825,0.102437496
1692594401078,-0.28800002,1.9930501,7.79505,0.1111,0.0427625,-0.149875
1692594401106,-0.726,2.3430002,7.5850506,0.3174875,0.0471625,-0.564575
1692594401136,-1.61205,2.4379501,7.1629505,0.4258375,0.021175,-0.747725
1692594401165,-1.7530501,1.6650001,8.113951,0.6798,0.0361625,-1.1138875
1692594401195,-0.84795004,0.78405005,8.6640005,0.7739875,0.1232,-1.2819124
1692594401225,-0.70500004,-0.81600004,8.533051,0.6939625,0.3229875,-1.2953875
1692594401256,0.52500004,-0.83505005,9.153001,0.4321625,0.356675,-0.92125
1692594401285,1.02495,-1.6819501,10.087951,-0.3669875,0.293975,0.424325
1692594401312,0.36705002,-2.0340002,9.234,-0.7222875,0.1791625,1.156375
1692594401339,-0.58500004,-1.7730001,10.91895,-1.197625,-0.17545,2.395525
1692594401368,-0.03195,-1.7569501,10.519051,-1.197625,-0.17545,2.395525
1692594401396,-0.71400005,-1.5679501,9.65505,-1.355475,-0.29645,2.84405
1692594401427,-0.12105001,-1.86705,10.57005,-1.210825,-0.2336125,2.544575
1692594401456,-0.09195001,-1.7040001,11.02005,-1.093675,-0.2116125,2.3034
1692594401483,-0.00795,-1.35405,10.416,-0.86735,-0.1978625,1.9453499
1692594401515,0.010050001,-1.18005,10.231951,-0.75405,-0.20405,1.7683874
1692594401544,-0.372,-1.539,10.59105,-0.6342875,-0.2057,1.5327125
1692594401573,-0.36495003,-1.9699501,12.184951,-0.399575,-0.1890625,1.0561374
1692594401601,-0.216,-1.6030501,13.29405,-0.2677125,-0.1335125,0.854425
1692594401630,-0.17295001,-0.94500005,11.476951,-0.2380125,-0.0963875,0.8006625
1692594401660,-0.64305,-0.24900001,10.990951,-0.2041875,-0.0661375,0.7090875
1692594401689,-0.96105003,0.37695003,10.61295,-0.0570625,-0.0155375,0.362725
1692594401718,0.04605,-0.56205004,11.13405,0.2044625,0.0939125,-0.1354375
1692594401745,0.63900006,-1.13205,11.577001,0.3268375,0.1533125,-0.397375
1692594401775,0.43095002,-1.0720501,11.27805,0.38775,0.160875,-0.5911125
1692594401806,0.015000001,-0.75405,10.43295,0.2761,-0.0177375,-0.5845125
1692594401836,0.54405004,-1.04595,10.74705,0.10285,-0.1695375,-0.3064875
1692594401864,0.558,-0.85695004,11.151001,0.0598125,-0.17985,-0.1945625
1692594401892,0.177,-0.62205005,11.280001,0.0317625,-0.1830125,-0.1029875
1692594401921,-0.102000006,-0.92100006,11.5990505,0.007425,-0.2088625,0.0375375
1692594401950,-0.07305,-0.98595005,11.934001,0.0196625,-0.1953875,0.0627
1692594401979,0.14595,-0.75795,12.40995,0.03575,-0.1563375,0.0661375
1692594402010,-0.123,-0.864,12.456,0.0378125,-0.0716375,0.0732875
1692594402036,0.096,-1.5630001,12.38895,0.0400125,-0.0429,0.053075
1692594402070,0.43395,-1.7830501,13.20495,0.0378125,0.0064625,-0.0308
1692594402097,0.37905002,-1.7569501,13.071001,-0.0055,0.0138875,-0.008525
1692594402125,0.21105,-1.4569501,12.504001,-0.141625,-0.04235,0.223575
1692594402153,-0.73395,-1.371,12.280951,-0.1816375,-0.079475,0.3304125
1692594402182,-0.99195004,-1.4860501,12.159,-0.189475,-0.0946,0.3689125
1692594402210,-0.50100005,-2.0299501,12.4129505,-0.15619999,-0.0044,0.284625
1692594402241,-0.03195,-1.7230501,11.91495,-0.1434125,0.0836,0.2286625
1692594402271,-0.71205,-1.20105,8.55195,-0.1595,0.1786125,0.1846625
1692594402297,-1.27695,-1.4670001,6.2299504,-0.1722875,0.1590875,0.1832875
1692594402327,-0.01995,-3.5710502,10.737,-0.1838375,0.120725,0.251075
1692594402356,-0.08205,-3.2599502,12.231001,-0.21573749,0.133375,0.371525
1692594402386,-2.493,-1.20105,6.9240003,-0.4142875,0.0721875,0.7456625
1692594402414,-1.296,-0.76305,6.5290504,-0.505725,0.006875,0.858
1692594402445,0.762,-0.82095003,10.62195,-0.4140125,0.1216875,0.7165125
1692594402476,1.3099501,0.28695002,9.48495,-0.2567125,0.251625,0.47025
1692594402510,0.34695002,1.38495,6.26805,0.136675,0.194975,-0.4774
1692594402538,-1.3060501,1.2559501,6.50295,0.5368,-0.1166,-1.57465
1692594402565,-1.389,0.63405,8.917951,0.713075,-0.1571625,-1.9157875
1692594402597,-0.23295002,-0.31605002,7.7119503,0.8584125,-0.066825,-2.0926125
1692594402625,-0.64305,-0.186,7.0009503,0.930875,0.2754125,-2.025375
1692594402654,-0.40095,0.16395001,7.6110005,0.808225,0.34375,-1.759725
1692594402683,-0.22395001,0.18795002,8.17395,0.625625,0.3240875,-1.3872375
1692594402712,-0.75000006,1.1149501,7.6129503,0.363825,0.2061125,-0.7876
1692594402737,-0.99705005,1.6870501,7.6420503,0.3378375,0.164175,-0.6818625
1692594402767,-2.0719502,1.6819501,7.1989503,0.465575,0.163625,-0.765875
1692594402797,-0.92295,0.78705,10.48305,0.61105,0.2149125,-0.957
1692594402826,-0.53205,0.186,12.70905,0.8518125,0.3964125,-1.392325
1692594402856,-0.9990001,0.59505004,9.232051,0.80465,0.417175,-1.3635875
1692594402881,-1.09305,0.78000003,8.17605,0.3790875,0.20735,-0.7612
1692594402914,0.22995001,-0.117000006,10.608001,0.2019875,0.11055,-0.54614997
1692594402943,0.08895,-0.19095,9.94995,0.060775,0.0171875,-0.3694625
1692594402971,-0.75705004,0.44205,8.755051,-0.0196625,-0.0682,-0.155925
1692594402999,-1.1400001,0.69105005,8.238,-0.19195,-0.2509375,0.2875125
1692594403029,-0.573,0.126,9.226951,-0.1824625,-0.2264625,0.2484625
1692594403057,1.0540501,-1.065,11.802001,-0.111375,-0.1271875,0.061325
1692594403088,0.28500003,-0.0139500005,10.33695,-0.0627,-0.032449998,-0.1238875
1692594403117,-0.83205,0.69795,8.901,-0.16733749,-0.1485,0.050875
1692594403147,-0.28395,0.48495004,10.30095,-0.3301375,-0.4010875,0.39627498
1692594403179,0.47895002,0.27705002,11.505,-0.1309,-0.24447499,0.094875
1692594403206,0.34695002,0.55905,10.12395,-0.02145,-0.15619999,-0.085525
1692594403236,0.15795001,0.92595005,9.66705,0.0328625,-0.1496,-0.17407499
1692594403264,0.112950005,1.0020001,10.234051,0.0815375,-0.2358125,-0.2600125
1692594403295,0.24000001,0.94500005,9.97095,0.1271875,-0.245575,-0.34155
1692594403328,0.63195,0.65505004,9.424951,0.22275,-0.2135375,-0.495825
1692594403354,0.44295,0.46800002,9.708,0.24035,-0.2080375,-0.4747875
1692594403383,0.82395005,0.102000006,10.750951,0.1973125,-0.2366375,-0.1958
1692594403421,0.40695003,0.61395,9.19095,0.070675,-0.252725,0.1370875
1692594403448,0.17505,0.93495005,8.83395,0.0033,-0.2525875,0.227975
1692594403480,-0.043950003,1.23,8.755051,-0.015262499,-0.1995125,0.1436875
1692594403509,0.052950002,1.0570501,9.19995,0.043725,-0.13653749,-0.034375
1692594403540,0.12705001,0.78000003,8.82495,0.117699996,-0.0686125,-0.24475
1692594403569,-0.16095,0.86100006,8.57295,0.2028125,0.0158125,-0.46667498
1692594403598,-0.054,1.131,8.6640005,0.16885,0.0463375,-0.39545
1692594403627,0.06705,1.299,8.157001,0.1494625,0.0627,-0.3752375
1692594403654,0.441,1.12695,8.101951,0.15015,0.0741125,-0.39875
1692594403683,0.62700003,1.7869501,8.820001,0.1967625,0.045925,-0.4761625
1692594403712,0.771,2.2999501,7.9150505,0.224125,-0.0023375,-0.450175
1692594403741,0.74505,2.5170002,8.614051,0.3350875,-0.1475375,-0.38115
1692594403772,1.1230501,2.53905,8.949,0.4343625,-0.2145,-0.408925
1692594403798,0.78495,2.63895,7.76205,0.60513747,-0.30525,-0.4401375
1692594403829,1.092,2.355,8.712001,0.6391,-0.33275,-0.4057625
1692594403857,0.22995001,1.5480001,8.776951,0.626175,-0.3366,-0.3092375
1692594403885,0.055050004,0.53805,8.367001,0.57145,-0.30305,-0.26015
1692594403914,-0.48000002,-0.74895006,8.24505,0.457325,-0.2303125,-0.194975
1692594403950,-2.4400501,-1.2919501,7.7470503,0.019524999,0.0353375,0.1461625
1692594403978,-0.46500003,-3.1380002,10.55805,-0.583275,0.480425,0.9070875
1692594404007,0.87900007,-3.7150502,12.09195,-0.8853625,0.7409875,1.4047
1692594404035,0.15405001,-2.3380501,9.64095,-1.1974875,0.8921,2.045175
1692594404066,-0.762,-1.0000501,8.743051,-1.7098125,0.5726875,3.41605
1692594404095,-0.58005005,-1.36395,9.910951,-1.7298875,0.3078625,3.618175
1692594404125,-0.38205,-2.0029502,10.6050005,-1.5679125,0.158675,3.406425
1692594404153,-1.3609501,-2.1370502,11.380951,-1.0605375,0.1348875,2.5625875
1692594404182,-1.626,-1.65795,10.77105,-0.770275,0.14795,2.0464125
1692594404210,-0.64005005,-1.8330001,11.955001,-0.694375,0.18315,1.8896625
1692594404240,-0.18795002,-1.65795,12.183001,-0.6183375,0.2391125,1.720125
1692594404269,-0.55905,-0.97605,11.215951,-0.43353748,0.2355375,1.2346125
1692594404298,-0.31500003,-0.45900002,10.93305,-0.2145,0.071225,0.6392375
1692594404327,0.26805001,-0.42600003,12.003,-0.087175,0.0226875,0.34347498
1692594404354,0.64905006,-0.76605004,13.447051,0.0474375,0.0028875,0.0495
1692594404383,0.33105,-0.60300004,13.408051,0.26235,-0.0680625,-0.4571875
1692594404414,-0.68295,-0.40695003,12.457951,0.317625,-0.1343375,-0.6369
1692594404442,-0.9799501,-0.72495,12.858001,0.3463625,-0.19139999,-0.836825
1692594404470,-0.92505,-1.14405,12.927001,0.3334375,-0.136675,-0.847825
1692594404499,-1.14795,-1.2199501,12.12495,0.3018125,-0.0396,-0.7981875
1692594404529,-1.7170501,-1.05795,11.14605,0.1764125,0.1401125,-0.5781875
1692594404560,-0.96795005,-1.6110001,12.937051,0.0389125,0.2536875,-0.3609375
1692594404589,-0.82395005,-1.8139501,13.224001,-0.011825,0.3025,-0.2564375
1692594404617,-0.75495005,-1.797,11.814,-0.1186625,0.2740375,0.025575
1692594404647,-0.80805004,-1.89795,12.817051,-0.173525,0.1997875,0.164725
1692594404676,-0.71895003,-2.061,13.897051,-0.2387,0.074525,0.29741248
1692594404704,-0.73605,-2.1349502,13.203001,-0.2479125,0.03575,0.2866875
1692594404735,-0.59205,-2.3140502,12.109051,-0.2495625,0.0033,0.254375
1692594404763,-0.54195005,-2.2999501,10.996051,-0.2655125,-0.0529375,0.29975
1692594404789,-0.564,-2.4460502,11.09895,-0.286825,-0.077275,0.3966875
1692594404820,-0.62100005,-3.04905,12.196951,-0.310475,-0.095837496,0.4811125
1692594404852,-0.55395,-2.8819501,10.60995,-0.36465,-0.1106875,0.5006375
1692594404881,-1.0900501,-1.6350001,9.604951,-0.4466,-0.1346125,0.587125
1692594404909,-0.966,-0.81405,8.746051,-0.461175,-0.1362625,0.63965
1692594404939,-0.015000001,-1.1509501,7.9150505,-0.3117125,-0.0424875,0.511225
1692594404966,-0.40800002,-0.66300005,7.8360004,-0.1709125,0.018424999,0.366025
1692594404998,-0.40800002,-0.66300005,7.8360004,-0.1709125,0.018424999,0.366025
1692594405025,-0.80805004,0.53805,7.4119506,0.1813625,0.0587125,-0.3169375
1692594405053,0.45495003,0.04695,8.938951,0.3146,0.116875,-0.6884625
1692594405084,0.19395001,0.504,10.06005,0.6386875,0.2550625,-1.5731375
1692594405112,-0.12795001,0.94005007,9.873,0.7643625,0.224675,-1.9669375
1692594405141,-0.70695,0.84405005,6.47205,0.507375,0.126775,-2.4347124
1692594405173,-0.15405001,0.51900005,5.931,0.644325,0.0471625,-2.4965875
1692594405202,1.233,0.03795,7.1320505,0.7359,0.06325,-2.2903376
1692594405232,1.2910501,-0.025950002,6.8040004,0.694375,0.0488125,-2.0392625
1692594405261,0.41400003,0.25500003,7.8409505,0.4764375,-0.24035,-1.243275
1692594405290,0.402,0.25995,8.69295,0.3518625,-0.4145625,-0.84122497
1692594405320,0.31395,0.76500005,9.66495,0.2619375,-0.499125,-0.5638875
1692594405349,-0.039,2.3740501,8.260051,0.2101,-0.40755,-0.3790875
1692594405377,-0.47700003,1.9480501,7.53,0.3771625,-0.2297625,-0.6417125
1692594405405,1.2019501,0.27705002,10.909051,0.5484875,-0.1346125,-0.9455875
1692594405433,2.38905,-0.957,13.66695,0.6996,-0.0515625,-1.2241625
1692594405464,1.2019501,-0.41595003,11.06505,0.510125,-0.1252625,-0.869825
1692594405492,-0.312,0.38205,8.853001,0.1871375,-0.2795375,-0.2762375
1692594405523,-0.46095002,0.45900002,9.397051,-0.251625,-0.38279998,0.42625
1692594405550,-0.38595003,0.094950005,9.61005,-0.2726625,-0.2481875,0.395175
1692594405580,0.12705001,-0.37095,9.53295,-0.2184875,-0.0559625,0.24255
1692594405610,0.97005004,-0.768,10.452001,-0.128425,0.22385,-0.007425
1692594405638,1.14705,-0.54300004,10.14105,-0.2267375,0.189475,0.18493749
1692594405666,0.35505003,-0.15495001,9.74895,-0.302225,0.0746625,0.38995
1692594405696,-0.48705003,0.07095,9.567,-0.34759998,-0.050049998,0.55027497
1692594405724,-0.54405004,0.0,9.693001,-0.28985,-0.1166,0.5545375
1692594405754,-0.48900002,-0.20295002,9.98805,-0.2107875,-0.025575,0.429275
1692594405784,-0.30705002,-0.39900002,10.254001,-0.132825,0.100925,0.2765125
1692594405810,0.24900001,-0.45900002,10.656,-0.059125,0.2789875,0.0226875
1692594405841,-0.264,0.081,9.910951,-0.09075,0.2657875,-0.03575
1692594405875,-1.1380501,0.31800002,9.054001,-0.106837496,0.2080375,0.001375
1692594405902,-1.1359501,0.03795,9.49005,-0.093637496,0.1639,0.016775
1692594405932,-0.24495001,-0.79395,10.014001,0.022,0.2352625,-0.1258125
1692594405960,-0.19005,-0.41595003,8.82495,0.0374,0.3315125,-0.091025
1692594405989,-0.91305006,0.25305,7.82595,-0.03025,0.2849,0.08965
1692594406018,-1.1190001,0.56205004,8.241,-0.093637496,0.203775,0.2773375
1692594406046,-0.135,0.66,9.483001,-0.050325,0.1593625,0.2971375
1692594406075,0.028950002,1.32105,9.7560005,0.050875,0.20515,0.0996875
1692594406103,-0.61395,1.6680001,9.871051,0.268125,0.166375,-0.3268375
1692594406131,-0.78405005,1.31805,10.201051,0.3716625,0.06765,-0.495
1692594406161,-0.47295,0.528,10.5379505,0.561825,-0.0339625,-0.8866
1692594406191,-0.094050005,0.22695,9.5140505,0.5820375,-0.0169125,-0.993575
1692594406221,-0.018000001,0.44205,9.01395,0.51425,0.0033,-0.9211125
1692594406254,-0.15705001,0.62895006,8.596951,0.2226125,-0.0232375,-0.3905
1692594406280,-0.48495004,0.92595005,8.443951,0.104775,-0.059675,-0.172975
1692594406308,-0.62805,1.524,7.9840503,0.0374,-0.09735,-0.0556875
1692594406336,-0.73395,1.6680001,7.932,0.0738375,-0.0760375,-0.0908875
1692594406365,-1.0570501,1.77795,7.9680004,0.2585,0.0154,-0.3339875
1692594406393,-0.90105003,1.6459501,8.343,0.370975,0.058849998,-0.50888747
1692594406424,-0.075,0.98100007,9.4470005,0.5146625,0.1403875,-0.69313747
1692594406453,-0.29805002,0.85395,9.16395,0.51507497,0.1621125,-0.63002497
1692594406481,-1.1359501,1.4449501,8.911051,0.4503125,0.145475,-0.47025
1692594406509,-1.6669501,1.605,9.684,0.2019875,0.0474375,-0.081125
1692594406541,-2.66505,0.14505,9.162001,0.121275,0.1144,-0.0947375
1692594406570,-2.12205,-0.47400004,9.34605,0.121275,0.1144,-0.0947375
1692594406600,1.5679501,-1.67295,9.739051,0.102437496,0.339075,-0.3218875
1692594406628,1.3770001,-1.4959501,8.401051,-0.3779875,0.3905,0.29479998
1692594406657,-0.85095006,-1.35405,8.590051,-0.7352125,0.1700875,1.0549
1692594406682,-0.72405005,-1.5010501,11.37405,-1.151975,-0.4115375,2.2682
1692594406720,0.44295,-1.848,10.207951,-1.1314875,-0.3355,2.422475
1692594406744,-0.279,-1.1850001,8.99505,-1.074975,-0.2220625,2.395525
1692594406770,0.087000005,-1.536,9.229051,-1.01145,-0.1951125,2.3507
1692594406801,0.14205001,-1.9189501,10.419001,-0.8487875,-0.2737625,2.10155
1692594406831,-0.14505,-1.8000001,11.368951,-0.766975,-0.3026375,1.9397125
1692594406859,-0.25995,-1.4860501,10.83495,-0.6425375,-0.3218875,1.6891875
1692594406890,-0.15900001,-1.19895,10.866,-0.57475,-0.3025,1.573825
1692594406919,-0.65895003,-0.75405,10.620001,-0.3843125,-0.208725,1.261425
1692594406948,-0.975,-0.67695004,11.118001,-0.2717,-0.1500125,1.050225
1692594406976,-0.56805,-0.76095,12.192,-0.15619999,-0.079475,0.81895
1692594407007,-0.71895003,-0.37800002,11.479051,0.0449625,0.086625,0.41181248
1692594407038,-0.28800002,-0.26805001,11.28495,0.177375,0.16665,0.094875
1692594407067,-0.13995,-0.33,11.59605,0.2349875,0.1684375,-0.0666875
1692594407101,-0.19695,-0.38700002,12.252001,0.3168,0.1225125,-0.3914625
1692594407127,-0.126,-0.22695,11.379001,0.3201,0.0798875,-0.53061247
1692594407156,0.381,-0.483,10.83495,0.304975,0.0380875,-0.6263125
1692594407184,0.010050001,-0.81105006,11.19705,0.26345,-0.034375,-0.6494125
1692594407212,-0.25500003,-1.0309501,11.829,0.230725,-0.0749375,-0.5897375
1692594407241,0.39795002,-1.47405,13.329,0.102437496,-0.1230625,-0.359425
1692594407269,-0.06105,-0.9670501,10.89,0.0213125,-0.1172875,-0.2217875
1692594407299,-0.06105,-0.9670501,10.89,0.0213125,-0.1172875,-0.2217875
1692594407327,0.36705002,-1.5460501,12.946051,-0.120175,-0.112475,0.0341
1692594407353,0.30705002,-1.33095,13.564051,-0.1230625,-0.086899996,0.071225
1692594407388,0.80700004,-1.2250501,12.3,-0.1412125,-0.08635,0.16995
1692594407418,0.75195,-0.9670501,12.25905,-0.146025,-0.162525,0.135025
1692594407448,-0.12105001,-0.8880001,11.34,-0.128975,-0.19635,0.0677875
1692594407477,-0.93195003,-1.8240001,11.25195,-0.080025,-0.223575,-0.021175
1692594407505,0.18,-2.93895,12.982051,-0.0638,-0.1720125,-0.0092124995
1692594407534,-0.123,-2.523,11.79705,-0.0842875,-0.0851125,0.087175
1692594407565,-0.59205,-2.4150002,9.265051,-0.262625,0.0193875,0.5049
1692594407594,-1.5190501,-2.56995,9.34605,-0.35805,0.017324999,0.68805
1692594407624,-0.94395006,-2.79795,10.516951,-0.46035,0.0551375,0.80025
1692594407653,-0.60195005,-2.2470002,9.117001,-0.489225,0.1183875,0.7671125
1692594407682,-2.18205,-0.58095,7.39095,-0.49774998,0.230725,0.632225
1692594407710,-2.9020503,-0.23700002,4.8970504,-0.4450875,0.2646875,0.51919997
1692594407738,-0.95895004,-0.98595005,9.10005,-0.3342625,0.3389375,0.3735875
1692594407768,0.61305004,-0.44505003,11.19705,-0.0221375,0.653675,0.08085
1692594407796,0.79995006,0.16905001,9.519,0.124025,0.7294375,-0.1764125
1692594407825,0.18495001,1.07595,6.9910502,0.43395,0.438075,-1.19955
1692594407854,-1.4470501,0.53505003,8.55195,0.605,0.26785,-1.7293375
1692594407883,-0.717,0.17595,8.703,0.0875875,0.0457875,-2.23905
1692594407911,0.54795,-0.47100002,6.8950505,-0.13365,0.0793375,-2.2451
1692594407940,0.22995001,-0.47595003,7.14195,-0.279125,0.1456125,-2.1333125
1692594407970,0.18705001,-0.186,8.62605,-0.1060125,0.067925,-1.5439875
1692594407997,-0.19500001,0.20295002,7.6399503,-0.0732875,-0.0548625,-1.1709499
1692594408028,-0.48000002,0.88995004,7.5199504,-0.019524999,-0.1923625,-0.7530875
1692594408056,0.86205006,0.49695003,13.480051,0.058575,-0.180125,-0.7525375
1692594408086,-1.2100501,1.32105,13.569,0.29645,-0.102025,-0.9315625
1692594408114,-2.7589502,2.15595,9.77505,0.3972375,-0.086625,-0.98175
1692594408145,-1.404,1.368,8.722051,0.4643375,-0.053625,-1.0093875
1692594408173,-0.537,0.11400001,10.375951,0.6122875,0.219725,-1.309825
1692594408202,-0.72900003,0.058950003,10.087951,0.61765,0.365475,-1.39095
1692594408231,-0.252,-0.028050002,9.49995,0.4653,0.286,-1.1081125
1692594408266,0.12495001,0.15195,9.28695,0.1065625,0.1084875,-0.483175
1692594408295,0.079050004,0.112050004,9.00405,-0.007975,0.0424875,-0.2781625
1692594408325,-0.051000003,0.030000001,9.658051,-0.0746625,-0.0306625,-0.113575
1692594408356,0.45000002,-0.17205001,10.43805,-0.118525,-0.17215,0.15455
1692594408382,0.64695,-0.105000004,9.727051,-0.1442375,-0.246675,0.25135
1692594408417,0.024,0.56205004,8.89395,-0.1637625,-0.2811875,0.2630375
1692594408439,-0.11595,0.75795,8.752951,-0.1727,-0.3183125,0.267025
1692594408470,0.156,0.55905,8.779051,-0.0935,-0.31845,0.1266375
1692594408498,0.22095,0.60705,8.55195,0.0669625,-0.21285,-0.125675
1692594408525,0.46905002,0.76500005,8.03205,0.120037496,-0.1747625,-0.1775125
1692594408555,0.63000005,0.72,8.025001,0.148225,-0.157025,-0.17875
1692594408586,0.49605003,0.44205,9.232051,0.1810875,-0.17407499,-0.1381875
1692594408614,1.0030501,0.141,10.12905,0.1912625,-0.202675,-0.1131625
1692594408643,0.75000006,0.588,9.74895,0.1381875,-0.2539625,-0.023375
1692594408670,0.01695,1.3729501,8.533051,0.0779625,-0.272525,0.04015
1692594408700,-0.10605001,1.4470501,8.334001,0.0457875,-0.2553375,-0.003575
1692594408730,0.66795003,0.73200005,9.67695,0.114125,-0.19139999,-0.2068
1692594408757,0.87405,0.52605003,10.182,0.2046,-0.111925,-0.46048748
1692594408785,0.85695004,0.59505004,9.12405,0.2503875,-0.0540375,-0.6106375
1692594408815,0.72300005,0.80100006,9.18105,0.1852125,-0.089375,-0.4554
1692594408853,0.35505003,1.3230001,9.555,0.058025,-0.166925,-0.064075
1692594408879,0.21105,1.9960501,8.0130005,0.0515625,-0.1516625,0.08525
1692594408907,0.048,2.5560002,7.0030503,0.0947375,-0.112475,0.0193875
1692594408937,0.98205006,2.28495,7.9489503,0.185625,-0.06765,-0.1530375
1692594408966,1.812,1.7830501,8.620951,0.483725,-0.028324999,-0.635525
1692594408993,1.6540501,1.8829501,9.02805,0.5984,-0.0746625,-0.72214997
1692594409029,1.4629501,1.5840001,9.082951,0.5819,-0.2946625,-0.3496625
1692594409057,-0.066,1.4449501,7.8310504,0.495825,-0.383625,-0.0969375
1692594409085,-0.49905002,0.54,8.68605,0.31405,-0.37015,0.1502875
1692594409114,-0.915,-1.194,9.406051,0.2248125,-0.2468125,0.152625
1692594409142,-2.22195,-1.3450501,8.4199505,0.102575,-0.0504625,0.1461625
1692594409170,-2.73705,-2.07495,8.599951,-0.3623125,0.4530625,0.4357375
1692594409199,0.321,-3.9060001,11.24205,-0.8971875,1.0516,1.0177749
1692594409227,0.42195,-3.4609501,9.50205,-1.1529375,1.2373625,1.4936625
1692594409255,-0.45600003,-2.5080001,8.84895,-1.4586,1.16435,2.270125
1692594409284,0.28800002,-2.28795,11.185051,-1.8895249,0.404525,3.7646124
1692594409311,0.01905,-2.049,11.27805,-1.81885,0.0595375,3.8557749
1692594409342,-1.1880001,-1.39005,10.90005,-1.3179375,-0.2547875,3.0559375
1692594409371,-1.74405,-0.9979501,11.139001,-1.0395,-0.2794,2.53935
1692594409400,-0.24300002,-1.9650002,11.89095,-0.53267497,-0.07645,1.643675
1692594409429,-0.17595,-1.9459502,12.71895,-0.3276625,0.0757625,1.2854875
1692594409458,-0.846,-1.2250501,11.314051,-0.194975,0.1533125,1.0032
1692594409485,-0.597,-0.97905004,11.017051,-0.0928125,0.0831875,0.5385875
1692594409517,0.010050001,-1.25205,12.484051,-0.041249998,0.058849998,0.27885
1692594409545,-0.44595003,-1.04595,12.4129505,0.0974875,0.0666875,-0.1912625
1692594409573,-1.12605,-0.87105006,12.085051,0.1527625,0.0413875,-0.3653375
1692594409603,-1.8420001,-1.26405,11.055,0.19139999,0.0132,-0.496375
1692594409632,-0.14895001,-2.29305,14.253,0.2305875,0.0724625,-0.568975
1692594409660,-0.034950003,-2.59695,14.398951,0.216975,0.13213749,-0.5061375
1692594409691,-0.83205,-2.56605,12.127951,0.0633875,0.0996875,-0.2728
1692594409719,-0.27195,-3.3390002,13.50405,-0.04895,0.022,-0.16445
1692594409747,-0.79305005,-2.97705,14.86095,-0.2360875,-0.050875,0.0323125
1692594409777,-1.9039501,-2.1730502,12.80805,-0.314325,-0.061325,0.16885
1692594409803,-1.9090501,-2.214,12.307051,-0.3707,-0.075075,0.3029125
1692594409832,-0.80295,-3.1999502,13.984951,-0.3251875,0.0240625,0.34925
1692594409862,-0.92295,-3.4300501,13.356001,-0.216975,0.19813749,0.2253625
1692594409889,-0.95895004,-3.70005,12.322051,-0.22453749,0.183425,0.2311375
1692594409921,-0.60195005,-4.01595,11.500951,-0.3251875,0.0455125,0.35915
1692594409950,-1.011,-3.4780502,10.42605,-0.39435,-0.011825,0.4387625
1692594409980,-1.3609501,-2.8620002,9.94005,-0.5108125,-0.0815375,0.5498625
1692594410010,-1.7170501,-1.74705,8.755051,-0.5237375,-0.0834625,0.5732375
1692594410039,-0.91095006,-1.02405,7.6969504,-0.420475,-2.75E-4,0.584925
1692594410069,-0.303,-1.0360501,7.1659503,-0.297275,0.0713625,0.5432625
1692594410098,-0.12105001,-0.17895001,8.455951,-0.13805,0.1342,0.4208875
1692594410126,0.19905001,0.91605,8.061001,0.1992375,0.1549625,-0.151525
1692594410154,0.50295,1.12695,7.6039505,0.381425,0.1307625,-0.5808
1692594410183,0.192,1.4430001,9.28905,0.85195,0.0966625,-1.6361125
1692594410222,0.41205,2.6179502,6.7330503,1.0773125,0.0675125,-2.1385374
1692594410245,0.73005,1.77795,3.7810502,1.38545,-0.0352,-2.8224626
1692594410275,0.67095006,0.09705,8.734051,1.4818375,-0.101475,-2.97
1692594410302,0.89595,-0.55005,8.956051,1.5255625,-0.1848,-2.94525
1692594410330,-0.17295001,-0.036000002,7.2709503,1.2573,-0.3634125,-2.2239249
1692594410359,0.07005,-0.35595003,6.852,0.9290875,-0.4010875,-1.6037999
1692594410388,-0.28605002,-0.12195001,8.08005,0.5809375,-0.37895,-1.0076
1692594410416,0.30405003,0.43005002,8.7960005,0.03025,-0.0925375,-0.1692625
1692594410444,0.45495003,1.09605,7.8120003,-0.0125124995,-0.015675,-0.06325
1692594410480,1.22595,1.005,9.50205,0.0776875,-0.0193875,-0.0826375
1692594410503,1.1539501,0.588,10.584001,0.20295,-0.091299996,-0.2233
1692594410538,0.44595003,0.34395,10.608001,0.320375,-0.1925,-0.3443
1692594410564,-0.32205,0.22695,11.059951,0.327525,-0.3389375,-0.339625
1692594410601,-0.822,0.17895001,10.866,0.1318625,-0.164725,-0.298375
1692594410635,-0.564,0.21705002,11.05095,0.0446875,0.00385,-0.298925
1692594410658,-0.27600002,0.363,10.57905,-0.0653125,0.2784375,-0.3243625
1692594410685,0.04095,0.291,9.86295,-0.084425,0.340175,-0.3465
1692594410714,0.84495,-0.25305,9.910951,-0.084425,0.3430625,-0.3278
1692594410743,0.651,-0.11505,9.0709505,-0.0787875,0.19525,-0.0969375
1692594410771,0.9979501,-0.22200002,8.997001,-0.0961125,0.073699996,0.049225
1692594410802,1.28805,-0.294,9.516001,-0.1233375,-0.0462,0.1596375
1692594410830,0.86895007,0.064050004,10.339951,-0.1621125,-0.2228875,0.31239998
1692594410859,0.20595,0.39195,9.9210005,-0.16499999,-0.286825,0.40974998
