@ HyperIMU - ianovir
@ Date:Mon Aug 21 08:17:19 GMT+03:00 2023, Sampling Rate:25ms

timestamp,bma4xy_accelerometer.x,bma4xy_accelerometer.y,bma4xy_accelerometer.z,oem_pseudo_gyro.x,oem_pseudo_gyro.y,oem_pseudo_gyro.z
1692595040048,-0.21405001,0.38700002,9.946951,0.0323125,0.0451,-0.1659625
1692595040088,-0.25995,0.54300004,9.792001,0.0367125,0.014712499,-0.1337875
1692595040109,-0.31905,0.51195,9.753,0.0378125,0.0031625,-0.1233375
1692595040142,-0.28605002,0.45195,9.79905,0.0451,-0.0042625,-0.149325
1692595040170,-0.23595001,0.36600003,9.7890005,0.0642125,-0.007425,-0.2649625
1692595040193,-0.26700002,0.38205,9.7890005,0.0627,-0.0056375,-0.2855875
1692595040221,-0.18105,0.411,9.825001,0.051975,-0.0050875,-0.256025
1692595040249,-0.18300001,0.483,9.7890005,0.0259875,-0.0067375,-0.14093749
1692595040276,-0.18795002,0.45195,9.721951,0.017875,-0.013062499,-0.120725
1692595040306,-0.25005,0.48795003,9.700951,0.0155375,-0.02035,-0.1379125
1692595040333,-0.20505,0.46605003,9.712951,0.0229625,-0.0276375,-0.1934625
1692595040362,-0.15900001,0.46095002,9.724951,0.02695,-0.0237875,-0.17875
1692595040388,-0.171,0.41595003,9.74895,0.0257125,-0.0154,-0.11605
1692595040416,-0.17805001,0.46800002,9.871051,0.020624999,-0.0125124995,-0.089925
1692595040446,-0.14205001,0.43500003,9.918,0.0149875,-0.0116875,-0.036849998
1692595040474,-0.18495001,0.46095002,9.79605,0.00715,-0.0180125,0.089237496
1692595040501,-0.15705001,0.46095002,9.705001,0.0050875,-0.021724999,0.0837375
1692595040531,-0.171,0.51195,9.772051,0.005775,-0.0221375,-0.006325
1692595040558,-0.079950005,0.47595003,9.693001,0.0077,-0.0188375,-0.006325
1692595040590,-0.17295001,0.492,9.883051,0.012375,-0.0182875,0.074525
1692595040618,-0.40995002,0.61695004,9.8230505,0.0127875,-0.020624999,0.097075
1692595040645,-0.573,0.82800007,9.54705,0.0121,-0.018424999,0.098037496
1692595040676,-0.59505004,0.69105005,9.607051,0.036025,0.026124999,0.0020625
1692595040704,-0.60195005,0.65805006,9.579,0.0642125,0.0636625,-0.0933625
1692595040731,-0.20700002,0.24105,10.242001,0.094875,0.122375,-0.1744875
1692595040761,-0.17805001,0.33405003,10.255951,0.08635,0.1324125,-0.1219625
1692595040788,0.04605,0.36600003,9.81795,0.0243375,0.0834625,0.0972125
1692595040817,0.00795,0.41295,9.535951,-0.0198,0.0319,0.2068
1692595040846,-0.03705,0.36795002,9.63405,-0.0543125,-0.0188375,0.265375
1692595040870,0.14400001,0.117000006,9.85095,-0.073699996,-0.0859375,0.225775
1692595040901,0.22995001,-0.112050004,9.76305,-0.070675,-0.10175,0.1903
1692595040921,0.010050001,0.15495001,9.46605,-0.070675,-0.110275,0.1758625
1692595040956,0.094050005,0.23895001,9.65505,-0.0961125,-0.116875,0.186725
1692595040986,-0.171,0.354,9.922951,-0.109725,-0.1150875,0.171875
1692595041014,0.120000005,0.23595001,10.1629505,-0.1013375,-0.1029875,0.0917125
1692595041045,-0.34305,0.55905,9.688951,-0.087175,-0.09405,0.0735625
1692595041073,-0.25995,0.62595004,9.43305,-0.0605,-0.0671,0.1175625
1692595041103,-0.18300001,0.42495003,10.005,-0.0352,-0.036575,0.131175
1692595041136,-0.23295002,0.34395,10.030951,0.039875,0.0429,0.0677875
1692595041168,-0.31500003,0.507,9.61005,0.056649998,0.058849998,-0.0996875
1692595041196,-0.21195,0.44505003,10.07205,0.042625,0.0545875,-0.1727
1692595041222,-0.022950001,0.342,9.916051,0.03135,0.0561,-0.208175
1692595041250,-0.17595,0.37305,10.13595,0.0243375,0.053075,-0.223025
1692595041278,-0.303,0.49695003,9.92595,0.0243375,0.053075,-0.223025
1692595041309,-0.432,0.65295005,9.36795,0.012375,0.016224999,-0.225225
1692595041339,-0.44400004,0.65505004,9.580951,0.026675,0.0287375,-0.1607375
1692595041381,-0.44400004,0.65505004,9.580951,0.026675,0.0287375,-0.1607375
1692595041403,-0.44400004,0.65505004,9.580951,0.026675,0.0287375,-0.1607375
1692595041434,-0.11400001,0.31005,9.865951,0.065175,0.0504625,-0.0583
1692595041458,-0.11400001,0.31005,9.865951,0.065175,0.0504625,-0.0583
1692595041489,-0.11400001,0.31005,9.865951,0.065175,0.0504625,-0.0583
1692595041515,-0.27195,0.38895002,9.835051,-0.04015,-0.0081124995,0.2267375
1692595041554,-0.27195,0.43005002,9.7890005,-0.0622875,-0.001925,0.3059375
1692595041573,-0.19005,0.42495003,9.67395,-0.0477125,0.014712499,0.2816
1692595041604,-0.11100001,0.38205,9.682051,-0.031625,0.020624999,0.2363625
1692595041648,-0.21900001,0.47595003,9.736951,-0.0097624995,0.0108624995,0.110275
1692595041683,-0.18300001,0.46395,9.8539505,0.0094875,-0.014162499,-0.064075
1692595041709,-0.20700002,0.39900002,9.98295,0.015262499,-0.02585,-0.1538625
1692595041738,-0.25500003,0.492,9.744,0.01595,-0.0374,-0.26455
1692595041762,-0.22605,0.46800002,9.712951,0.011275,-0.0345125,-0.2701875
1692595041800,-0.135,0.411,9.85095,0.006325,-0.0254375,-0.24475
1692595041837,-0.14895001,0.44205,9.76305,0.002475,-0.00935,-0.1211375
1692595041848,-0.22605,0.47295,9.76095,5.5E-4,-0.00385,-0.0262625
1692595041877,-0.18300001,0.46605003,9.82005,8.25E-4,-0.0053625,-0.0281875
1692595041904,-0.14895001,0.40095,9.8539505,0.002475,-0.0070125,-0.0449625
1692595041933,-0.21405001,0.47805002,9.625951,0.0033,-0.0031625,-0.042075
1692595041960,-0.19500001,0.44895002,9.604951,-1.375E-4,-0.0031625,0.018975
1692595041987,-0.17595,0.43695003,9.688951,-0.0026125,-0.0028875,0.0983125
1692595042016,-0.16395001,0.46395,9.76305,0.0037125,-4.125E-4,0.0680625
1692595042043,-0.24495001,0.50205004,9.768001,0.00825,-0.0012375,-0.0451
1692595042069,-0.19500001,0.49995002,9.708,0.0122375,-0.003575,-0.1794375
1692595042099,-0.19995001,0.51600003,9.835051,0.015262499,-4.125E-4,-0.16555
1692595042126,-0.20700002,0.54,9.847051,0.020075,0.0050875,-0.1214125
1692595042154,-0.20205002,0.58095,9.63405,0.0286,0.011,-0.0350625
1692595042184,-0.252,0.62595004,9.66495,0.0314875,0.0100375,-0.01375
1692595042210,-0.19005,0.555,9.82995,0.0402875,0.0070125,-0.0221375
1692595042238,-0.26895002,0.56895,9.898951,0.0435875,0.005775,-0.0328625
1692595042267,-0.27600002,0.57105005,9.813001,0.0306625,0.005225,-0.0149875
1692595042295,-0.24000001,0.59805006,9.705001,0.0297,0.0089375,0.0094875
1692595042322,-0.19995001,0.59295005,9.715051,0.029424999,0.0132,0.04015
1692595042350,-0.19305001,0.48000002,9.729,0.032175,0.01925,0.0606375
1692595042377,-0.09,0.42105,9.74895,0.0317625,0.0169125,0.033825
1692595042404,-0.28605002,0.43005002,9.804001,0.0259875,0.012375,0.014575
1692595042435,-0.31005,0.37995002,9.847051,-0.0078375,-0.0028875,0.032725
1692595042461,-0.38895002,0.44505003,9.648001,-0.0242,-0.0045375,0.0389125
1692595042490,-0.291,0.47595003,9.38895,-0.0372625,0.014712499,-0.0224125
1692595042516,-0.27195,0.43500003,9.468,-0.035475,0.0276375,-0.0738375
1692595042545,-0.21900001,0.43995002,9.696,-0.029975,0.0361625,-0.1057375
1692595042574,-0.32700002,0.50205004,9.67905,-0.0163625,0.0253,-0.0583
1692595042600,-0.30705002,0.47595003,9.682051,-0.0121,0.0196625,-0.0317625
1692595042630,-0.30705002,0.44205,10.066951,-0.0050875,0.0111375,-0.0292875
1692595042652,-0.216,0.39705002,10.179001,-0.0020625,0.0119624995,-0.042625
1692595042684,-0.44595003,0.43995002,9.729,-0.0020625,0.01375,-0.031075
1692595042711,-0.42000002,0.40095,9.648001,-0.0158125,0.0132,0.0144375
1692595042739,-0.33600003,0.25305,9.883051,-0.02035,0.0169125,-0.02035
1692595042769,-0.54,0.20805001,9.859051,-0.02145,0.0367125,-0.1612875
1692595042796,-0.312,0.13095,9.58605,-0.0323125,0.0429,-0.1837
1692595042822,-0.36,0.27,8.7310505,-0.0521125,0.0422125,-0.1596375
1692595042851,-0.24495001,0.126,9.62895,-0.09295,0.027224999,-0.001375
1692595042880,-0.17595,0.049950004,9.76305,-0.104775,0.0182875,0.1018875
1692595042908,-0.16605,0.0019500001,10.01895,-0.113437496,-0.0067375,0.1887875
1692595042936,-0.19695,0.033,9.765,-0.120175,-0.02475,0.177925
1692595042962,-0.25500003,-0.048,9.99495,-0.1293875,-0.0405625,0.168575
1692595042993,-0.17295001,-0.14805001,9.97605,-0.1392875,-0.047025,0.1120625
1692595043020,-0.19500001,-0.040050004,9.727051,-0.13915,-0.042075,0.0460625
1692595043048,-0.01995,-0.097950004,9.625951,-0.1397,-0.0411125,-0.034649998
1692595043076,-0.066,-0.15795001,9.613951,-0.1397,-0.0449625,-0.026675
1692595043104,-0.16605,-0.26805001,9.83205,-0.137225,-0.0499125,-0.0042625
1692595043132,-0.08205,-0.31305,9.889951,-0.1255375,-0.055,-0.016224999
1692595043160,-0.079950005,-0.28905,10.054951,-0.1230625,-0.0510125,-0.0677875
1692595043188,0.058050003,-0.294,10.155001,-0.132275,-0.0446875,-0.0856625
1692595043216,-0.030000001,-0.27,10.225051,-0.135575,-0.049775,-0.0339625
1692595043243,-0.09705,-0.165,9.859051,-0.1337875,-0.058849998,9.625E-4
1692595043271,0.036000002,0.052050002,9.47595,-0.1153625,-0.0704,-0.064899996
1692595043300,0.20895001,0.23895001,9.009001,-0.09405,-0.068475,-0.13585
1692595043328,0.15795001,0.21705002,9.42105,-0.012925,-0.0730125,-0.2233
1692595043357,0.14595,0.24300002,9.65505,0.039325,-0.0853875,-0.228525
1692595043383,0.16095,0.34905002,9.351001,0.087175,-0.0977625,-0.2413125
1692595043413,-0.025050001,0.38205,9.49995,0.143275,-0.1051875,-0.3334375
1692595043439,-0.19305001,0.43005002,9.993,0.15619999,-0.100375,-0.352
1692595043469,0.0049500004,0.45600003,9.82995,0.17407499,-0.0616,-0.3141875
1692595043492,-0.09705,0.72705,9.471001,0.1766875,-0.0306625,-0.3284875
1692595043524,-0.22395001,0.93495005,8.743051,0.1775125,-0.0044,-0.3779875
1692595043550,-0.24495001,0.83205,9.232051,0.1871375,0.011825,-0.4489375
1692595043581,-0.26205,0.60195005,9.693001,0.2446125,0.0356125,-0.6034875
1692595043607,-0.147,0.74595004,9.62895,0.2673,0.0506,-0.6281
1692595043633,-0.075,0.86295,9.62205,0.2459875,0.0735625,-0.470525
1692595043662,-0.12105001,1.16295,9.612,0.2190375,0.071775,-0.3656125
1692595043692,-0.08205,1.6129501,9.234,0.1958,0.0334125,-0.302225
1692595043720,-0.079950005,1.8589501,9.33195,0.214775,0.01155,-0.3389375
1692595043747,0.04605,1.83,9.7560005,0.2597375,-0.004675,-0.40507498
1692595043778,0.26595002,2.15595,9.279,0.3950375,-0.037125,-0.5847875
1692595043810,0.51495004,2.46,8.418,0.495825,-0.094875,-0.6851625
1692595043837,0.61095005,2.637,7.8,0.535425,-0.1364,-0.6917625
1692595043870,0.92700005,2.3740501,7.8310504,0.5808,-0.18535,-0.68694997
1692595043897,0.76605004,2.22105,7.6800003,0.6711375,-0.289575,-0.6433625
1692595043927,0.08205,2.3470502,5.80905,0.6788375,-0.3370125,-0.5702125
1692595043955,1.6330501,1.58895,7.52505,0.597575,-0.37565,-0.3554375
1692595043986,1.5589501,0.294,8.49705,0.54395,-0.3623125,-0.2770625
1692595044019,1.3810501,-1.2730501,8.77005,0.3465,-0.3724875,0.0144375
1692595044054,0.06705,-1.45305,8.418,0.12815,-0.382525,0.3562625
1692595044077,-2.06205,-1.4239501,7.7449503,-0.519475,-0.243925,1.34035
1692595044108,-2.148,-2.6590502,10.339951,-1.0256125,0.2237125,1.9710625
1692595044141,-1.1329501,-4.1290503,14.99295,-1.1631125,0.5897375,2.0394
1692595044172,-1.0710001,-3.3409503,12.56805,-1.4675375,1.112375,2.532475
1692595044200,-1.2940501,-2.2470002,9.777,-1.6465625,1.0494,3.0536
1692595044231,-1.914,-1.59105,10.146001,-1.6702125,0.5913875,3.486725
1692595044266,-1.557,-2.355,13.167001,-1.476475,0.438075,3.225475
1692595044299,-0.53205,-2.7600002,13.212001,-0.9783125,0.347875,2.405975
1692595044324,-0.89895004,-1.8019501,12.208951,-0.782375,0.293975,2.0602999
1692595044357,-0.93900007,-1.43595,12.23295,-0.522775,0.056375,1.4969625
1692595044385,-0.48000002,-1.40505,12.597,-0.407275,-0.0386375,1.2348875
1692595044417,-0.39600003,-1.02705,12.02295,-0.146575,-0.0895125,0.74855
1692595044442,-0.75705004,-0.141,10.339951,-0.0298375,-0.1012,0.5394125
1692595044474,-0.16395001,-0.342,10.278001,0.1588125,-0.126775,0.1892
1692595044508,-0.49395,-0.28500003,10.488001,0.3513125,-0.0793375,-0.19415
1692595044540,-0.504,-0.522,10.821,0.4192375,-0.0587125,-0.3784
1692595044574,-0.384,-0.55005,10.962001,0.42267498,-0.0539,-0.51755
1692595044605,-0.38595003,-0.39900002,10.416,0.377025,-0.0589875,-0.4657125
1692595044637,0.10305001,-0.069000006,10.242001,0.28985,-0.06875,-0.34759998
1692595044670,-0.13005,0.186,10.46205,0.2765125,-0.07425,-0.3334375
1692595044699,-0.71895003,0.44700003,10.656,0.30525,-0.0991375,-0.3837625
1692595044724,-0.59895,0.093,11.035951,0.3399,-0.0968,-0.4488
1692595044750,-0.82005006,0.006,11.55105,0.3796375,-0.0661375,-0.52085
1692595044786,-0.40305,-0.78000003,13.273951,0.4059,0.0317625,-0.5858875
1692595044813,-0.70995003,-0.79005,13.21905,0.29095,0.064899996,-0.4467375
1692595044842,-0.384,-1.33305,13.774951,0.18865,0.056925,-0.2825625
1692595044878,-0.46305,-1.28505,14.50905,-0.0312125,0.023375,0.2008875
1692595044911,-0.59205,-0.43305,12.80805,-0.20075,-0.033,0.577775
1692595044938,-1.07295,-0.08295,11.476951,-0.23485,-0.0584375,0.596475
1692595044970,-1.23105,-0.72705,12.352951,-0.14025,-0.036025,0.313775
1692595044998,-0.97305006,-1.4809501,13.473001,-0.055275,0.01705,0.165275
1692595045033,-0.77400005,-2.2380002,13.97595,-0.0070125,0.0752125,0.1282875
1692595045060,-0.89400005,-2.0629501,12.86295,-0.1243,0.1032625,0.4134625
1692595045094,-0.822,-1.6819501,11.70705,-0.360525,0.0275,0.786775
1692595045124,-0.39105,-1.2280501,10.675051,-0.427625,-0.0022,0.8966375
1692595045155,-0.078,-0.48600003,9.424951,-0.4134625,-0.03025,0.9255125
1692595045182,-0.33600003,0.12900001,8.470051,-0.3515875,-0.0462,0.8344875
1692595045215,-1.0900501,0.91395,5.703,-0.1387375,-0.0878625,0.4406875
1692595045249,-1.33395,1.4620501,4.67595,0.02145,-0.072875,0.1398375
1692595045282,1.17795,0.87495005,8.51595,0.383625,0.0917125,-0.520025
1692595045305,2.0659502,0.873,8.580001,0.556325,0.18287499,-0.8509875
1692595045342,-0.68595004,2.7640502,6.28305,0.8023125,-0.0224125,-1.567225
1692595045373,-0.89595,3.111,4.71495,0.8669375,-0.5097125,-2.08725
1692595045405,1.6999501,1.24395,6.0019503,0.978725,-0.501875,-2.413125
1692595045436,1.14705,0.70500004,7.1629505,1.302125,-0.2861375,-3.138575
1692595045472,1.3740001,0.45405003,9.342,1.0696125,-0.54202497,-2.5251875
1692595045498,2.0710502,0.13605,10.548,0.7610625,-0.681175,-1.780075
1692595045527,1.314,0.34395,7.5850506,0.44275,-0.738375,-1.0773125
1692595045561,1.7260501,0.279,9.871051,-0.077,-0.7536375,-0.1252625
1692595045591,1.4460001,0.43305,11.13,-0.314875,-0.658625,0.1326875
1692595045627,0.66105,0.88500005,9.30795,-0.34595,-0.5696625,0.0864875
1692595045653,0.86205006,0.61695004,8.80305,-0.3166625,-0.3782625,-0.1128875
1692595045688,0.79305005,0.60195005,8.6640005,-0.267025,-0.2655125,-0.27995
1692595045713,0.21105,0.71295005,8.52495,-0.2105125,-0.16005,-0.4412375
1692595045739,-0.69795,0.31005,9.291,-0.121,-0.022824999,-0.5209875
1692595045768,-0.54405004,0.08805001,9.96195,-0.0856625,0.1683,-0.4852375
1692595045797,-0.31500003,0.43995002,9.813001,-0.096525,0.3188625,-0.48235
1692595045828,-0.16905001,0.82305,10.087951,-0.12375,0.4565,-0.4613125
1692595045860,-0.32895002,1.14795,8.950951,-0.15125,0.54614997,-0.4169
1692595045892,-1.353,0.94200003,7.4790006,-0.03575,0.4384875,-0.51645
1692595045913,-0.99195004,0.054,9.576,0.0537625,0.395725,-0.6067875
1692595045948,0.097950004,-0.67005,11.938951,0.1172875,0.4582875,-0.57365
1692595045987,-0.39105,0.17595,9.744,0.0207625,0.4838625,-0.3169375
1692595046015,-0.34605002,0.58305,8.451,-0.2831125,0.3251875,0.3323375
1692595046040,-0.94200003,1.0189501,9.126,-0.3364625,0.2237125,0.41195
1692595046070,-1.4680501,1.24905,9.5140505,-0.1694,0.1535875,0.1332375
1692595046098,-1.3300501,1.0570501,9.535951,-0.0248875,0.187825,-0.0787875
1692595046127,-0.94905007,0.6,9.6,0.1111,0.2561625,-0.303325
1692595046158,-0.59895,0.36795002,11.299951,0.25547498,0.36245,-0.58685
1692595046190,-0.67395,0.81105006,10.597951,0.1557875,0.2794,-0.3784
1692595046216,-0.63495004,0.91395,9.64305,0.073699996,0.1967625,-0.2033625
1692595046244,-0.28095,0.837,8.470051,0.0229625,0.117975,-0.097075
1692595046275,-0.15900001,0.69795,9.780001,0.042625,0.0059125,-0.1804
1692595046307,0.15405001,0.75795,10.243951,0.0721875,-0.0367125,-0.251625
1692595046343,-0.14505,1.39995,8.937,0.0716375,-0.1274625,-0.119075
1692595046372,0.31395,1.215,9.21195,0.0748,-0.2198625,0.015125
1692595046402,0.38805002,1.1700001,9.59805,0.12265,-0.2481875,-0.028324999
1692595046432,0.15795001,1.2870001,8.913,0.22275,-0.2765125,-0.078099996
1692595046462,0.30900002,1.1770501,8.599951,0.2352625,-0.29067498,-0.0463375
1692595046490,0.39105,1.31295,8.67105,0.218625,-0.2924625,-0.0097624995
1692595046528,0.453,1.7560501,8.157001,0.20185,-0.2792625,-0.03355
1692595046556,0.546,1.9260001,7.5919504,0.2080375,-0.2762375,-0.0642125
1692595046587,0.21300001,2.1010501,7.5700502,0.28861248,-0.27225,-0.2583625
1692595046620,0.39795002,1.7869501,8.19495,0.350075,-0.275275,-0.4008125
1692595046651,0.84795004,1.5670501,8.647051,0.4301,-0.2473625,-0.53295
1692595046682,0.120000005,2.15595,7.7209506,0.41799998,-0.2222,-0.4681875
1692595046713,0.52500004,2.12505,7.2229505,0.375925,-0.2058375,-0.36313748
1692595046743,0.28995,1.692,7.254,0.32587498,-0.1898875,-0.25547498
1692595046774,0.036000002,0.41805002,7.6420503,0.3568125,-0.1728375,-0.238425
1692595046802,0.45000002,-0.282,10.05,0.30965,-0.1397,-0.161425
1692595046837,0.89595,-1.1370001,11.26095,-0.0730125,0.033275,0.3119875
1692595046867,1.6210501,-1.1010001,7.86495,-0.37785,0.1274625,0.7255875
1692595046897,0.67305005,-0.95205003,8.049001,-0.6853,0.1744875,1.194875
1692595046929,-1.04505,-1.8829501,11.553,-1.04335,0.07535,1.9003875
1692595046958,-0.46095002,-2.6179502,12.858001,-1.0495375,0.06215,2.085875
1692595046986,-0.19305001,-2.1079502,9.96195,-1.0549,0.20185,2.1525624
1692595047012,-0.74805003,-2.2740002,11.247001,-1.1257125,0.391875,2.377375
1692595047049,1.0180501,-2.6830502,13.083,-1.05105,0.2701875,2.31165
1692595047078,0.86895007,-1.8360001,11.368951,-0.9667625,0.1837,2.1737375
1692595047105,0.17505,-1.24395,10.49295,-0.8745,0.075625,1.9793125
1692595047140,0.61800003,-1.35195,11.934001,-0.6235625,-0.1447875,1.3745875
1692595047169,0.69405,-0.57405,10.90005,-0.3147375,-0.17545,0.790625
1692595047196,0.052950002,-0.13095,9.98805,-0.180125,-0.16293749,0.5581125
1692595047227,-0.48900002,-0.50505,11.26095,-0.056649998,-0.153725,0.3199625
1692595047257,-0.07305,-1.20105,13.729051,0.170775,-0.05995,-0.153175
1692595047285,-0.31005,-0.98595005,12.250051,0.2398,0.0301125,-0.2915
1692595047315,-0.279,-0.91200006,10.60095,0.2264625,0.16733749,-0.3548875
1692595047345,-0.21195,-0.47595003,10.33005,0.183425,0.2011625,-0.4008125
1692595047379,0.321,-0.61005,10.416,0.121,0.2278375,-0.5533
1692595047410,0.72105,-0.711,9.922951,0.131725,0.18865,-0.6292
1692595047438,0.261,-0.66795003,10.33695,0.1419,0.134475,-0.6373125
1692595047474,0.66105,-0.83295006,11.2900505,0.115637496,2.75E-4,-0.587125
1692595047507,0.73005,-0.96900004,11.541,0.09405,-0.048125,-0.54285
1692595047534,0.43800002,-1.2229501,11.887951,0.055275,-0.1172875,-0.4307875
1692595047565,1.3219501,-1.86705,14.224951,0.034375,-0.146025,-0.353925
1692595047594,1.2589501,-1.31595,12.74295,-0.0301125,-0.1838375,-0.121275
1692595047628,0.321,-0.72300005,11.45505,-0.123475,-0.26455,0.259325
1692595047657,0.34695002,-0.69405,11.352,-0.12925,-0.2871,0.3876125
1692595047692,1.10895,-2.3410501,15.508051,-0.052249998,-0.1885125,0.3641
1692595047727,0.41895002,-1.5010501,12.489,-0.0521125,-0.0968,0.3576375
1692595047746,0.40695003,-1.2199501,11.41005,-0.0521125,-0.0968,0.3576375
1692595047784,1.3410001,-2.05095,12.657001,-0.126225,-0.100237496,0.5149375
1692595047812,0.84495,-1.9120501,12.337951,-0.15413749,-0.0917125,0.48688748
1692595047836,-0.24300002,-1.9050001,11.053051,-0.168025,-0.112475,0.4503125
1692595047863,-0.75705004,-2.13,11.56305,-0.182325,-0.1397,0.46873748
1692595047893,0.55305004,-2.5510502,12.07005,-0.1984125,-0.0572,0.6314
1692595047924,0.72105,-1.9120501,10.77105,-0.2035,0.0400125,0.7030375
1692595047958,-0.06105,0.0019500001,6.5389504,-0.22165,0.082499996,0.708125
1692595047989,-0.52500004,0.25995,5.71995,-0.1395625,0.0066,0.4378
1692595048019,-0.29805002,0.351,6.22695,-0.032175,0.0284625,0.2189
1692595048046,1.314,0.07395,8.434051,0.2198625,0.1925,-0.40094998
1692595048077,0.71595,0.61005,8.118,0.326425,0.24145,-0.7847125
1692595048105,0.51495004,1.2100501,9.00195,0.404525,0.19965,-1.153625
1692595048132,1.07295,1.1580001,8.3550005,0.5160375,-0.005225,-1.72975
1692595048163,-0.81495005,1.266,6.6889505,0.591525,-0.045649998,-1.9611624
1692595048191,-1.014,1.1509501,8.773951,0.723525,-0.029975,-2.2239249
1692595048222,0.3,0.50895,8.533051,0.74387497,0.0418,-2.222275
1692595048250,-0.109050006,0.81600004,7.70205,0.700975,0.284625,-2.052875
1692595048279,-0.87195003,1.0360501,8.335951,0.6281,0.318725,-1.8233875
1692595048308,0.15105,0.68595004,9.126,0.4642,0.2655125,-1.2717375
1692595048337,-0.762,1.2220501,7.0680003,0.4167625,0.28325,-1.09285
1692595048368,-0.55395,1.455,8.34795,0.385275,0.2998875,-0.9491625
1692595048396,0.73800004,1.9020001,10.000051,0.3669875,0.2435125,-0.7222875
1692595048423,0.201,2.15805,9.40095,0.3949,0.20295,-0.6754
1692595048454,-0.85995007,1.7899501,8.113951,0.4752,0.0127875,-0.583
1692595048483,-0.441,0.96900004,9.373051,0.5044875,-0.0724625,-0.58575
1692595048511,0.65595,0.18105,9.865951,0.4664,-0.007975,-0.7462125
1692595048538,0.49605003,0.32700002,9.379951,0.3443,0.0374,-0.70042497
1692595048567,-0.042000003,0.74895006,8.32695,0.1535875,0.01815,-0.4659875
1692595048603,0.109950006,0.98505,9.271951,-0.1835625,-0.095837496,0.1651375
1692595048617,0.15795001,0.88005006,9.23595,-0.231,-0.1098625,0.302775
1692595048655,-0.16095,0.32205,11.055,-0.166375,-0.0864875,0.2143625
1692595048684,0.40005,-0.07395,11.448001,-0.1370875,-0.0724625,0.1018875
1692595048714,0.41895002,0.43995002,8.986951,-0.2189,-0.040425,0.04455
1692595048742,0.87600005,0.363,9.93795,-0.2921875,-0.0477125,0.1236125
1692595048769,0.55095005,0.53505003,10.648951,-0.315425,-0.1255375,0.2187625
1692595048798,0.29505002,0.66195005,9.612,-0.27225,-0.1706375,0.1926375
1692595048827,0.55305004,0.42795002,9.423,-0.1709125,-0.20955,0.0011
1692595048858,0.59895,0.15195,10.34895,-0.1247125,-0.1951125,-0.08525
1692595048890,0.63900006,0.61905,9.555,-0.0881375,-0.1544125,-0.0160875
1692595048914,1.01505,0.96195006,8.455951,-0.0985875,-0.14533749,0.0820875
1692595048944,1.31895,1.4260501,8.52495,-0.09625,-0.145475,0.1486375
1692595048973,1.26405,1.7899501,8.17605,0.0209,-0.2039125,0.084975
1692595049002,1.176,1.7680501,8.4199505,0.1241625,-0.2638625,-0.0259875
1692595049032,0.73800004,1.8739501,8.88,0.3375625,-0.36465,-0.2825625
1692595049059,0.85695004,1.6129501,8.98305,0.40713748,-0.3735875,-0.4090625
1692595049089,0.85995007,1.0570501,9.363001,0.43285,-0.2926,-0.5878125
1692595049118,0.77805007,0.92595005,9.682051,0.393525,-0.2336125,-0.5797
1692595049148,0.61605,1.3230001,8.391001,0.213125,-0.13805,-0.4048
1692595049175,0.08895,1.4280001,8.71905,0.1155,-0.0968,-0.32175
1692595049209,0.19395001,2.13,8.278951,0.058849998,-0.0572,-0.27005
1692595049239,0.40500003,2.4720001,6.8590503,0.0917125,0.0323125,-0.29273748
1692595049266,2.0299501,2.7280502,5.952,0.1661,0.0664125,-0.4288625
1692595049295,1.5990001,3.051,7.9339504,0.4195125,-0.0397375,-0.8405375
1692595049324,0.28800002,3.1279502,7.5990005,0.566775,-0.215325,-0.9108
1692595049353,-0.609,3.2929502,6.2470503,0.687775,-0.40713748,-0.8479625
1692595049382,0.75705004,2.3470502,8.415,0.7887,-0.467225,-0.753775
1692595049410,2.3770502,0.76995003,11.46195,0.7469,-0.133375,-0.9560375
1692595049437,1.5370501,0.33195,10.372951,0.5982625,-0.0165,-0.8179875
1692595049467,0.31395,-0.028050002,9.75105,0.3001625,0.0259875,-0.362175
1692595049493,-1.452,-1.00995,7.7119503,-0.4321625,0.0782375,0.76175
1692595049523,-1.04505,-2.33295,10.347,-0.683925,0.1940125,1.0597125
1692595049553,1.2090001,-4.5810003,14.445001,-1.0245125,0.626725,1.4144624
1692595049579,-0.372,-3.897,13.684051,-1.2452,0.8237625,1.8068875
1692595049609,-0.74295,-2.4169502,10.111951,-1.5313375,0.87395,2.483525
1692595049639,-0.018000001,-2.154,9.04695,-1.7840625,0.7572125,3.2366126
1692595049669,0.21105,-2.3119502,10.363951,-1.782825,0.4390375,3.7257
1692595049697,-0.049050003,-2.45805,11.055,-1.3525875,0.227975,3.147925
1692595049727,1.19505,-2.877,12.15705,-1.15225,0.1106875,2.8435
1692595049759,0.55305004,-2.2039502,11.673,-0.8556625,-0.0974875,2.3401124
1692595049782,0.21105,-1.8360001,12.192,-0.7503375,-0.2165625,2.0975626
1692595049814,0.66105,-1.5460501,12.559051,-0.5291,-0.3672625,1.5311999
1692595049843,0.52695,-0.99300003,11.479051,-0.37895,-0.3381125,1.2414875
1692595049873,-0.14505,-0.57705003,10.809001,-0.06545,-0.20899999,0.703175
1692595049901,-0.65895003,-0.22200002,10.552951,0.0606375,-0.1511125,0.43835
1692595049929,0.13905,-0.55995005,10.52595,0.1667875,-0.0785125,0.19415
1692595049959,0.77805007,-0.74700004,11.11095,0.32285,0.1106875,-0.119075
1692595049987,0.120000005,0.009000001,10.52595,0.363275,0.1648625,-0.231
1692595050017,0.9670501,-0.45405003,11.809051,0.3829375,0.108899996,-0.545875
1692595050050,2.1000001,-0.97200006,14.16495,0.385825,0.06215,-0.6994625
1692595050072,0.915,-0.79905003,13.333951,0.3696,-0.0363,-0.8553875
1692595050105,0.20595,-0.873,12.561001,0.3216125,-0.121825,-0.8415
1692595050131,0.67800003,-1.86195,14.0449505,0.1835625,-0.19965,-0.65793747
1692595050161,0.381,-2.11305,13.64805,0.1189375,-0.153175,-0.529375
1692595050193,0.14895001,-1.9939501,13.236001,-0.044825,-0.04895,-0.1947
1692595050226,-0.291,-1.5439501,13.2289505,-0.13805,-0.0196625,0.0122375
1692595050255,-0.43395,-1.4070001,12.231001,-0.2341625,0.044825,0.351725
1692595050282,-0.13305001,-1.5460501,11.830951,-0.22055,0.0939125,0.414425
1692595050310,-0.35505003,-1.6609501,11.347051,-0.151525,0.1857625,0.3584625
1692595050338,-0.006,-2.022,10.6369505,-0.128975,0.203775,0.3207875
1692595050367,0.075,-2.2020001,10.390051,-0.1211375,0.2017125,0.318175
1692595050398,-0.042000003,-2.187,9.898951,-0.168025,0.14533749,0.4434375
1692595050425,0.18195,-3.08505,11.39805,-0.2176625,0.098037496,0.531025
1692595050457,-0.38205,-2.496,11.908051,-0.3234,0.008525,0.696025
1692595050489,-0.03705,-1.4770501,10.12395,-0.4153875,-0.0391875,0.8212875
1692595050517,0.29205,-0.95505005,8.95905,-0.4074125,-0.0279125,0.7464875
1692595050546,0.16095,-0.72495,8.53695,-0.3361875,0.00275,0.5522
1692595050572,-0.56100005,0.17205001,7.8289504,-0.0754875,0.0561,-0.0034375
1692595050599,0.16800001,0.26700002,8.620951,0.056649998,0.080575,-0.3114375
1692595050628,1.04205,0.58095,9.736951,0.187825,0.1313125,-0.6611
1692595050655,1.14705,0.61005,8.785951,0.4719,0.243375,-1.4918749
1692595050685,0.075,1.27995,9.4800005,0.5949625,0.2044625,-1.903275
1692595050714,-0.64005005,1.371,8.125951,0.738375,-0.0037125,-2.4094124
1692595050742,0.43095002,0.708,6.79995,0.7803125,-0.0364375,-2.489575
1692595050777,1.1920501,0.231,6.9670506,0.8185375,0.0697125,-2.443925
1692595050810,0.90000004,0.44505003,7.5420003,0.6656375,-0.016775,-1.9240375
1692595050835,0.75195,0.43005002,7.93905,0.5449125,-0.1529,-1.5448124
1692595050859,0.20400001,0.42495003,7.9099503,0.439725,-0.2662,-1.205325
1692595050889,-0.135,0.56205004,7.80495,0.30621248,-0.2982375,-0.7332875
1692595050915,0.14895001,0.73395,8.09895,0.2668875,-0.22,-0.5608625
1692595050950,0.24405001,1.19895,8.286,0.24365,-0.109037496,-0.4208875
1692595050977,1.1230501,1.1359501,8.740951,0.263175,0.059675,-0.302225
1692595051007,1.5079501,0.84405005,9.33405,0.3070375,0.0708125,-0.3301375
1692595051035,1.1659501,0.82800007,9.0070505,0.370975,-0.1016125,-0.328075
1692595051063,0.89805007,0.81105006,8.620951,0.3471875,-0.232925,-0.2234375
1692595051091,0.60105,0.85095006,9.34395,0.24007499,-0.3430625,0.0155375
1692595051121,0.99105006,0.46395,11.07495,0.197175,-0.3045625,0.060775
1692595051149,1.3579501,0.38700002,11.955001,0.1051875,-0.1533125,0.061325
1692595051178,0.89100003,0.708,10.96695,0.030524999,-0.0928125,0.095425
1692595051208,0.68700004,0.88500005,9.942,-0.0474375,-0.0617375,0.1483625
1692595051234,0.70395005,0.59295005,9.835051,-0.1040875,-0.03575,0.13035
1692595051263,0.66300005,0.411,10.1650505,-0.0782375,-0.0125124995,0.054725
1692595051292,0.75705004,0.40605003,10.668,-0.0386375,0.040975,-0.0033
1692595051321,0.666,0.73200005,9.684,-0.05335,0.05995,0.0309375
1692595051350,0.46005002,0.85605,8.986951,-0.0768625,0.0691625,0.071225
1692595051384,0.08400001,0.94005007,9.471001,-0.07535,0.0647625,0.081675
1692595051413,0.22305001,0.78900003,8.743051,0.014025,0.091025,0.009625
1692595051441,0.17295001,0.76305,8.133,0.057475,0.1227875,-0.045925
1692595051470,0.33105,0.37995002,8.929951,0.090475,0.1725625,-0.1687125
1692595051499,0.64905006,-0.00705,9.7560005,0.082499996,0.1775125,-0.1868625
1692595051529,0.51000005,-0.40905002,10.278001,0.0529375,0.1711875,-0.12979999
1692595051557,-0.40800002,-0.11505,8.688001,-0.093225,0.1364,0.2800875
1692595051585,-0.61395,0.186,8.323951,-0.1827375,0.1274625,0.5179625
1692595051615,0.13395001,0.54495,8.2570505,-0.2712875,0.2195875,0.677325
1692595051646,0.29505002,1.1509501,8.73795,-0.25025,0.2971375,0.6032125
1692595051674,0.513,1.8880501,10.1320505,-0.0895125,0.2965875,0.25465
1692595051704,0.18495001,1.6489501,11.06295,0.053075,0.2046,-0.02365
1692595051732,-0.015000001,1.2870001,10.52595,0.35915,0.0100375,-0.6424
1692595051760,-0.015000001,0.89205,9.769951,0.432575,-0.039875,-0.8399875
1692595051790,-0.022950001,0.91095006,8.679001,0.3669875,-0.023375,-0.83187497
1692595051816,-0.29805002,1.143,8.48505,0.28105,0.0094875,-0.6873625
1692595051846,-0.030000001,1.179,8.809951,0.203225,0.0400125,-0.528
1692595051874,-0.027,1.4280001,8.961,0.1387375,0.0924,-0.3207875
1692595051903,0.072000004,1.7560501,8.95905,0.1420375,0.1018875,-0.27335
1692595051934,-0.10395,2.02005,9.351001,0.18287499,0.0628375,-0.2723875
1692595051963,-0.34305,2.46495,9.09,0.225225,0.0270875,-0.3399
1692595051992,-0.23295002,2.733,8.53995,0.3482875,-0.021724999,-0.564025
1692595052024,0.052950002,2.7949502,8.956051,0.4327125,-0.0286,-0.72765
1692595052053,0.15795001,2.3710501,8.101951,0.5938625,-0.0627,-1.0302875
1692595052082,0.80205005,1.6650001,8.73795,0.6274125,-0.090475,-1.034825
1692595052110,0.80700004,1.27005,8.575951,0.54408747,-0.1302125,-0.66728747
1692595052140,-0.15900001,0.68100005,6.8500504,0.4137375,-0.153175,-0.325325
1692595052167,-0.57105005,0.246,7.5270004,0.0748,-0.1353,0.40507498
1692595052195,1.5439501,-0.87795,11.13,-0.0812625,-0.015125,0.6527125
1692595052227,2.571,-1.8739501,11.2570505,-0.2393875,0.155925,0.8734
1692595052261,-0.633,-0.53295004,8.953951,-0.6953375,0.2022625,1.852125
1692595052294,0.18900001,-0.41595003,11.517,-0.92303747,0.0160875,2.4541
1692595052320,0.78300005,-0.85200006,11.149051,-1.0088375,-0.1472625,2.7053125
1692595052347,-0.030000001,-0.85200006,10.48305,-0.8031375,0.0281875,2.2968
1692595052374,-0.09,-1.1410501,11.28495,-0.7192625,0.0694375,2.1547625
1692595052407,-0.74805003,-0.88500005,11.25195,-0.6551875,0.094325,2.052325
1692595052433,-0.73395,-0.78495,9.31995,-0.559075,0.1907125,1.8766
1692595052463,-0.24000001,-0.82095003,10.549951,-0.51301247,0.2583625,1.763575
1692595052491,0.20595,-0.38700002,10.91205,-0.394075,0.3557125,1.4586
1692595052521,-0.0010500001,0.00405,10.404,-0.3301375,0.33385,1.309825
1692595052549,-0.40800002,0.64095,9.954,-0.260425,0.26125,1.160775
1692595052579,-0.504,0.63105005,9.61695,-0.07975,0.1131625,0.74909997
1692595052606,0.027,0.15195,11.14605,0.0367125,0.099275,0.4723125
1692595052636,0.68295,-0.28695002,12.670951,0.23705,0.123475,0.0286
1692595052671,0.12705001,0.32700002,11.34,0.225775,0.029975,-0.0059125
1692595052694,0.043050002,0.60195005,10.552951,0.1722875,-0.0463375,0.0055
1692595052723,0.132,0.68100005,10.972051,0.137225,-0.0974875,-0.043449998
1692595052752,-0.25005,0.72900003,11.023951,0.1705,-0.0900625,-0.2556125
1692595052780,-0.58500004,0.82995003,11.299951,0.2116125,-0.0633875,-0.379225
1692595052811,0.71400005,0.82305,13.179001,0.27115,0.00715,-0.6142125
1692595052841,1.3789501,0.68100005,13.2289505,0.2800875,0.0405625,-0.6744375
1692595052870,-0.29295,1.24905,11.55105,0.26565,-0.0160875,-0.65835
1692595052900,-0.61395,0.933,12.087001,0.2600125,-0.0947375,-0.6282375
1692595052928,0.735,-0.097950004,13.444051,0.2580875,-0.100925,-0.5542625
1692595052957,0.63495004,-0.37095,13.830001,0.2242625,-0.0347875,-0.4525125
1692595052986,-0.075,0.19800001,13.200001,0.1412125,2.75E-4,-0.2635875
1692595053016,-0.65505004,0.231,11.680051,-0.087725,-0.037675,0.237325
1692595053044,-0.9799501,0.0,11.304001,-0.1507,-0.0328625,0.373175
1692595053072,-0.79095006,-0.060000002,10.46895,-0.16445,0.0144375,0.3784
1692595053106,-0.58305,-0.44700003,10.203,-0.1425875,0.1689875,0.2443375
1692595053135,0.675,-2.0629501,13.099951,-0.1445125,0.2629,0.23539999
1692595053164,0.67995006,-2.049,13.440001,-0.182325,0.2547875,0.34155
1692595053198,-0.86505,-0.97905004,10.965,-0.4120875,0.093225,0.7954375
1692595053224,-0.88695,-0.82800007,10.203,-0.51755,0.0097624995,0.9332125
1692595053254,-0.73395,-1.09395,9.5449505,-0.5047625,0.0380875,0.7847125
1692595053281,-0.018000001,-1.6540501,10.404,-0.4362875,0.103125,0.6292
1692595053310,0.109950006,-1.161,10.368,-0.35035,0.1574375,0.4224
1692595053342,-1.2550501,0.32700002,8.427,-0.3499375,0.1117875,0.3969625
1692595053370,-2.16,1.4640001,6.7780504,-0.34045,0.0441375,0.363825
1692595053397,0.40500003,1.00905,6.558,-0.109725,0.104637496,-0.0394625
1692595053427,1.3219501,0.78195006,10.58895,0.381975,0.353375,-0.960575
1692595053457,0.92205006,1.7899501,10.986,0.5775,0.30855,-1.404425
1692595053491,0.333,2.14395,7.2739506,0.682,0.10835,-1.6990875
1692595053522,-2.0359502,2.118,5.6940002,0.7819625,-0.34375,-2.0383
1692595053550,-1.34595,0.744,9.427951,0.936925,-0.3036,-2.41835
1692595053580,-0.34605002,0.25095,7.9819503,0.9755625,-0.095975,-2.509925
1692595053609,-1.4280001,1.19595,7.5850506,0.90475,0.1249875,-2.37325
1692595053640,-1.3560001,1.7350501,7.5870004,0.465575,0.2833875,-1.4097875
1692595053668,-0.59205,1.725,7.3069506,0.307725,0.2825625,-1.0000376
1692595053697,-0.44400004,1.641,7.9920006,0.3575,0.298375,-0.8760125
1692595053724,-1.11195,1.9810501,7.6110005,0.4437125,0.241175,-0.9337625
1692595053755,-0.669,2.18205,9.567,0.520575,0.0694375,-0.9147875
1692595053785,-0.18795002,1.77795,10.390051,0.52854997,0.0325875,-0.8798625
1692595053813,-0.06105,1.5769501,7.8960004,0.4852375,-0.0374,-0.771925
1692595053843,-0.01305,1.2970501,7.977,0.40315,-0.120725,-0.6337375
1692595053869,-0.13695,0.99000007,8.53695,0.3040125,-0.210925,-0.476025
1692595053898,-0.10395,0.42495003,9.576,0.1447875,-0.3047,-0.2717
1692595053928,0.44295,0.36795002,9.72,-0.0933625,-0.2704625,0.0105875
1692595053959,0.381,0.79395,9.141001,-0.2597375,-0.2453,0.22453749
1692595053988,0.036000002,1.11705,8.097,-0.4015,-0.24653749,0.4112625
1692595054016,0.59895,0.66705,10.974001,-0.4538875,-0.295625,0.4665375
1692595054045,0.975,0.33900002,11.788051,-0.3832125,-0.2971375,0.35145
1692595054078,0.84495,0.47295,11.376,-0.3166625,-0.2838,0.2539625
1692595054105,-0.25005,1.6560001,8.805,-0.3224375,-0.2899875,0.3744125
1692595054134,0.37095,1.1839501,11.22795,-0.2321,-0.2682625,0.2858625
1692595054163,0.75195,1.3800001,11.641951,-0.1073875,-0.22055,0.0232375
1692595054191,-0.19500001,2.391,9.59805,0.047575,-0.1667875,-0.36135
1692595054220,-0.84105,2.766,9.064051,0.0719125,-0.17215,-0.4049375
1692595054248,-0.22605,2.11995,9.94005,0.2371875,-0.11495,-0.6540875
1692595054278,0.34500003,1.4260501,10.30395,0.3696,-0.0455125,-0.9123125
1692595054307,0.91995007,0.70500004,9.48795,0.4499,0.0163625,-1.136575
1692595054336,0.60105,1.0500001,10.186951,0.35227498,-0.0158125,-0.9609875
1692595054366,-0.030000001,1.27005,9.99495,0.202675,-0.06985,-0.6502375
1692595054395,-0.35505003,1.3609501,9.01095,-0.05115,-0.13035,-0.1139875
1692595054423,-0.64995,1.593,8.53005,-0.098175,-0.1012,-0.0534875
1692595054454,-0.49695003,1.4280001,8.820001,-0.098725,-0.0463375,-0.10835
1692595054481,-0.21405001,1.299,9.306001,-0.0372625,0.0661375,-0.376475
1692595054515,-0.07005,1.3729501,9.378,0.020075,0.122375,-0.61242497
1692595054542,0.14595,1.86195,9.14295,0.020075,0.115637496,-0.60555
1692595054569,0.40500003,1.9530001,9.174001,0.0061875,0.08745,-0.527175
1692595054597,-0.06795,2.4379501,9.2029505,0.044,-0.0072875,-0.3757875
1692595054627,0.61605,2.28495,7.9870505,0.1166,-0.0572,-0.347325
1692595054655,1.59195,2.5560002,7.2690005,0.2809125,-0.1155,-0.29535
1692595054686,1.3789501,3.489,6.663,0.34595,-0.15235,-0.221925
1692595054715,0.91200006,3.7930503,5.8350005,0.495825,-0.3617625,-0.003025
1692595054745,1.17795,2.979,7.7310004,0.6342875,-0.4844125,0.0026125
1692595054775,2.39205,1.7830501,10.43595,0.916575,-0.5718625,-0.192775
1692595054808,0.46005002,1.8499501,6.6199503,0.73425,-0.489225,0.0889625
1692595054835,-0.85095006,1.6800001,4.7959504,0.4681875,-0.430925,0.4016375
1692595054864,-0.88695,-0.35895002,9.4470005,0.2250875,-0.3361875,0.58465
1692595054893,-1.4110501,-2.1349502,12.183001,-0.097625,0.102437496,0.469425
1692595054923,-0.609,-2.0629501,8.64,-0.3840375,0.45319998,0.6285125
1692595054952,0.60105,-1.575,7.8600006,-1.250425,1.08075,1.9490625
1692595054980,0.83805007,-1.6510501,9.47595,-1.5434375,1.1512874,2.7138374
1692595055009,-0.37005,-2.022,10.512,-1.6468375,0.7533625,3.5729375
1692595055036,-0.22095,-2.2999501,11.482051,-1.5714875,0.4796,3.6339874
1692595055066,-0.43395,-2.259,11.94795,-1.4749625,0.2916375,3.55025
1692595055095,-1.9900501,-1.04295,11.995951,-1.28315,0.1709125,3.2280874
1692595055128,-2.016,-0.81105006,11.395051,-1.1565125,0.1799875,2.94635
1692595055156,-0.99405,-1.3950001,12.649951,-0.765875,0.3823875,2.01245
1692595055184,-0.15900001,-1.7160001,13.21695,-0.5578375,0.5149375,1.4898125
1692595055211,-0.291,-1.4310001,12.741,-0.2853125,0.513975,0.747175
1692595055241,0.18900001,-0.88095003,11.11995,-0.2242625,0.373175,0.5467
1692595055269,0.051000003,-0.64095,10.882951,-0.1865875,0.20487499,0.385825
1692595055299,-0.55605,-0.51705,11.3550005,-0.0884125,-0.0383625,0.0235125
1692595055326,-0.087000005,-0.82095003,11.659051,-0.0132,-0.0878625,-0.1524875
1692595055357,-0.26700002,-0.70605004,11.338051,0.1230625,-0.080575,-0.3487
1692595055385,-0.72900003,-0.60300004,11.488951,0.148775,-0.06985,-0.35585
1692595055418,-0.56100005,-0.70305,11.950951,0.144375,-0.0551375,-0.388575
1692595055447,-0.47295,-0.78000003,12.331051,0.1412125,-0.0202125,-0.437525
1692595055475,-0.753,-0.66495,12.492001,0.13585,0.0510125,-0.4899125
1692595055502,-1.18095,-0.65595,12.340951,0.127325,0.0559625,-0.4439875
1692595055532,-1.0999501,-1.04295,11.5990505,0.116325,0.0554125,-0.352
1692595055560,-0.97005004,-1.3590001,12.396001,0.0891,0.1115125,-0.212025
1692595055590,-0.25995,-2.049,13.50405,0.0163625,0.1771,-0.1060125
1692595055615,0.09105001,-2.0059502,13.243051,-0.04675,0.163075,-0.0034375
1692595055645,-0.94395006,-1.3399501,12.823951,-0.1233375,0.108075,0.117699996
1692595055680,-1.014,-1.335,12.408001,-0.2437875,-0.044,0.301675
1692595055707,-0.09,-2.4480002,12.54405,-0.2429625,-0.0644875,0.31845
1692595055735,0.22305001,-2.98005,12.796051,-0.181225,-0.011275,0.3102
1692595055763,-0.11805001,-2.8620002,12.39795,-0.2061125,-0.02915,0.3727625
1692595055791,0.41400003,-2.9250002,11.470051,-0.380325,-0.170775,0.611325
1692595055826,0.87600005,-2.6569502,10.941001,-0.4527875,-0.2308625,0.6936875
1692595055855,-0.03195,-1.67295,11.62005,-0.4928,-0.279125,0.7228375
1692595055883,-1.488,-0.08595,9.427951,-0.48839998,-0.3773,0.6609625
1692595055916,-0.492,-0.72,7.3170004,-0.216975,-0.186175,0.2600125
1692595055958,-0.102000006,0.45600003,8.88405,0.1566125,0.2003375,-0.32065
1692595055977,0.028950002,1.31295,8.868,0.24653749,0.2674375,-0.5165875
1692595056003,0.29700002,2.2450502,7.8739505,0.3174875,0.2629,-0.7337
1692595056038,-0.19305001,1.86405,7.1130004,0.640475,0.20515,-1.5835875
1692595056065,-0.81000006,2.1010501,7.5370502,0.8749125,0.15785,-2.130975
1692595056091,-0.65205,2.12205,8.03895,1.2258124,0.0691625,-2.8788376
1692595056121,-0.01995,1.36395,5.17395,1.305425,0.074525,-2.9940624
1692595056151,0.63495004,0.62895006,6.61005,1.2958,0.087175,-2.8318124
1692595056179,0.73995006,0.49500003,8.05095,1.17755,0.0240625,-2.531375
1692595056210,0.88095003,0.11400001,9.17895,0.73205,-0.2058375,-1.4724874
1692595056237,0.25905,0.28905,9.259951,0.4811125,-0.3180375,-0.8925125
1692595056268,-0.39795002,0.98505,8.64,0.0787875,-0.40535,-0.0240625
1692595056296,-0.94200003,1.6699501,8.54205,-0.03135,-0.3529625,0.188925
1692595056325,0.48900002,1.9480501,8.49195,-0.0504625,-0.243925,0.208175
1692595056353,1.11105,2.0959501,8.13795,0.17105,0.00715,-0.2234375
1692595056382,0.75000006,1.6720501,8.35305,0.3301375,0.0237875,-0.494175
1692595056414,1.338,0.91095006,10.407001,0.5278625,-0.2176625,-0.7253125
1692595056443,2.11605,0.42795002,11.553,0.5248375,-0.3394875,-0.641575
1692595056471,1.06605,1.1220001,9.246,0.254925,-0.460625,-0.0897875
1692595056501,-0.216,1.39005,7.8930006,0.0716375,-0.4994,0.246125
1692595056528,0.40500003,0.88995004,9.588,-0.0638,-0.4129125,0.466125
1692595056563,1.11105,0.75795,10.198951,-0.0276375,-0.2668875,0.33715
1692595056588,0.55305004,1.383,9.516001,-0.0207625,-0.0281875,0.132275
1692595056616,0.522,1.42095,9.10005,-0.06545,-0.0039875,0.1376375
1692595056647,0.273,1.4449501,8.901,-0.0842875,-0.010175,0.1166
1692595056675,-0.36,1.029,8.85795,-0.0023375,0.0083875,-0.1098625
1692595056704,0.16305001,0.34395,10.213051,0.0457875,0.0455125,-0.2077625
1692595056732,0.34005,0.231,10.663051,0.0605,0.105875,-0.236225
1692595056763,0.41895002,0.28905,10.49295,-0.063525,0.234025,-0.067925
1692595056788,-0.39600003,0.51195,9.871051,-0.2693625,0.23567499,0.27513748
1692595056817,-0.74100006,0.47595003,9.8230505,-0.31845,0.21807499,0.3873375
1692595056849,-0.63495004,0.35595003,9.483001,-0.2971375,0.2759625,0.3554375
1692595056877,-0.36195,0.35805002,9.12405,-0.26565,0.340725,0.2574
1692595056908,-0.24795002,0.80805004,9.030001,-0.2385625,0.390225,0.153725
1692595056937,-0.015000001,1.55295,9.721951,-0.1793,0.3663,-4.125E-4
1692595056965,-0.123,2.3430002,9.636001,-0.122375,0.306625,-0.05115
1692595056991,-0.50100005,2.62995,9.772051,0.0983125,0.1739375,-0.2024
1692595057021,-0.264,1.9549501,9.889951,0.2600125,0.1126125,-0.382525
1692595057051,-0.43695003,1.55295,9.58605,0.5435375,0.02915,-0.8922375
1692595057076,-0.50100005,1.2079501,9.48795,0.581625,0.0154,-1.0241
1692595057108,-0.34305,1.1410501,8.547,0.4250125,0.039325,-0.7957125
1692595057136,-0.40800002,1.23,8.128051,0.296175,0.0638,-0.560175
1692595057167,-0.28395,1.4569501,8.93505,0.182325,0.08305,-0.3449875
1692595057204,-0.063,1.8690001,8.892,0.06875,0.0930875,-0.05775
1692595057231,-0.264,2.11305,8.32695,0.0818125,0.060225,0.07975
1692595057258,-0.441,2.331,8.0779505,0.0818125,0.060225,0.07975
1692595057287,-0.32700002,2.7259502,8.08005,0.271425,-0.0363,-0.141625
1692595057315,-0.46995002,3.0199502,7.8460503,0.3675375,-0.0424875,-0.274175
1692595057344,-0.47700003,3.04605,7.2019506,0.4624125,-0.040425,-0.3779875
1692595057373,-0.27600002,2.505,7.5439506,0.6345625,-0.045375,-0.519475
1692595057401,0.321,1.5979501,9.088051,0.696025,-0.0512875,-0.5687
1692595057432,-0.60705,1.74405,7.6920004,0.5946875,-0.0570625,-0.37785
1692595057460,-1.7410501,1.3920001,7.06995,0.4052125,-0.050325,-0.11275
1692595057490,-1.8370501,0.40605003,8.652,0.199925,-0.015125,0.1155
1692595057520,0.84300005,-1.194,12.078001,-0.1122,0.2497,0.2156
1692595057549,0.80895007,-1.07895,9.267,-0.6329125,0.5688375,0.8314625
1692595057578,-0.13305001,-0.78195006,9.873,-1.0021,0.510125,1.56805
1692595057606,0.54405004,-0.84495,11.06295,-1.3002,0.306625,2.25665
1692595057637,0.46695003,-1.1920501,10.6699505,-1.4458125,-0.04235,2.7509625
1692595057662,-0.633,-1.9270501,10.73505,-1.3545125,-0.1159125,2.6907375
1692595057691,-0.79305005,-1.4770501,11.343,-1.136025,-0.1689875,2.4501126
1692595057722,-0.21900001,-1.2280501,12.046051,-1.0682375,-0.1123375,2.345475
1692595057750,-0.92700005,-0.70095,10.785001,-0.93995,0.0435875,2.0878
1692595057781,-0.59505004,-0.55695003,10.243951,-0.8325625,0.068475,1.852675
1692595057810,-0.075,-0.59805006,11.067,-0.6884625,0.0859375,1.529
1692595057839,0.23505001,-0.71505004,11.979001,-0.375925,0.13695,0.858275
1692595057868,0.23505001,-0.63195,11.865001,-0.1841125,0.03025,0.4873
1692595057897,0.177,-0.42105,11.826,-0.1313125,-0.0507375,0.3653375
1692595057930,0.024,0.20805001,11.199,-0.0895125,-0.106837496,0.239525
1692595057953,-0.61395,0.67395,10.29705,0.012925,-0.1346125,-0.0347875
1692595057982,0.12495001,0.44505003,11.55105,0.0933625,-0.110275,-0.1604625
1692595058012,0.44595003,-0.591,10.504951,0.275825,-0.0075625,-0.3392125
1692595058039,0.68505,-0.40695003,13.20705,0.320925,0.0166375,-0.362175
1692595058069,1.008,-0.42795002,14.602951,0.2982375,-0.007975,-0.3111625
1692595058099,-0.51600003,-0.47805002,11.533951,0.1335125,-0.1590875,-0.13585
1692595058129,0.27600002,-1.8070501,13.440001,0.069299996,-0.2288,-0.102437496
1692595058157,1.1400001,-2.463,17.052,-0.01595,-0.2261875,0.0297
1692595058184,-0.3,-1.2559501,15.028951,-0.1007875,-0.1841125,0.23773749
1692595058216,0.13905,-1.1010001,12.178051,-0.3397625,-0.16445,0.6997375
1692595058242,1.077,-1.6510501,11.944051,-0.3810125,-0.135575,0.7514375
1692595058271,-0.07005,-1.6060501,12.37695,-0.296175,-0.0303875,0.5713125
1692595058300,-0.492,-2.15595,10.813951,-0.2671625,-0.0295625,0.4829
1692595058329,0.51705,-2.56995,11.58195,-0.28187498,-0.0240625,0.47575
1692595058358,0.43395,-2.41995,11.829,-0.310475,0.0160875,0.575575
1692595058387,0.052950002,-1.9150501,11.494051,-0.35227498,0.028875,0.7027625
1692595058415,-0.35505003,-1.3740001,10.287001,-0.408925,-0.041249998,0.7429125
1692595058450,0.60105,-1.7020501,9.9210005,-0.33165,-0.0231,0.397375
1692595058481,-0.73605,0.069000006,8.81505,-0.2666125,0.0092124995,0.233475
1692595058510,-1.7359501,2.08905,6.88605,-0.122237496,0.04235,0.0680625
1692595058539,-1.437,2.7139502,6.73005,0.02915,0.113437496,-0.087725
1692595058569,0.62295,2.0959501,8.928,0.2828375,0.2695,-0.43725
1692595058597,1.6060501,1.9450501,9.990001,0.93665,0.558525,-1.71985
1692595058625,2.7580502,2.0269501,8.98995,1.1760375,0.471625,-2.3469875
1692595058655,1.30005,1.12395,4.959,1.286175,-0.14355,-2.7907
1692595058685,-1.8079501,0.55200005,7.3999505,1.1980375,-0.472725,-2.66145
1692595058713,-1.284,-0.294,9.90705,0.8837125,-0.6763625,-2.1289124
1692595058740,-0.74805003,-0.25800002,7.5490503,0.6788375,-0.42185,-1.8271
1692595058777,-1.6140001,0.58095,6.6439505,0.2008875,0.3004375,-1.1358875
1692595058807,-1.626,0.62895006,6.8380504,0.2008875,0.3004375,-1.1358875
1692595058842,-0.46800002,0.99495006,8.394,-0.0950125,0.6474875,-0.4439875
1692595058867,-0.62595004,1.6890001,7.3759503,-0.031075,0.7033125,-0.44275
1692595058892,-1.4899501,1.9860001,6.4450502,0.141075,0.5814875,-0.5366625
1692595058921,-0.109050006,0.95400006,9.954,0.259875,0.4368375,-0.642125
1692595058950,1.69305,0.094950005,14.335051,0.397375,0.330825,-0.768625
1692595058980,-1.6620001,1.8040501,11.857051,0.417175,0.1628,-0.483725
1692595059008,-2.87295,2.8530002,7.8550506,0.0188375,-0.173525,0.3889875
1692595059039,-0.75705004,1.8739501,8.406,-0.016775,-0.1824625,0.3301375
1692595059068,-0.45105,1.00695,9.66195,0.362175,0.0858,-0.7572125
1692595059097,-0.86505,1.1580001,9.5449505,0.5132875,0.1299375,-1.15775
1692595059126,-0.39600003,1.1359501,9.243,0.493625,0.089375,-1.14015
1692595059155,-0.13305001,1.50495,8.755051,0.2013,-0.0061875,-0.516725
1692595059185,-1.0180501,1.86405,7.6009502,0.1062875,-0.0419375,-0.3075875
1692595059213,-1.1520001,1.5139501,9.081,0.1007875,-0.1172875,-0.1076625
1692595059240,-0.67095006,1.2870001,10.6390505,0.16005,-0.095975,-0.1016125
1692595059270,0.10605001,1.0999501,10.155001,0.214775,-0.0303875,-0.1464375
1692595059302,-0.102000006,1.4760001,8.86095,0.14245,0.0125124995,-0.0847
1692595059331,-0.015000001,1.5480001,9.279,-0.0251625,-0.1577125,0.0999625
1692595059359,-0.504,1.6099501,9.30105,-0.0292875,-0.2316875,0.08635
1692595059387,-1.0519501,1.6009501,9.342,0.00385,-0.271425,0.02365
1692595059419,-0.74505,1.2870001,8.997001,0.06655,-0.2490125,-0.17613749
1692595059445,-0.252,1.041,9.40095,0.0803,-0.1841125,-0.2916375
1692595059475,-0.03705,1.0669501,9.64305,0.048125,-0.0367125,-0.32945
1692595059505,-0.09,1.34895,9.66495,-0.00275,-0.016775,-0.221375
1692595059540,-0.36195,1.32105,9.17595,-0.102437496,-0.080575,0.0342375
1692595059567,0.094050005,1.00905,9.49005,-0.100099996,-0.13255,0.0430375
1692595059596,0.04605,1.0020001,9.93795,-0.0735625,-0.134475,-0.0495
1692595059625,-0.06795,1.3249501,10.62705,-0.0540375,-0.137225,-0.11605
1692595059656,-0.21405001,1.7590501,9.732,-0.055,-0.15895,-0.0312125
1692595059685,-0.39105,1.917,8.229,-0.0534875,-0.15785,0.02585
1692595059714,0.21795002,1.6800001,8.52795,0.035475,-0.1197625,-0.0704
1692595059743,0.56805,1.1580001,10.552951,0.11935,-0.100375,-0.190575
1692595059772,0.31905,1.02405,10.28505,0.1923625,-0.1029875,-0.2842125
1692595059801,0.094050005,1.38495,8.65005,0.1516625,-0.17613749,-0.1967625
1692595059829,-0.025050001,1.797,8.32005,-0.0166375,-0.1915375,0.0941875
1692595059859,-0.264,2.2710001,8.346001,-0.0297,-0.164725,0.1500125
1692595059894,-0.73800004,3.7140002,7.254,0.105875,-0.1013375,-0.0290125
1692595059925,-0.09900001,3.9390001,7.3620005,0.2448875,-0.0675125,-0.2453
1692595059954,0.60105,3.7720501,8.63805,0.4349125,-0.0378125,-0.52635
1692595059983,1.5130501,3.55605,9.02595,0.859375,-0.08745,-1.037025
1692595060012,1.18005,3.17595,7.5150003,0.97955,-0.3289,-0.8897625
1692595060041,-0.56100005,1.8499501,7.83795,0.90475,-0.44605,-0.5984
1692595060068,-0.83205,0.58095,8.22105,0.7954375,-0.5146625,-0.3229875
1692595060099,-0.70500004,-1.5439501,9.126,0.4371125,-0.3592875,-0.016775
1692595060129,-1.6170001,-1.3069501,6.63705,-0.3894,0.2341625,0.6215
1692595060158,-1.416,-0.86895007,6.8550005,-0.8735375,0.548075,1.1609125
1692595060186,0.16095,-1.881,11.23995,-1.2454749,0.8017625,1.648625
1692595060214,0.043050002,-1.9459502,11.299951,-1.571625,1.032625,2.291025
1692595060245,-1.1190001,-1.36905,9.259951,-1.6572875,0.92097497,2.6269374
1692595060273,-1.26495,-1.3260001,9.538051,-1.715175,0.6799375,2.92105
1692595060308,-0.9799501,-2.4720001,12.858001,-1.432475,0.288475,2.7974374
1692595060332,-0.64695,-2.5800002,12.927001,-1.2925,0.297,2.6829
1692595060361,-0.79800004,-1.764,12.21195,-1.1944625,0.2679875,2.604525
1692595060389,-0.83895004,-0.97605,11.356951,-1.0385375,0.084975,2.312475
1692595060420,-0.44895002,-0.88995004,11.472,-0.90255,0.0088,2.0205624
1692595060448,0.18,-0.88500005,12.504001,-0.5053125,-0.0372625,1.2788875
1692595060477,-0.18795002,-0.112050004,12.109051,-0.3152875,-0.056649998,0.8927875
1692595060507,-0.97305006,0.59805006,11.44095,-0.15853749,-0.09955,0.5226375
1692595060535,-0.657,0.45405003,11.434051,0.125675,-0.155925,-0.09075
1692595060564,-0.47700003,0.105000004,11.874001,0.2723875,-0.110825,-0.3334375
1692595060593,-0.34605002,-0.31995,11.998951,0.466125,0.01265,-0.6985
1692595060620,-0.91800004,-0.36105,10.905001,0.471625,0.026124999,-0.778525
1692595060649,-0.44895002,-1.01505,11.853001,0.4241875,0.0174625,-0.7772875
1692595060679,0.28500003,-1.6800001,13.803,0.25547498,1.375E-4,-0.590425
1692595060710,-1.4610001,-0.61995006,11.368951,0.0246125,-0.0611875,-0.241175
1692595060738,-1.64295,-0.57405,10.5379505,0.0246125,-0.0611875,-0.241175
1692595060765,-0.67800003,-1.6870501,14.143051,-0.13653749,-0.0567875,0.02475
1692595060796,-0.64995,-1.6819501,14.892001,-0.1516625,0.0902,0.0903375
1692595060823,-1.0159501,-0.97395,12.453001,-0.185625,0.1095875,0.15413749
1692595060854,-0.69795,-1.23195,13.036951,-0.2393875,0.064625,0.2204125
1692595060878,-0.80295,-1.6320001,13.441951,-0.21395,0.0628375,0.167475
1692595060911,-0.67395,-2.11095,12.966001,-0.1599125,0.0540375,0.1769625
1692595060940,0.04605,-2.83395,13.01805,-0.17613749,0.027775,0.281325
1692595060968,-0.432,-2.53005,12.613951,-0.289025,-0.0457875,0.4808375
1692595060997,-0.76905006,-2.11995,11.677951,-0.3597,-0.0968,0.5366625
1692595061025,-0.98505,-1.812,11.754001,-0.4147,-0.142175,0.5608625
1692595061057,-0.71400005,-1.7850001,10.416,-0.4137375,-0.1280125,0.4794625
1692595061083,-0.96795005,-1.6510501,10.2630005,-0.3609375,-0.0759,0.3751
1692595061114,-1.212,-0.88500005,9.892051,-0.2410375,0.025575,0.1904375
1692595061143,-0.786,0.054,6.216,-0.19195,0.065175,0.1700875
1692595061173,-1.07295,-0.27,5.2699504,-0.02475,0.16225,0.058575
1692595061200,-0.42495003,-0.35205,7.3549504,0.0955625,0.21945,-0.1310375
1692595061230,1.0390501,0.46605003,9.33195,0.1984125,0.26221249,-0.3436125
1692595061259,0.052950002,1.7160001,7.1370006,0.327525,0.2151875,-0.665775
1692595061288,-1.095,1.9480501,7.8190503,0.6172375,-0.0779625,-1.3684
1692595061315,-0.83895004,1.9980001,9.354,0.841775,-0.1670625,-1.8946124
1692595061345,0.58905005,0.98295003,7.116,1.0608125,-0.133375,-2.42715
1692595061374,0.73305005,0.84900004,6.6460505,1.2788875,0.0099,-3.018675
1692595061404,1.1010001,0.75600004,9.02805,1.2104125,-0.0496375,-2.84405
1692595061432,1.36695,0.47295,9.460951,1.054075,-0.185625,-2.4234376
1692595061463,0.99405,0.34395,9.753,0.6732,-0.4728625,-1.401675
1692595061492,0.49305,0.97605,8.700001,0.3188625,-0.601975,-0.4796
1692595061521,-0.528,1.8520501,7.9459505,0.19195,-0.58465,-0.187
1692595061551,0.18705001,2.118,8.676001,0.1628,-0.3980625,-0.150425
1692595061585,1.57305,1.7989501,9.84405,0.2613875,-0.2649625,-0.366025
1692595061611,1.0890001,1.7389501,9.35805,0.3818375,-0.16445,-0.62865
1692595061639,0.079050004,1.5769501,8.2570505,0.497475,-0.202675,-0.8591
1692595061673,-0.47700003,1.4260501,8.6310005,0.4464625,-0.2850375,-0.6381375
1692595061703,0.16305001,0.97605,9.52095,0.403425,-0.2096875,-0.51094997
1692595061732,0.71805006,0.906,10.177051,0.3498,-0.0721875,-0.408925
1692595061767,0.62505,1.419,9.64995,0.1816375,0.157025,-0.1698125
1692595061790,0.33795002,1.69605,8.974951,-0.00715,0.1115125,0.2332
1692595061818,0.41400003,1.6530001,9.01395,-0.0361625,0.0496375,0.36245
1692595061849,0.20595,1.5259501,9.306001,-0.0103124995,0.0097624995,0.3738625
1692595061877,0.039,1.041,8.772,0.089375,-9.625E-4,0.20075
1692595061906,0.65400004,0.47595003,9.64995,0.11165,0.0155375,0.137775
1692595061941,0.60795003,0.37695003,10.026,0.0430375,0.0680625,0.2132625
1692595061968,-0.54195005,1.0330501,9.093,-0.172425,0.0664125,0.54202497
1692595061996,-0.86805004,1.0000501,8.785951,-0.2633125,0.0543125,0.6483125
1692595062023,-0.61605,0.6,9.535951,-0.2919125,0.0820875,0.601425
1692595062055,-0.70995003,0.56895,9.873,-0.2052875,0.2673,0.19415
1692595062084,-0.84405005,0.74100006,9.088051,-0.1728375,0.3487,0.0444125
1692595062113,-0.693,0.82005006,8.68605,-0.1816375,0.406175,-0.02805
1692595062141,-1.1190001,0.91605,8.20695,-0.176825,0.4103,-0.0581625
1692595062170,-0.90300006,0.78195006,8.587951,-0.1186625,0.396825,-0.1364
1692595062199,-0.20505,0.82995003,10.177051,-0.0807125,0.3878875,-0.1505625
1692595062232,-0.18105,1.78005,9.739051,-0.0301125,0.3345375,-0.108899996
1692595062261,-0.94395006,2.673,10.075951,-0.0119624995,0.245575,-0.0749375
1692595062290,-0.50895,1.9549501,10.845,0.17613749,0.02145,-0.3576375
1692595062319,-0.46305,1.1890501,11.29695,0.33385,-0.0429,-0.652575
1692595062348,-0.19005,0.63405,9.897,0.44494998,-0.0815375,-0.8668
1692595062377,-0.3,0.78000003,9.4129505,0.3397625,-0.0760375,-0.67485
1692595062410,-0.08505,1.1029501,9.04695,0.0210375,-0.0484,-0.047575
1692595062438,-0.38595003,1.605,8.69295,-0.0831875,-0.0460625,0.205975
1692595062467,-0.52005005,1.93305,8.458051,-0.1208625,-0.054449998,0.341275
1692595062496,-1.0350001,2.46495,7.4359503,-0.0966625,-0.06435,0.335225
1692595062526,-1.6810501,2.8600502,5.9950504,0.115225,-0.0367125,-0.028875
1692595062555,-0.74805003,2.19705,7.3840504,0.4855125,0.08855,-0.6837875
1692595062584,-0.006,1.84695,7.9219503,0.675675,0.155925,-1.059025
1692595062610,-0.171,2.26395,7.4050503,0.7869125,0.1439625,-1.308175
1692595062641,-0.022950001,2.63505,7.3999505,0.669075,0.0548625,-1.05545
1692595062672,0.058050003,2.5440001,7.1850004,0.469975,-0.1623875,-0.5537125
1692595062701,-0.64305,2.63205,6.7560005,0.472725,-0.25465,-0.510675
1692595062730,-2.08395,0.54,7.45305,0.51975,-0.3444375,-0.6131125
1692595062757,-0.71895003,-1.16805,12.360001,0.4879875,-0.279125,-0.6340125
1692595062789,0.71595,-2.32395,10.61295,-0.087175,0.194425,-0.0829125
1692595062825,-1.57095,-2.013,9.883051,-0.710325,0.43835,0.79983747
1692595062851,0.44595003,-2.6590502,13.63605,-1.84085,0.418275,2.9643624
1692595062881,0.20400001,-2.22105,13.1980505,-2.07625,0.2545125,3.5787125
1692595062909,-0.73800004,-1.5480001,10.95705,-2.1289124,0.0939125,3.816175
1692595062941,-0.12795001,-2.14695,12.154051,-1.5481125,-0.103125,3.4318626
1692595062968,0.156,-1.4790001,11.962951,-0.98835,-0.0842875,2.4965875
1692595062995,-0.13995,-0.81795,9.97605,-0.8756,-0.0765875,2.0882125
1692595063025,-0.74805003,-0.84195006,9.18105,-0.7484125,-0.10285,1.729475
1692595063055,0.19395001,-1.3740001,11.302051,-0.446325,-0.1458875,1.1309375
1692595063084,0.32295,-1.24395,11.653951,-0.314875,-0.13035,0.9337625
1692595063113,-0.33105,-1.2780001,10.92105,-0.17847499,-0.124575,0.62755
1692595063141,0.058050003,-1.491,12.010951,-0.14795,-0.15015,0.4907375
1692595063172,0.273,-1.1220001,11.71605,-0.108625,-0.1552375,0.3873375
1692595063200,0.087000005,-0.735,11.047951,-0.099825,-0.1442375,0.3804625
1692595063231,0.10095,-0.61200005,11.46195,-0.048125,-0.1502875,0.23375
1692595063259,0.37095,-0.684,11.637,0.0078375,-0.1340625,0.086075
1692595063287,0.46695003,-0.55695003,11.641951,0.0688875,-0.104225,-0.0782375
1692595063318,-0.35805002,-0.22905001,11.344951,0.15345,-0.083325,-0.34553748
1692595063347,-0.34095,0.23595001,11.649,0.174625,-0.0933625,-0.414975
1692595063377,-0.24000001,0.31305,11.61795,0.1934625,-0.0834625,-0.446325
1692595063403,-0.05595,0.411,9.394051,0.2754125,0.029975,-0.5075125
1692595063430,0.75405,-0.18900001,13.132951,0.401775,0.1029875,-0.6554625
1692595063461,0.216,-0.10695001,11.295,0.427075,0.076175,-0.6928625
1692595063491,-0.89595,-0.18900001,9.375,0.345675,-0.0485375,-0.53267497
1692595063518,0.72300005,-2.15595,12.420001,0.280225,-0.077275,-0.3993
1692595063548,2.43,-4.0230002,17.616001,0.095975,-0.0463375,-0.032725
1692595063577,0.75000006,-2.2710001,14.17905,-0.1021625,-0.0969375,0.3542
1692595063605,-0.030000001,-0.60795003,11.70705,-0.34045,-0.2184875,0.7990125
1692595063635,0.32805002,-0.25800002,12.1710005,-0.5512375,-0.3575,1.07525
1692595063663,-0.57600003,-0.93795,12.432,-0.46035,-0.2861375,0.834625
1692595063697,0.69195,-3.6840003,14.434951,-0.1615625,-0.054725,0.2564375
1692595063726,0.27795002,-3.6499503,14.62005,-0.0972125,0.0350625,0.162525
1692595063754,-0.85095006,-2.973,11.866951,-0.274725,0.0658625,0.4665375
1692595063780,-1.19805,-2.5440001,10.464001,-0.419375,0.045649998,0.69795
1692595063812,-1.0020001,-2.56605,10.342051,-0.55027497,0.1104125,0.98505
1692595063841,-1.49205,-1.9939501,10.486051,-0.5460125,0.1706375,1.0417
1692595063869,-2.08095,-0.16005,7.7310004,-0.5187875,0.2220625,1.048575
1692595063898,-0.64305,1.19595,4.188,-0.36905,0.329175,0.8710625
1692595063925,1.21605,1.23,6.321,-0.202125,0.4147,0.63002497
1692595063955,1.64205,2.1100502,11.155951,0.31707498,0.507925,-0.3166625
1692595063991,1.26405,2.5510502,10.191001,0.90433747,0.141075,-1.7491375
1692595064020,-2.7150002,2.23305,1.7710501,1.176175,-0.1387375,-2.46235
1692595064047,-1.6570501,0.99495006,5.29605,1.3803625,-0.345125,-3.0174375
1692595064077,0.75900006,-0.45405003,10.231951,1.46795,-0.242825,-3.363525
1692595064104,-0.25995,0.0019500001,7.965,1.3382875,-0.0081124995,-3.1222124
1692595064134,-0.68295,0.71295005,4.52295,0.712525,0.1549625,-1.7549125
1692595064163,-0.20895001,0.63795,7.1850004,0.40039998,0.0983125,-1.0828125
1692595064191,-0.504,0.78195006,9.76305,0.16499999,0.106425,-0.5806625
1692595064222,-1.248,1.2030001,9.715051,0.1656875,0.1331,-0.515625
1692595064251,-2.703,0.99705005,4.392,0.1967625,0.1824625,-0.490875
1692595064281,1.4389501,0.49500003,10.98795,0.2228875,0.2762375,-0.5581125
1692595064310,-0.13695,1.0189501,14.007001,0.2165625,0.4101625,-0.5072375
1692595064339,-2.7130501,2.187,10.28505,0.1302125,0.25795,-0.2773375
1692595064368,-2.2410002,1.8970501,7.4820004,0.051425,0.041249998,-0.094325
1692595064397,0.63495004,0.36105,9.208051,0.199375,0.068475,-0.5465625
1692595064424,-0.81000006,0.693,9.910951,0.353375,0.2239875,-0.9889
1692595064453,-1.49205,1.04505,8.829,0.32945,0.14465,-1.0307
1692595064485,-0.37395,0.68595004,9.16005,0.1881,0.017875,-0.7195375
1692595064514,0.18,0.47295,9.35805,0.0303875,-0.019524999,-0.368225
1692595064542,-0.633,0.88695,9.93,-0.0066,-0.025575,-0.2539625
1692595064569,-0.44595003,0.933,9.916051,-0.104499996,-0.143275,0.0979
1692595064605,-0.36195,0.90900004,9.555,-0.1258125,-0.1782,0.20927499
1692595064632,0.034050003,0.69600004,9.378,-0.084975,-0.1546875,0.166375
1692595064659,-0.22800002,0.81795,10.464001,-0.0614625,-0.1441,0.1203125
1692595064692,-0.030000001,0.82305,10.155001,-0.0562375,-0.1722875,0.1401125
1692595064719,0.031050002,0.78900003,9.540001,-0.0603625,-0.1907125,0.14905
1692595064748,0.060000002,0.72195005,9.5119505,-0.0504625,-0.2017125,0.063525
1692595064776,0.26805001,0.78900003,9.528001,-0.0422125,-0.2055625,0.00275
1692595064807,0.23505001,1.0720501,9.342,-0.0367125,-0.211475,-0.049775
1692595064835,0.012,1.074,9.658051,-0.01595,-0.227975,-0.122237496
1692595064865,0.132,0.89205,10.696051,0.0127875,-0.2314125,-0.1288375
1692595064899,0.25605002,0.73695004,10.88805,0.065175,-0.192225,-0.0600875
1692595064927,0.18495001,0.86595005,10.002001,0.0334125,-0.14575,0.0334125
1692595064955,0.02205,1.16295,9.607051,0.002475,-0.1373625,0.068475
1692595064985,-0.36495003,1.4980501,9.102,-0.0155375,-0.1304875,0.0804375
1692595065013,-0.32700002,1.59105,8.7310505,0.03135,-0.089925,-0.0743875
1692595065042,0.28305,1.26795,9.018001,0.0939125,-0.0485375,-0.2248125
1692595065071,0.37095,1.167,9.066,0.1617,-0.0048125,-0.3542
1692595065102,0.055050004,1.251,8.628,0.2248125,-0.0012375,-0.39545
1692595065131,0.13695,1.167,8.358001,0.1804,-0.0748,-0.2536875
1692595065161,0.0,1.062,8.406,0.155925,-0.0837375,-0.198275
1692595065189,-0.528,1.21305,8.688001,0.1243,-0.06325,-0.1478125
1692595065217,-0.34800002,1.58595,8.101951,0.106837496,-0.045375,-0.158675
1692595065245,0.16995001,1.8709501,7.5319505,0.09295,-0.0122375,-0.2079
1692595065278,0.29505002,1.9759501,8.06595,0.146025,0.0449625,-0.3741375
1692595065305,0.261,1.8900001,8.73795,0.220275,0.0149875,-0.4519625
1692595065332,-0.21195,2.5489502,7.6540504,0.346775,-0.1164625,-0.5446375
1692595065363,0.47895002,2.628,7.4119506,0.3779875,-0.15413749,-0.56925
1692595065391,1.5079501,2.4480002,8.53695,0.41854998,-0.15895,-0.6232875
1692595065421,1.5589501,2.187,8.901,0.550825,-0.176,-0.7008375
1692595065452,-0.063,2.0700002,8.214001,0.56993747,-0.2553375,-0.5434
1692595065481,-1.059,0.16395001,8.217,0.43353748,-0.430925,-0.0367125
1692595065511,-0.135,-1.7710501,10.099951,0.161425,-0.18259999,0.109175
1692595065539,-0.58695,-1.6489501,9.448951,-0.09845,0.100099996,0.2666125
1692595065568,-1.06095,-1.0360501,9.094951,-0.4676375,0.3757875,0.6736125
1692595065598,-0.79800004,-1.041,9.885,-1.169025,0.6683875,1.8788
1692595065626,-0.324,-2.025,11.364,-1.3121625,0.696575,2.2891
1692595065659,-0.25005,-2.2999501,10.97595,-1.2956625,0.6180625,2.6360126
1692595065684,-1.07805,-1.6699501,10.93605,-1.2874125,0.5115,2.756325
1692595065725,-1.2030001,-1.6030501,11.356951,-1.2893375,0.243925,2.821225
1692595065751,-1.1020501,-1.5150001,11.557951,-1.2148125,0.17325,2.658975
1692595065778,-1.12605,-1.302,11.376,-0.9213875,0.19607499,2.0882125
1692595065809,-0.47295,-1.1730001,12.424951,-0.628375,0.20845,1.5522375
1692595065841,0.192,-1.5270001,13.399051,-0.5069625,0.1843875,1.3426875
1692595065864,0.11805001,-0.92595005,12.811951,-0.40301248,0.136125,1.1532125
1692595065898,0.036000002,-0.555,12.172951,-0.2415875,-0.047575,0.7588625
1692595065929,0.14595,-0.76305,12.802951,-0.157025,-0.1414875,0.519475
1692595065962,-0.384,-0.79905003,12.316951,0.0352,-0.2325125,0.032175
1692595065989,-0.60705,-0.66,11.90295,0.1351625,-0.2256375,-0.2151875
1692595066014,-0.89895004,-0.44700003,10.76595,0.142725,-0.1835625,-0.231
1692595066041,-1.3800001,-0.08805001,10.524,0.14093749,-0.1186625,-0.208175
1692595066070,-0.81000006,-0.62700003,11.60805,0.1573,0.0540375,-0.20899999
1692595066099,-0.28095,-1.1149501,13.143001,0.176,0.147125,-0.2651
1692595066127,-0.22395001,-1.07895,12.279,0.1830125,0.2088625,-0.3345375
1692595066158,-0.61905,-0.76305,11.991,0.114125,0.148775,-0.3768875
1692595066186,-0.31905,-1.3780501,12.793051,0.0572,0.0710875,-0.32615
1692595066213,-0.61905,-1.5960001,13.432051,-0.0083875,-0.0105875,-0.205975
1692595066242,-0.64695,-1.6699501,13.408051,-0.033825,-0.01705,-0.1362625
1692595066273,-1.4320501,-0.66495,11.95995,-0.119625,-0.0218625,0.0840125
1692595066302,-1.365,-0.864,11.806951,-0.154825,-0.015125,0.2215125
1692595066332,-0.58995,-1.9549501,12.979951,-0.130625,0.0616,0.4266625
1692595066361,0.21300001,-2.5560002,14.635951,-0.093637496,0.114125,0.47905
1692595066390,-0.62295,-1.8330001,12.826951,-0.091575,0.1260875,0.544775
1692595066418,-0.49905002,-1.6510501,11.62005,-0.2239875,-0.0352,0.714725
1692595066446,0.08400001,-1.77795,11.179951,-0.279675,-0.1164625,0.7266875
1692595066477,-0.84405005,-0.30600002,10.43595,-0.2674375,-0.131175,0.58245
1692595066506,-0.55905,0.44700003,8.772,-0.229625,-0.113299996,0.47547498
1692595066535,-0.75705004,0.66495,7.7550006,-0.1601875,-0.084425,0.3322
1692595066563,-1.8540001,1.6650001,6.9100504,0.117699996,0.036849998,-0.1478125
1692595066593,-0.147,1.5600001,6.94995,0.4851,0.20625,-0.7385125
1692595066622,1.1209501,1.692,9.19095,0.674575,0.2998875,-1.0407375
1692595066650,0.54795,1.7899501,9.648001,0.848925,0.3289,-1.380775
1692595066681,-1.8510001,2.163,8.278951,1.071125,5.5E-4,-2.1187375
1692595066710,-1.19805,1.266,6.9139504,1.1276375,-0.26455,-2.6071374
1692595066738,0.89100003,-0.37995002,6.3780003,1.1308,-0.1747625,-2.7484875
1692595066769,1.0339501,-0.66300005,8.566051,1.08295,-0.0358875,-2.778325
1692595066797,0.59595,-0.37800002,8.059051,0.5955125,-0.0570625,-1.9756
1692595066825,0.72795004,-0.27705002,7.5079503,0.213125,-0.2332,-1.1864874
1692595066855,0.63195,0.11895001,7.65705,-0.288475,-0.511225,0.0088
1692595066883,0.34305,0.351,9.0379505,-0.3548875,-0.551925,0.2156
1692595066915,0.35205,1.0879501,9.460951,-0.2842125,-0.523325,0.175725
1692595066944,-0.16605,2.01705,7.2900004,-0.1969,-0.4615875,0.0815375
1692595066972,0.15795001,2.05995,7.2060003,0.070675,-0.276375,-0.2110625
1692595066999,1.5469501,1.55295,8.88195,0.275825,-0.176825,-0.486475
1692595067030,1.0009501,1.1530501,10.94505,0.6516125,-0.11055,-0.993575
1692595067057,-0.69495004,1.8930001,10.479,0.680625,-0.20185,-0.94655
1692595067087,-1.35105,1.93305,8.901,0.5966125,-0.306625,-0.7332875
1692595067118,-0.40800002,1.2780001,9.74895,0.3947625,-0.1684375,-0.59785
1692595067148,0.22095,0.76500005,10.696051,0.3245,0.2105125,-0.84122497
1692595067172,0.31605002,1.00695,10.309051,0.2531375,0.27719998,-0.7390625
1692595067200,0.201,1.4089501,8.841001,0.1379125,0.2558875,-0.450725
1692595067226,0.028950002,1.536,8.50605,0.0198,0.189475,-0.1122
1692595067253,0.15795001,1.20105,9.35805,-0.0594,0.05335,0.2055625
1692595067279,0.52905005,0.94500005,9.562051,-0.025024999,0.0198,0.1771
1692595067309,0.55995005,0.873,9.568951,0.014575,0.0023375,0.1639
1692595067335,0.31905,0.897,9.733951,-0.013475,-0.0199375,0.2534125
1692595067361,-0.24495001,0.93795,9.909,-0.0583,-0.0518375,0.3554375
1692595067387,-0.50100005,0.76995003,9.69795,-0.12925,-0.058575,0.3867875
1692595067422,-1.215,0.63795,9.96405,-0.143825,-0.0089375,0.30827498
1692595067449,-0.98205006,0.43995002,10.00695,-0.1502875,0.073975,0.2212375
1692595067479,-0.61605,0.28395,9.98295,-0.1755875,0.2836625,0.1395625
1692595067509,-0.34605002,0.492,9.38895,-0.2041875,0.3634125,0.138325
1692595067544,-0.64500004,1.04805,8.559,-0.2580875,0.3779875,0.1753125
1692595067571,-0.83400005,1.3660501,8.571,-0.2156,0.26427498,0.1552375
1692595067602,0.17295001,1.3420501,9.69795,-0.13145,0.2277,0.0350625
1692595067631,0.00795,1.93605,9.877951,0.0917125,0.1727,-0.3196875
1692595067657,-0.025050001,2.0269501,9.792001,0.1758625,0.0834625,-0.4439875
1692595067684,0.38595003,1.5190501,9.708,0.24255,-0.0394625,-0.541475
1692595067713,0.10305001,1.215,9.729,0.348425,-0.2223375,-0.6565625
1692595067741,-0.31695002,1.0309501,9.816001,0.348425,-0.2541,-0.580525
1692595067775,-0.40800002,1.05495,9.153001,0.20845,-0.20295,-0.21175
1692595067805,-0.71400005,1.3110001,8.50905,0.1208625,-0.12925,-0.04895
1692595067832,-0.69495004,1.40205,8.908051,0.02365,0.0177375,0.0616
1692595067859,-0.597,1.24905,9.5449505,0.022,0.0708125,0.0099
1692595067890,-0.19005,1.4280001,9.74895,0.037675,0.1142625,-0.082225
1692595067915,-0.43005002,1.4470501,9.460951,0.0518375,0.1414875,-0.2083125
1692595067945,-0.43695003,1.39995,9.604951,0.0419375,0.1111,-0.2044625
1692595067971,-0.41805002,1.6339501,9.47295,0.0374,0.031075,-0.162525
1692595068001,-0.60405004,1.8760501,8.590051,0.0374,0.031075,-0.162525
1692595068032,-0.94905007,2.022,7.9099503,0.12815,0.0163625,-0.253
1692595068058,-0.32700002,1.59105,9.33705,0.212575,0.040425,-0.416075
1692595068086,0.10605001,1.9600501,9.5140505,0.3029125,0.0748,-0.5952375
1692595068114,-0.40095,3.0300002,8.78895,0.3399,0.0647625,-0.6290625
1692595068143,-0.91995007,3.3769503,7.8600006,0.3091,-0.0011,-0.5157625
1692595068168,-1.1550001,3.4990501,6.4069505,0.3271125,-0.08305,-0.4994
1692595068200,-0.19500001,1.8709501,6.9030004,0.594275,-0.176825,-0.9658
1692595068232,-0.126,-0.049950004,7.11105,0.8536,-0.1676125,-1.4111625
1692595068261,-0.45795003,-0.99300003,7.97205,0.74305,-0.1579875,-1.1856625
1692595068288,1.3549501,-1.302,9.97605,0.408375,-0.1170125,-0.5891875
1692595068314,1.45605,-1.5319501,11.589001,-0.611875,0.086625,1.2065625
1692595068350,-1.026,-1.39995,10.699051,-1.400025,0.045375,3.0047874
1692595068378,-0.44595003,-0.96000004,12.360001,-1.5508626,-0.0518375,3.4472625
1692595068403,0.43095002,-1.3660501,11.09595,-1.56035,-0.0521125,3.4819124
1692595068432,-0.453,-1.20105,10.155001,-1.3264625,0.1139875,2.83305
1692595068459,-0.13305001,-1.39005,10.825951,-1.1625625,0.127325,2.427425
1692595068487,0.26805001,-1.3590001,10.720051,-1.0184625,0.099275,2.103475
1692595068516,0.36705002,-1.3399501,10.383,-0.8193625,0.034649998,1.7221875
1692595068545,-0.21900001,-0.76605004,9.993,-0.73974997,-0.014162499,1.5981625
1692595068572,0.14205001,-0.38295,10.555051,-0.6595875,-0.0732875,1.49105
1692595068601,0.702,-0.73905003,11.446051,-0.4643375,-0.1461625,1.225675
1692595068631,-0.504,-0.33195,11.41005,-0.2116125,-0.1436875,0.708125
1692595068661,-0.324,-0.32295,12.23805,-0.1054625,-0.14025,0.4464625
1692595068690,0.06705,-0.53595,11.89095,-0.0264,-0.1203125,0.281325
1692595068718,-0.21900001,-0.112050004,11.331,0.0752125,-0.0188375,0.1618375
1692595068749,-0.549,0.26505002,11.008051,0.127325,0.050325,0.00825
1692595068777,-0.20505,0.13605,11.034,0.1563375,0.072325,-0.091575
1692595068809,-0.09900001,0.15195,10.540951,0.23539999,0.1214125,-0.3004375
1692595068835,-0.14505,-0.15495001,11.167951,0.2605625,0.1274625,-0.3881625
1692595068864,0.43605003,-0.40395,11.047951,0.263725,0.1128875,-0.4519625
1692595068892,0.453,-0.64395005,11.557951,0.2017125,0.0556875,-0.4563625
1692595068921,-0.11805001,-0.49005002,12.781051,0.1420375,0.0105875,-0.3700125
1692595068951,0.402,-0.21000001,12.784051,0.017875,-0.0774125,-0.0969375
1692595068979,0.13905,-0.18195,11.002951,-0.017875,-0.0831875,0.004125
1692595069009,-0.039,-0.38700002,11.824051,-0.018424999,-0.0730125,0.032725
1692595069034,0.48600003,-0.95205003,12.766951,-0.0055,-0.0710875,-0.006325
1692595069065,0.29205,-0.99300003,12.903001,-0.0050875,-0.0642125,-0.0361625
1692595069093,0.94095004,-1.125,11.91495,-0.07645,-0.0726,0.0724625
1692595069124,1.11105,-1.21095,13.171051,-0.1276,-0.1023,0.2242625
1692595069152,0.61305004,-1.05495,13.452001,-0.1918125,-0.1896125,0.5083375
1692595069186,-0.28605002,-1.12695,10.95495,-0.2063875,-0.225225,0.56155
1692595069216,-0.36495003,-1.81605,11.367001,-0.206525,-0.1945625,0.4961
1692595069251,0.35505003,-2.45805,13.191001,-0.216975,-0.027224999,0.39875
1692595069277,-0.36705002,-2.1760502,12.18795,-0.26345,0.0339625,0.437525
1692595069304,-0.83595,-1.692,9.777,-0.33165,0.0551375,0.5251125
1692595069337,-0.324,-2.1709502,10.1629505,-0.417725,0.0726,0.6868125
1692595069364,-0.47505003,-1.8499501,11.350051,-0.42061248,0.096525,0.75185
1692595069401,-0.53505003,-0.60495,9.418051,-0.4032875,0.1274625,0.7436
1692595069426,-0.9990001,0.50205004,6.9889503,-0.3700125,0.1384625,0.5889125
1692595069454,-0.312,0.70095,6.3900003,-0.1645875,0.21133749,0.0331375
1692595069483,0.072000004,0.24300002,8.274,0.016775,0.2715625,-0.3223
1692595069511,0.90795004,1.1340001,11.887951,0.38445,0.3179,-1.0653499
1692595069539,1.4680501,1.644,9.49995,0.5149375,0.258775,-1.365925
1692595069565,-0.47295,1.9050001,5.67495,0.6282375,0.144375,-1.62635
1692595069593,-2.15295,1.66305,5.19105,0.85085,-0.1362625,-2.1274
1692595069623,0.37905002,-0.24900001,9.424951,0.941325,-0.1780625,-2.3128874
1692595069648,-0.12795001,-0.77505004,6.558,0.9937125,-0.107525,-2.398825
1692595069680,0.50100005,-0.18195,5.8230004,0.7662875,0.113575,-1.9298124
1692595069710,2.5159502,-0.10005,9.624001,0.1948375,0.1071125,-0.7530875
1692595069737,1.79805,0.28905,10.728001,0.00385,-0.01045,-0.30153748
1692595069767,-1.19805,2.07495,8.415,-0.0889625,-0.2321,-0.0270875
1692595069798,-3.072,2.8530002,8.03895,-0.0108624995,-0.5808,-0.055825
1692595069827,-1.0330501,1.7920501,8.817,0.442475,-0.01925,-0.97583747
1692595069855,0.22500001,0.92295,9.363001,0.7145875,0.4049375,-1.581525
1692595069883,0.052950002,0.73905003,8.6310005,0.877525,0.648175,-1.96845
1692595069914,-0.32205,0.90195006,9.30105,0.675675,0.4488,-1.569425
1692595069942,-0.32700002,0.78900003,10.225051,0.4541625,0.24419999,-1.1177375
1692595069970,-0.68295,0.86100006,10.066951,0.2701875,0.1051875,-0.752125
1692595070001,-0.882,0.717,9.8539505,0.040975,0.0132,-0.2954875
1692595070029,0.177,0.44205,9.375,-0.0290125,0.0221375,-0.1885125
1692595070057,0.15105,0.46095002,9.354,-0.1128875,0.07535,-0.15895
1692595070089,-0.44595003,0.78900003,10.066951,-0.1747625,-0.006325,-0.001925
1692595070118,-0.73095006,1.08405,9.67905,-0.1848,-0.069575,0.085525
1692595070147,-0.564,1.2030001,8.776951,-0.1610125,-0.087175,0.0955625
1692595070178,-0.07305,1.1080501,9.552,-0.036575,-0.0022,-0.0446875
1692595070202,-0.039,0.94005007,9.865951,0.0308,0.034375,-0.12155
1692595070234,0.35895002,0.45600003,10.033051,0.11,-4.125E-4,-0.19139999
1692595070262,-0.034950003,0.61005,9.957001,0.099,-0.050875,-0.1266375
1692595070292,-0.30495003,1.005,9.507001,0.05115,-0.1007875,0.018424999
1692595070321,-0.34095,1.131,8.920051,-0.060775,-0.1458875,0.2946625
1692595070345,0.094050005,0.91800004,9.33705,-0.0661375,-0.1233375,0.2864125
1692595070374,0.402,0.6,9.603001,0.0108624995,-0.059675,0.0455125
1692595070405,0.24000001,0.67005,9.184051,0.0306625,-0.0658625,-0.040975
1692595070435,0.08895,0.73905003,9.45195,0.014712499,-0.0996875,-0.0430375
1692595070467,0.26595002,0.66495,10.219951,-0.048125,-0.15675,0.0837375
1692595070489,0.00795,0.99705005,10.09605,-0.062975,-0.1398375,0.144925
1692595070521,-0.45795003,1.4790001,9.13095,-0.05995,-0.131725,0.12773749
1692595070550,-0.79800004,1.74195,9.30105,-0.042625,-0.121275,0.0627
1692595070581,-0.23295002,1.368,8.961,0.078375,-0.0400125,-0.2215125
1692595070610,0.18195,0.97395,8.911051,0.235125,0.0790625,-0.5016
1692595070638,0.39105,0.78195006,9.14295,0.26015,0.0935,-0.5350125
1692595070666,0.048,1.04295,9.222,0.232375,0.06215,-0.4695625
1692595070695,-0.12105001,1.0639501,8.3869505,0.0837375,-0.0595375,-0.1661
1692595070726,-0.018000001,1.074,8.559,0.0268125,-0.09405,-0.0644875
1692595070755,0.015000001,1.4980501,8.583,0.0089375,-0.0743875,-0.04455
1692595070784,-0.28095,1.8930001,7.7430005,0.023924999,-0.052525,-0.0633875
1692595070821,0.055050004,2.22495,7.6180506,0.1038125,-0.038225,-0.2017125
1692595070844,0.44595003,2.4190502,8.262,0.18975,-0.0363,-0.330275
1692595070873,0.81195,3.015,8.785951,0.4101625,-0.0584375,-0.5731
1692595070902,0.80505,3.44895,8.01105,0.50655,-0.113299996,-0.617375
1692595070930,1.05795,2.637,7.9530005,0.676775,-0.295075,-0.55605
1692595070959,0.35505003,1.57395,8.911051,0.7524,-0.3905,-0.56581247
1692595070987,-0.70695,0.17205001,7.9840503,0.686675,-0.49335,-0.552475
1692595071016,-0.15405001,-0.44505003,7.4770503,0.4750625,-0.4054875,-0.3757875
1692595071046,-1.44,-1.2250501,7.8139505,0.1722875,-0.205975,-0.0754875
1692595071072,-0.93000007,-1.572,10.066951,-0.5143875,0.28187498,0.7825125
1692595071102,1.539,-3.21705,12.36495,-0.835725,0.495275,1.256475
1692595071131,0.795,-2.93895,11.364,-1.4053875,0.69025,2.32485
1692595071161,0.29505002,-2.664,10.92405,-1.4053875,0.69025,2.32485
1692595071190,-1.0999501,-2.0770502,11.371051,-1.791625,0.0594,3.51835
1692595071219,-0.69795,-2.63505,10.95705,-1.6561875,0.0022,3.34785
1692595071246,0.01905,-2.8510501,11.875951,-1.4526875,0.059125,3.0745
1692595071277,0.61800003,-2.6830502,12.469951,-1.096975,0.1475375,2.5955875
1692595071305,0.024,-1.8790501,12.34605,-0.9873875,0.082775,2.3489125
1692595071335,-1.27005,-1.1340001,10.990951,-0.7682125,-0.1357125,1.6009125
1692595071361,-0.62805,-1.39995,12.625951,-0.60513747,-0.17105,1.174525
1692595071391,0.109950006,-1.39995,12.951,-0.2343,-0.011825,0.5357
1692595071422,-0.95100003,-0.88995004,11.206051,-0.086075,0.0812625,0.30415
1692595071450,-1.00395,-0.91905004,10.48095,0.0213125,0.12375,0.08745
1692595071479,-0.25995,-1.3980001,11.2570505,0.1516625,0.1530375,-0.21367499
1692595071507,0.64395005,-1.58895,11.60595,0.1843875,0.190575,-0.262625
1692595071536,0.30900002,-1.4100001,11.03205,0.1716,0.1786125,-0.33261248
1692595071566,-0.54705,-0.57705003,11.04405,0.12979999,0.0754875,-0.3548875
1692595071593,-0.42705002,-0.177,10.833,0.075625,-0.1153625,-0.3089625
1692595071624,-0.28605002,-0.507,10.198951,0.1175625,-0.09955,-0.342925
1692595071648,0.015000001,-0.67005,11.677951,0.2794,0.0386375,-0.561825
1692595071680,0.41400003,-0.97905004,12.118051,0.3232625,0.0686125,-0.622875
1692595071708,0.261,-1.2760501,12.06105,0.2905375,0.0154,-0.5561875
1692595071738,-0.324,-1.2919501,11.142,0.229625,-0.045925,-0.4662625
1692595071766,-0.063,-1.8550501,12.3,0.152625,-0.1005125,-0.36519998
1692595071797,0.28005,-2.355,12.361951,0.00715,-0.1115125,-0.13365
1692595071825,-0.41505003,-2.3809502,12.336,-0.0600875,-0.091299996,0.043175
1692595071854,-0.95100003,-2.14695,12.001051,-0.210925,-0.0834625,0.452375
1692595071882,-0.28095,-2.436,12.078001,-0.2800875,-0.0661375,0.6070625
1692595071912,-0.18495001,-2.83605,12.81,-0.330275,-0.0290125,0.70675
1692595071938,-0.50595003,-2.94105,12.86295,-0.373175,0.021724999,0.730125
1692595071965,-0.75495005,-2.8840501,11.89305,-0.384175,0.0067375,0.7000125
1692595071995,-0.23805001,-3.348,12.859951,-0.40507498,-0.0306625,0.6961625
1692595072026,-0.23805001,-3.6160502,13.075951,-0.4074125,-0.0287375,0.7145875
1692595072056,-0.60195005,-3.0199502,12.549001,-0.4255625,-0.0545875,0.76505
1692595072083,-0.75705004,-2.21595,11.521951,-0.439725,-0.088825,0.7932375
1692595072112,-0.21195,-1.6369501,10.26795,-0.373725,-0.072875,0.6947875
1692595072140,-0.21195,-0.84000003,9.354,-0.2773375,-0.0072875,0.4885375
1692595072171,-0.087000005,0.016050002,7.5820503,-0.0273625,0.10395,-0.0930875
1692595072201,-0.63495004,0.61005,6.4429502,0.114675,0.1236125,-0.3702875
1692595072227,-1.1359501,1.335,8.35995,0.263175,0.1379125,-0.6224625
1692595072256,-1.00395,1.83,8.904,0.556325,0.2248125,-1.097525
1692595072290,-1.641,2.21295,8.229,0.950675,0.4395875,-1.79465
1692595072317,-0.34095,1.81605,6.3040504,1.1691625,0.5317125,-2.23025
1692595072346,0.513,1.47105,5.907,1.350525,0.57805,-2.6184125
1692595072374,0.32295,1.4500501,6.18195,1.50315,0.4626875,-2.964225
1692595072403,0.76905006,0.708,6.81195,1.4521375,0.2602875,-2.8193
1692595072432,1.40295,0.22005,7.0270505,1.335675,0.0044,-2.48985
1692595072461,1.2859501,0.034950003,8.03505,0.9832625,-0.40645,-1.6416125
1692595072489,0.38595003,0.72195005,9.13095,0.480975,-0.66385,-0.6898375
1692595072519,-1.0999501,1.4670001,5.8710003,0.25959998,-0.7101875,-0.2820125
1692595072547,-0.46800002,1.51005,6.3850503,0.126225,-0.6554625,-0.0301125
1692595072578,1.9660501,0.90195006,10.540951,0.1478125,-0.337975,-0.0592625
1692595072607,1.22595,0.86295,11.166,0.224675,-0.20845,-0.1903
1692595072635,-1.31805,1.2610501,8.644951,0.2234375,-0.271425,-0.09515
1692595072666,-1.485,0.36600003,9.16695,0.15785,-0.331925,0.0521125
1692595072700,-0.72900003,-0.048,10.053,0.100375,-0.0229625,-0.0108624995
1692595072726,-0.09,0.27,10.06005,0.064075,0.260425,-0.124437496
1692595072752,-0.231,1.12695,9.18795,-0.1428625,0.55055,-0.05335
1692595072780,-0.95100003,1.6369501,7.28805,-0.2211,0.496925,0.0251625
1692595072809,-0.06105,0.57600003,8.88405,-0.1067,0.2809125,-0.1694
1692595072838,1.00605,0.12105001,12.288,0.0323125,0.2209625,-0.3570875
1692595072869,-0.15705001,0.88695,9.898951,0.102437496,0.0917125,-0.3188625
1692595072897,-0.82395005,1.2420001,8.48205,0.102437496,0.0917125,-0.3188625
1692595072925,-0.68100005,0.85395,8.52105,-0.052249998,-0.0988625,0.0473
1692595072955,0.61605,-0.51000005,11.57205,0.016775,-0.0078375,-0.1841125
1692595072983,0.28800002,-0.33495003,10.73505,0.047575,0.066275,-0.2855875
1692595073014,-0.73095006,0.33,9.700951,-0.14795,0.0210375,0.0391875
1692595073043,-0.71895003,0.49005002,9.64095,-0.2789875,-0.0380875,0.2448875
1692595073072,-0.034950003,0.13605,10.014001,-0.3235375,-0.0023375,0.30621248
1692595073100,0.048,0.058950003,9.592951,-0.26221249,0.05775,0.229625
1692595073129,-0.23295002,0.21705002,9.267,-0.1771,0.0697125,0.177375
1692595073158,-0.441,0.34905002,8.973001,-0.168025,0.0319,0.218625
1692595073190,-0.54195005,0.42105,9.009001,-0.1574375,0.0053625,0.247775
1692595073219,-0.16395001,0.102000006,10.111951,-0.0983125,0.0380875,0.2041875
1692595073248,-0.47295,0.624,9.66705,-0.055275,0.083875,0.2792625
1692595073276,-0.70005006,0.87105006,8.98305,-0.0581625,0.076725,0.35694999
1692595073303,-0.32205,0.53505003,9.733951,-0.0466125,0.069299996,0.3491125
1692595073338,0.18195,0.41805002,10.431001,0.064899996,0.100099996,0.036849998
1692595073368,-0.37905002,1.0720501,10.110001,0.108075,0.092675,-0.123475
1692595073394,-0.50595003,1.3230001,9.436951,0.1057375,-0.0215875,-0.231825
1692595073425,-0.42495003,0.89205,9.670051,0.1219625,-0.0595375,-0.254375
1692595073453,-0.41805002,0.55005,9.81105,0.22715,-0.029424999,-0.4041125
1692595073482,-0.351,0.52095,9.32505,0.25245,-0.0031625,-0.454575
1692595073510,-0.47700003,0.74895006,8.97105,0.227425,0.01375,-0.4241875
1692595073541,-0.64305,0.97800004,8.734051,0.1013375,0.0331375,-0.1824625
1692595073568,-0.64695,0.98100007,9.612,0.0636625,0.06765,-0.034649998
1692595073599,-0.777,1.1200501,9.1050005,0.089925,0.0922625,-0.0776875
1692595073627,-0.70005006,1.28205,8.47995,0.1579875,0.1254,-0.25355
1692595073656,-0.88005006,1.23705,7.8960004,0.186725,0.128975,-0.3213375
1692595073684,-1.1359501,1.3609501,7.0960503,0.21615,0.1274625,-0.374825
1692595073714,-0.39105,1.31595,7.5750003,0.2861375,0.14465,-0.5113625
1692595073741,-0.24300002,1.488,7.65705,0.3210625,0.1632125,-0.5999125
1692595073772,-0.65505004,2.1679502,7.4389505,0.3584625,0.114125,-0.6131125
1692595073801,-0.62295,2.23005,8.68305,0.3746875,0.0457875,-0.516175
1692595073830,0.39105,1.536,9.243,0.47905,-0.047849998,-0.446875
1692595073857,-0.34800002,0.96195006,8.925,0.5159,-0.081675,-0.441925
1692595073887,-2.8540502,-0.53805,6.97905,0.4786375,-0.131725,-0.326975
1692595073923,-0.60405004,-1.1389501,9.672001,0.142725,-0.1153625,0.18053749
1692595073952,2.358,-1.8280501,11.106001,-0.48221248,0.2717,0.7893875
1692595073980,-0.042000003,-0.95505005,8.604,-0.827475,0.32793748,1.2931875
1692595074011,-1.128,-0.43800002,11.448001,-1.2244375,-0.099275,2.284425
1692595074039,0.94305,-0.94305,13.087951,-1.2181125,-0.25025,2.4204125
1692595074066,0.312,-0.62700003,11.623051,-1.1251625,-0.256575,2.3211374
1692595074096,-0.19995001,-1.2079501,10.585951,-0.8622625,-0.2189,1.786675
1692595074126,-0.45600003,-1.71105,10.716001,-0.7434625,-0.2443375,1.51525
1692595074155,0.11505,-1.8259501,10.693951,-0.6037625,-0.22247499,1.3050125
1692595074183,0.22305001,-1.848,11.082001,-0.586575,-0.1793,1.35025
1692595074218,0.15795001,-1.24395,10.366051,-0.5836875,-0.1456125,1.441825
1692595074247,0.42195,-1.2540001,9.96405,-0.565125,-0.16335,1.4234
1692595074275,0.40995002,-1.16295,12.204,-0.4387625,-0.18535,1.1633875
1692595074305,0.201,-0.98805004,12.010951,-0.35021248,-0.1863125,0.936375
1692595074332,-0.38205,-0.79395,11.04405,-0.179575,-0.1775125,0.49115
1692595074361,-0.08205,-0.75405,11.194051,-0.099,-0.14905,0.34141248
1692595074391,-0.051000003,-0.555,11.302051,-0.0273625,-0.0941875,0.23375
1692595074422,0.201,-0.45705003,11.235001,0.0793375,0.034925,-2.75E-4
1692595074451,0.47205,-0.41400003,11.053051,0.1557875,0.0620125,-0.2198625
1692595074480,0.02205,0.186,10.31595,0.1837,0.0361625,-0.2773375
1692595074508,-0.19695,0.12105001,10.1320505,0.225225,-0.029975,-0.3359125
1692595074535,0.109950006,0.00405,9.61905,0.2600125,-0.03135,-0.3818375
1692595074568,1.1920501,-0.19395001,12.814951,0.30085,-0.004125,-0.454575
1692595074595,-0.079950005,0.018000001,11.163,0.314325,0.0232375,-0.5938625
1692595074623,-1.4950501,0.22395001,9.83205,0.2816,-0.0116875,-0.617925
1692595074653,-0.36,-0.97200006,13.1980505,0.2283875,-0.0081124995,-0.5385875
1692595074683,0.78105,-2.3719501,15.1699505,0.2083125,0.0792,-0.4466
1692595074710,0.177,-1.9240501,13.665001,0.0352,0.18205,-0.09405
1692595074741,0.40995002,-1.4959501,12.280951,-0.128975,0.119625,0.1529
1692595074770,1.2349501,-1.125,11.875951,-0.35915,-0.0460625,0.4362875
1692595074799,1.14195,-1.21605,12.693001,-0.36465,-0.1065625,0.419375
1692595074827,0.864,-1.539,12.436951,-0.268675,-0.245025,0.257125
1692595074857,0.10305001,-1.5409501,12.23295,-0.2253625,-0.30153748,0.2118875
1692595074885,0.01695,-1.7209501,12.394051,-0.20295,-0.3174875,0.20487499
1692595074916,0.711,-2.32905,13.095,-0.207075,-0.20899999,0.2754125
1692595074945,0.83805007,-2.4820502,12.40995,-0.220825,-0.1315875,0.3641
1692595074973,0.72300005,-2.6950502,12.796051,-0.2435125,-0.086899996,0.4632375
1692595075003,0.31605002,-2.355,11.149051,-0.311025,-0.1029875,0.5555
1692595075032,-0.33600003,-1.5439501,9.87495,-0.3680875,-0.143275,0.6348375
1692595075058,-1.04505,-0.36600003,9.102,-0.3685,-0.13475,0.6677
1692595075088,-0.47295,0.66,6.5989504,-0.24419999,0.0116875,0.5402375
1692595075116,0.109950006,1.383,5.7580504,-0.098037496,0.1362625,0.35585
1692595075224,0.38595003,2.4739501,6.2749505,1.0247875,0.18535,-1.7249374
1692595075263,-1.33395,1.81095,6.50505,1.3655125,0.034375,-2.5078626
1692595075289,-0.762,1.4310001,7.0290003,1.4069,-0.064075,-2.7429874
1692595075318,0.024,0.94995004,6.83295,1.298,0.007425,-2.57235
1692595075346,-1.07595,0.58605003,5.787,1.1336875,0.1241625,-2.2633874
1692595075372,-0.14505,0.72195005,6.8689504,0.69575,0.2253625,-1.355475
1692595075402,1.7119501,1.074,8.578051,0.46805,0.252725,-0.928125
1692595075433,0.37395,1.9810501,8.953951,0.2781625,0.2795375,-0.6056875
1692595075462,-2.115,3.14895,8.21205,0.0697125,0.0191125,-0.10945
1692595075491,-1.2580501,2.838,8.51595,0.2402125,-0.22935,-0.3865125
1692595075518,0.29205,1.9020001,9.30795,0.4426125,-0.121825,-0.928675
1692595075547,0.13905,1.11705,9.688951,0.622875,0.013475,-1.456125
1692595075577,-0.669,1.215,8.932051,0.56168747,0.0286,-1.386825
1692595075608,-0.08505,0.84900004,9.981001,0.1065625,-0.0444125,-0.362725
1692595075636,-0.24000001,1.0690501,9.892051,-0.0653125,-0.0187,-0.043449998
1692595075663,-0.27195,1.1839501,9.9210005,-0.184525,0.0094875,0.1216875
1692595075694,-0.25695002,1.194,10.54605,-0.3018125,-0.00715,0.1337875
1692595075721,-0.28800002,1.3110001,10.491,-0.3064875,-0.0312125,0.042625
1692595075748,-0.83400005,1.2870001,9.76305,-0.291775,-0.0474375,-0.0374
1692595075778,-1.42305,1.2730501,10.28505,-0.23595,-0.0372625,-0.080575
1692595075805,-0.97005004,0.86595005,10.213051,-0.1951125,0.0072875,-0.1111
1692595075835,-0.279,0.54705,10.498051,-0.154,0.0842875,-0.1879625
1692595075864,-0.01305,0.555,9.93795,-0.1329625,0.2217875,-0.30085
1692595075892,-0.42195,0.85095006,8.81295,-0.225775,0.140525,-0.0457875
1692595075921,-0.21900001,0.83895004,9.31995,-0.261525,0.054175,0.1010625
1692595075952,0.003,1.07895,10.255951,-0.2589125,-0.011825,0.161975
1692595075980,0.094050005,1.3369501,9.14505,-0.182325,-0.06985,0.152075
1692595076011,-0.24495001,1.4670001,8.68605,-0.0790625,-0.1236125,0.1959375
1692595076039,-0.22095,1.266,8.679001,-0.011275,-0.1486375,0.1606
1692595076066,0.44805002,0.76995003,9.19095,0.059675,-0.1604625,0.070125
1692595076098,0.91995007,0.76005006,9.684,0.1337875,-0.151525,-0.0622875
1692595076127,0.24000001,1.1910001,8.94705,0.102025,-0.1628,0.01045
1692595076155,-0.40995002,1.2100501,8.944051,-0.014712499,-0.260425,0.2666125
1692595076183,0.40995002,0.77505004,10.13595,-0.0287375,-0.2844875,0.2673
1692595076213,-0.08205,1.42095,8.99505,0.006875,-0.1788875,0.080025
1692595076242,-0.81495005,1.81095,7.7590504,0.0111375,-0.1186625,0.0358875
1692595076270,-0.62295,1.55505,8.533051,0.0548625,-0.043175,-0.066
1692595076305,-0.17595,1.0210501,9.700951,0.1252625,0.01815,-0.2233
1692595076334,0.08895,0.73905003,9.717,0.2138125,0.1304875,-0.5148
1692595076362,0.087000005,0.897,9.415951,0.2138125,0.1304875,-0.5148
1692595076392,-0.32700002,1.8520501,8.793,-0.0191125,0.0455125,-0.22275
1692595076421,0.036000002,2.21295,7.9579506,-0.0622875,0.0100375,-0.1211375
1692595076449,0.42195,2.3430002,7.7590504,-0.0297,-0.008525,-0.152075
1692595076480,0.762,2.4550502,8.15205,0.2160125,-0.0614625,-0.4739625
1692595076508,0.192,2.802,8.50395,0.3537875,-0.1282875,-0.5776375
1692595076536,-0.23595001,2.8500001,8.133,0.4598,-0.2149125,-0.577775
1692595076566,-0.075,1.8379501,8.463,0.572825,-0.3180375,-0.44233748
1692595076594,0.14205001,0.65295005,8.99205,0.5724125,-0.2079,-0.4585625
1692595076631,0.91695005,-0.20805001,9.0379505,0.4752,-0.1254,-0.4302375
1692595076665,-1.7839501,-0.76305,8.793,-0.0056375,0.0119624995,0.2382875
1692595076686,-1.0690501,-1.1770501,11.332951,-0.3108875,0.0760375,0.8012125
1692595076716,0.9580501,-1.6849501,11.331,-0.80602497,0.3705625,1.65715
1692595076746,0.54795,-1.33095,9.85095,-0.989175,0.5564625,1.979725
1692595076778,-0.41295,-1.182,9.418051,-1.2321374,0.4813875,2.7900126
1692595076806,-0.14895001,-1.4449501,10.443001,-1.2464375,0.2822875,3.04205
1692595076834,0.12195001,-1.55295,10.567051,-1.0863875,0.0743875,2.899325
1692595076861,-0.513,-1.065,10.515,-0.9898625,0.050325,2.6712124
1692595076890,-1.26495,-0.42795002,10.01895,-0.8173,0.011275,2.1781375
1692595076920,-0.69495004,-0.19605,10.73505,-0.697675,0.0389125,1.8797625
1692595076952,-0.058050003,-0.52905005,11.814,-0.3729,0.21505,1.205325
1692595076975,-0.32700002,-0.47100002,11.946,-0.2184875,0.2630375,0.91574997
1692595077007,0.13395001,-0.507,12.621,-0.034375,0.1610125,0.517
1692595077037,0.44595003,-0.37095,12.280951,0.0053625,0.080025,0.35901248
1692595077064,0.094050005,-0.15300001,12.231001,0.0317625,0.0086624995,0.1772375
1692595077093,-0.29505002,-0.16005,12.561001,0.0719125,-0.118525,-0.216975
1692595077122,-0.72405005,0.049950004,11.460001,0.0924,-0.14685,-0.3491125
1692595077151,-0.82005006,0.0019500001,11.041051,0.136125,-0.0730125,-0.43353748
1692595077190,-0.61905,-0.22500001,11.067,0.1662375,0.0793375,-0.5148
1692595077217,-0.62295,-0.072000004,10.93095,0.1676125,0.1408,-0.59894997
1692595077246,-1.0849501,0.07395,10.086,0.1568875,0.1758625,-0.6545
1692595077275,-0.75495005,0.12900001,10.845,0.12979999,0.18535,-0.622875
1692595077304,-0.75495005,0.12900001,10.845,0.12979999,0.18535,-0.622875
1692595077330,0.34500003,-0.80895007,12.973051,0.091025,0.159775,-0.26427498
1692595077358,-0.231,-0.51195,11.44095,0.0198,0.0482625,-0.0473
1692595077391,-0.058050003,-1.25205,13.200001,-0.123475,-0.179025,0.2946625
1692595077419,0.16605,-1.6200001,14.347051,-0.1472625,-0.198275,0.3793625
1692595077449,-0.975,-1.2589501,12.714001,-0.2063875,-0.1579875,0.545325
1692595077476,-1.00605,-1.383,12.325951,-0.2572625,-0.142725,0.6287875
1692595077506,-0.86295,-1.5340501,12.160951,-0.2916375,-0.104499996,0.66934997
1692595077537,-0.147,-1.69395,11.87895,-0.3018125,0.0501875,0.630575
1692595077561,0.12705001,-2.0989501,11.733001,-0.3031875,0.104775,0.5688375
1692595077592,-0.17595,-2.3790002,11.460001,-0.3267,0.06435,0.4145625
1692595077623,-0.91305006,-2.12805,11.424001,-0.3570875,-0.0053625,0.3839
1692595077651,-1.179,-1.8910501,10.93305,-0.41965,-0.0765875,0.470525
1692595077680,-0.91095006,-1.4290501,10.045051,-0.4236375,-0.0411125,0.54065
1692595077709,-0.64500004,-0.57405,8.56095,-0.403975,0.0251625,0.574475
1692595077737,-0.35805002,-0.055050004,7.1950502,-0.2795375,0.14093749,0.4277625
1692595077768,-0.42705002,0.48795003,7.17495,-0.0317625,0.1661,0.0231
1692595077796,-0.31005,0.94695,8.66205,0.1122,0.1606,-0.2393875
1692595077825,-0.063,1.8090001,8.401051,0.2649625,0.155375,-0.5341875
1692595077853,-0.76695,1.3920001,7.3500004,0.6422625,0.1318625,-1.2929125
1692595077883,-0.87000006,0.74595004,9.741,0.84755,0.1027125,-1.7348375
1692595077910,-0.48495004,1.11,10.8810005,1.00595,0.081125,-2.113375
1692595077941,0.50100005,0.70995003,7.4770503,1.04225,0.1010625,-2.3896124
1692595077970,0.9580501,0.804,6.91905,0.8261,0.00495,-2.1577876
1692595077998,2.1709502,0.53505003,7.5850506,0.7220125,-0.12595,-1.9848125
1692595078026,1.83105,0.61200005,7.563,0.633875,-0.28545,-1.7721
1692595078057,-0.11805001,1.33305,6.6390004,0.45595,-0.62975,-1.0558625
1692595078084,0.42405003,1.04505,8.217,0.3801875,-0.7448375,-0.6650875
1692595078115,1.2739501,1.5169501,10.6050005,0.3377,-0.655325,-0.394625
1692595078141,0.55095005,2.08905,10.467001,0.350075,-0.5256625,-0.462
1692595078172,-0.50595003,2.0320501,8.24505,0.3716625,-0.3905,-0.5621
1692595078201,-0.279,1.17495,9.258,0.3971,-0.332475,-0.6367625
1692595078230,0.079050004,1.0189501,9.576,0.4301,-0.22275,-0.7748125
1692595078259,-0.15900001,0.99495006,8.6980505,0.386375,0.0548625,-0.912175
1692595078288,-0.42705002,0.99495006,8.86995,0.27665,0.14739999,-0.76559997
1692595078317,-0.09,0.768,10.087951,0.043725,0.224675,-0.38073748
1692595078346,0.177,0.66,10.893001,0.043725,0.224675,-0.38073748
1692595078374,-0.07305,0.81600004,10.440001,-0.1485,0.2077625,-0.105325
1692595078403,0.16095,1.0500001,9.660001,-0.20487499,0.164175,0.0064625
1692595078431,0.44805002,1.08405,9.222,-0.23485,0.0952875,0.1018875
1692595078462,0.39495003,0.79200006,9.327001,-0.19525,0.0686125,0.0900625
1692595078489,0.55605,0.42795002,10.122001,-0.088,-0.0232375,0.0760375
1692595078519,0.522,0.32700002,10.584001,-0.069299996,-0.065175,0.1252625
1692595078547,0.028950002,0.282,9.885,-0.134475,-0.093637496,0.36987498
1692595078577,-0.56805,0.21495001,10.2630005,-0.183975,-0.0889625,0.4783625
1692595078605,-0.57795,0.109050006,10.46205,-0.21945,-0.06215,0.5157625
1692595078635,-0.64305,0.45900002,9.318001,-0.2536875,0.0947375,0.4142875
1692595078663,-0.67395,0.74895006,8.647051,-0.2630375,0.1885125,0.3254625
1692595078694,-1.2220501,1.17495,8.44905,-0.2561625,0.2550625,0.2046
1692595078718,-0.46500003,0.76305,9.061951,-0.144925,0.3069,-0.1634875
1692595078750,-0.312,1.0000501,9.373051,0.037125,0.3356375,-0.3911875
1692595078780,-0.80805004,1.31595,9.0709505,0.100099996,0.321475,-0.3826625
1692595078814,-0.86295,1.2390001,9.460951,0.162525,0.2132625,-0.3092375
1692595078840,-0.94395006,1.3369501,9.379951,0.1948375,0.1791625,-0.3298625
1692595078868,-0.726,1.2610501,8.80305,0.253275,0.1799875,-0.44701248
1692595078895,-0.65205,1.1910001,8.817,0.2655125,0.17765,-0.514525
1692595078922,-0.549,1.1530501,9.064051,0.269775,0.1610125,-0.5737875
1692595078955,-0.372,1.2250501,8.986951,0.245575,0.111237496,-0.4833125
1692595078986,-0.135,1.3039501,8.986951,0.2162875,0.085525,-0.3243625
1692595079011,-0.62295,1.8040501,8.62395,0.1648625,0.01045,-0.0743875
1692595079042,-0.75705004,2.1660001,7.0339503,0.1584,-0.0345125,-0.033
1692595079075,0.24000001,1.4929501,8.3550005,0.2558875,-0.06875,-0.140525
1692595079100,-0.135,1.42095,10.342051,0.3529625,-0.0606375,-0.27115
1692595079129,-1.2910501,1.5810001,11.13405,0.391325,-0.1265,-0.3075875
1692595079158,-1.1329501,1.299,8.7960005,0.28875,-0.154275,-0.1698125
1692595079191,0.16995001,0.75105006,8.52795,0.070675,-0.0097624995,0.0281875
1692595079220,-0.25500003,-0.37095,9.1050005,0.010175,0.0829125,0.0785125
1692595079253,-1.4419501,-0.40695003,9.65505,-0.1739375,0.11055,0.4192375
1692595079282,-0.82905006,-0.88095003,9.612,-0.3460875,0.1137125,0.703175
1692595079311,-0.67395,-1.1850001,8.877001,-0.68488747,0.251075,1.26225
1692595079339,-0.65505004,-0.92805004,8.72595,-0.7789375,0.3125375,1.552375
1692595079370,0.30900002,-0.84495,10.12695,-0.854425,0.206525,2.052875
1692595079399,0.28995,-0.402,9.772051,-0.9092875,0.13805,2.1483
1692595079428,-0.078,-0.483,9.375,-0.8223875,-0.100237496,2.035825
1692595079458,-0.010950001,-0.67695004,9.607051,-0.7211875,-0.2121625,1.886775
1692595079487,0.08895,-0.16995001,10.069051,-0.609675,-0.2762375,1.7078875
1692595079516,-0.21405001,-0.40395,10.60305,-0.41635,-0.2882,1.3561625
1692595079546,-0.441,-0.24405001,10.99995,-0.3345375,-0.2748625,1.1983125
1692595079575,-0.441,-0.24405001,10.99995,-0.3345375,-0.2748625,1.1983125
1692595079600,-0.92505,-0.77295005,10.210951,-0.11825,-0.1398375,0.7544625
1692595079633,-0.24495001,-1.4620501,12.127951,-0.0537625,0.00825,0.49885
1692595079660,0.48900002,-1.5169501,13.1640005,-0.0840125,0.0746625,0.4712125
1692595079691,0.00795,-1.062,11.48595,-0.24145,0.071225,0.5614125
1692595079719,-0.56100005,-0.79395,10.902,-0.298925,-0.0088,0.55233747
1692595079750,-0.33600003,-0.66300005,11.6970005,-0.2778875,-0.11165,0.3746875
1692595079778,-0.14505,-0.711,11.842951,-0.221925,-0.0897875,0.2666125
1692595079806,-0.71895003,-0.45900002,11.094001,-0.1593625,-0.049775,0.1527625
1692595079835,-0.61905,-0.25095,11.19705,-0.0537625,-0.0066,-0.057475
1692595079866,-0.10605001,-0.055050004,11.115001,-0.0088,0.0149875,-0.1186625
1692595079891,-0.05595,0.049950004,10.92105,0.0383625,0.045925,-0.1643125
1692595079921,-0.71400005,-0.201,9.427951,0.143275,0.054175,-0.29865
1692595079952,1.4479501,-0.57900006,13.807951,0.21285,-0.0119624995,-0.43835
1692595079981,0.35700002,-0.37095,12.303,0.2091375,-0.0584375,-0.4398625
1692595080010,-1.21695,-0.72705,10.057051,0.1310375,-0.245575,-0.3268375
1692595080039,0.15795001,-1.3069501,12.7570505,0.0803,-0.2888875,-0.2668875
1692595080081,0.49605003,-1.761,14.236951,-0.0334125,-0.1120625,-0.1109625
1692595080105,-0.47505003,-1.24695,11.41005,-0.105875,-0.0430375,-0.0086624995
1692595080128,0.010050001,-1.197,10.49295,-0.23815,-0.09075,0.21285
1692595080158,0.036000002,-1.2420001,11.06295,-0.2649625,-0.0947375,0.293425
1692595080185,-0.34605002,-1.16805,10.783051,-0.2651,-0.061325,0.32793748
1692595080215,0.43395,-2.01795,9.83205,-0.2358125,0.01045,0.308825
1692595080248,0.24900001,-2.2780502,11.23305,-0.2294875,0.0207625,0.301125
1692595080274,0.18495001,-1.8600001,11.151001,-0.30153748,-0.0433125,0.39435
1692595080300,0.23505001,-1.8600001,11.082001,-0.36107498,-0.093637496,0.46928748
1692595080330,0.060000002,-2.7160501,11.3550005,-0.3905,-0.133925,0.4844125
1692595080362,-0.15405001,-3.2689502,12.493951,-0.3705625,-0.1288375,0.436975
1692595080391,-0.80100006,-1.98405,11.71905,-0.39875,-0.0950125,0.3931125
1692595080420,-1.29795,-0.82305,9.45405,-0.4371125,-0.055825,0.3683625
1692595080447,-0.762,0.10005,7.2420006,-0.43065,0.0149875,0.2880625
1692595080479,-0.40095,0.88995004,10.49295,-0.1797125,0.247775,-0.0721875
1692595080507,0.16995001,2.25195,11.677951,0.2776125,0.429275,-0.7154125
1692595080532,0.453,2.6230502,7.9440002,0.5435375,0.44027498,-1.1807125
1692595080561,0.49800003,2.2090502,4.5930004,0.8218375,0.3938,-1.7400625
1692595080591,-0.68805003,1.55505,6.05805,1.2852125,0.1775125,-2.728275
1692595080622,-1.014,0.77505004,8.628,1.3883375,0.064075,-2.9178874
1692595080652,-0.60705,0.43005002,7.5780005,1.3783,0.0083875,-2.871275
1692595080681,-1.00905,0.39705002,6.03105,1.0665874,0.1194875,-2.2807126
1692595080709,-0.94200003,0.22005,7.9270506,0.6043125,0.247225,-1.391775
1692595080735,-0.94395006,0.42105,8.06595,0.4162125,0.28215,-1.03785
1692595080771,-1.50195,0.58605003,6.5119505,0.275,0.312675,-0.8075375
1692595080796,0.93900007,0.753,9.67695,0.1164625,0.3641,-0.5908375
1692595080824,0.69705003,1.8139501,10.42395,0.0878625,0.3537875,-0.49774998
1692595080850,-1.6170001,2.12205,9.801001,0.13255,0.0171875,-0.2259125
1692595080879,-2.4019501,1.8180001,10.182,0.2387,-0.20927499,-0.2388375
1692595080907,-0.20205002,0.504,9.96195,0.5033875,-0.2204125,-0.8325625
1692595080938,0.74205005,0.03795,9.03495,0.539,-0.1029875,-1.142625
1692595080967,-0.16095,0.70500004,8.764951,0.2396625,-0.0281875,-0.7893875
1692595080996,-0.36705002,1.3039501,9.14505,0.0121,-0.1342,-0.2437875
1692595081026,-0.52500004,0.97095007,10.396951,-0.1491875,-0.2545125,0.312675
1692595081052,-0.66405004,0.99705005,10.629001,-0.1491875,-0.2545125,0.312675
1692595081080,-0.23595001,0.753,11.166,-0.0323125,-0.17325,0.17875
1692595081109,0.15405001,0.52605003,9.804001,-0.0199375,-0.0944625,0.0908875
1692595081140,0.063,0.59805006,9.765,-0.052525,-0.0900625,0.0842875
1692595081171,-0.006,0.75600004,10.014001,-0.122925,-0.14025,0.1155
1692595081199,0.13905,0.693,9.67905,-0.1357125,-0.1604625,0.1280125
1692595081228,0.67995006,0.351,9.77505,-0.1098625,-0.15619999,0.184525
1692595081252,0.63900006,0.45900002,9.79905,-0.096525,-0.158675,0.254375
1692595081281,0.17505,0.86805004,8.899051,-0.099275,-0.1799875,0.33467498
1692595081311,-0.61395,1.1869501,7.24695,-0.1115125,-0.2316875,0.4192375
1692595081337,-0.74100006,0.73905003,7.6920004,-0.0748,-0.2118875,0.356675
1692595081368,0.90495,0.22395001,9.868051,0.073699996,-0.052525,0.0015125
1692595081395,1.5490501,0.23895001,11.161051,0.10175,0.022275,-0.1233375
1692595081425,0.41400003,1.00695,8.323951,0.056649998,0.022275,-0.0730125
1692595081452,0.048,1.2079501,8.178,-0.031625,-0.0699875,0.1307625
1692595081484,0.522,0.717,10.63395,-0.0911625,-0.28435,0.37661248
1692595081513,-0.28800002,1.23,10.11495,0.0171875,-0.2473625,0.1475375
1692595081540,-1.4280001,1.6489501,8.67405,0.0372625,-0.194425,0.051425
1692595081572,-1.6140001,1.7850001,9.049951,0.0743875,-0.017324999,-0.2101
1692595081601,-0.65895003,1.2390001,9.97605,0.15455,0.142725,-0.5006375
1692595081628,-0.171,0.87495005,9.507001,0.2531375,0.3097875,-0.84095
1692595081660,0.264,0.72,8.83395,0.3026375,0.4103,-1.130525
1692595081687,0.558,0.91800004,9.279,0.13365,0.2091375,-0.738375
1692595081719,0.75705004,1.19895,8.08695,0.049225,0.0900625,-0.4698375
1692595081747,0.381,1.7629501,7.9339504,-0.0039875,-0.0202125,-0.2107875
1692595081775,-0.08205,2.60805,7.668,0.0264,-0.1997875,0.13475
1692595081803,-0.14505,3.0580502,7.293,0.11825,-0.2453,0.12485
1692595081833,0.34695002,3.252,6.93795,0.4310625,-0.2107875,-0.260975
1692595081859,1.0339501,2.45805,8.23095,0.61448747,-0.175725,-0.517275
1692595081890,0.762,1.455,9.98805,0.853875,-0.2156,-0.7623
1692595081914,0.18,0.58095,8.413051,0.8129,-0.282425,-0.605
1692595081947,0.48405004,0.00405,8.398951,0.638825,-0.3216125,-0.2816
1692595081975,-0.432,-0.61995006,7.39095,0.370425,-0.2883375,0.09185
1692595082003,-2.4760501,-1.8550501,8.68095,-0.2168375,-0.0463375,0.7181625
1692595082034,-1.33905,-2.7,10.846951,-0.4844125,0.1478125,0.9730875
1692595082062,-0.252,-3.3289502,11.125051,-1.046375,0.7346625,1.5257
1692595082090,-0.384,-2.50305,11.05095,-1.67695,0.9123125,2.6692874
1692595082129,-1.2049501,-1.8690001,11.115001,-1.8778375,0.693,3.2355125
1692595082155,-1.76505,-1.9549501,10.94295,-1.754775,0.2211,3.370675
1692595082183,-0.94200003,-2.0970001,11.22795,-1.5008125,0.1326875,3.0234876
1692595082214,0.27600002,-2.23095,11.73795,-1.006775,0.123475,2.247025
1692595082243,-0.36,-1.8330001,11.185051,-0.8382,0.0814,1.9372375
1692595082271,-0.73605,-1.8499501,10.416,-0.592075,-0.123475,1.3388375
1692595082299,0.096,-2.391,11.611051,-0.4833125,-0.1920875,1.04555
1692595082330,1.176,-2.403,13.510951,-0.3900875,-0.208175,0.8096
1692595082358,0.22305001,-0.95505005,12.0730505,-0.29273748,-0.2624875,0.5212625
1692595082387,-0.19005,-0.28695002,11.167951,-0.256025,-0.33605,0.3760625
1692595082414,-0.43905002,-0.105000004,11.89305,-0.0532125,-0.3403125,-0.0738375
1692595082446,-0.32895002,-0.76095,13.080001,0.10505,-0.23265,-0.36355
1692595082473,-0.702,-0.91395,11.68305,0.3653375,0.015125,-0.8575875
1692595082505,-1.0999501,-1.1389501,11.235001,0.41181248,0.092675,-0.95535
1692595082535,-0.56805,-1.62495,11.44305,0.3452625,0.1874125,-0.8284375
1692595082563,-0.89895004,-1.4959501,11.041051,0.266475,0.2259125,-0.6749875
1692595082590,-1.4989501,-0.97905004,10.78995,0.0847,0.236775,-0.34553748
1692595082621,-1.5619501,-1.02195,10.47105,0.0133375,0.227975,-0.2105125
1692595082649,-0.90795004,-1.536,10.95705,-0.0209,0.297825,-0.0782375
1692595082677,-0.44400004,-2.154,12.013051,-0.009075,0.34595,-0.047575
1692595082707,-0.74295,-2.049,13.057051,-0.0213125,0.3452625,0.0103124995
1692595082736,-0.73605,-1.572,12.09,-0.1434125,0.1577125,0.232375
1692595082765,-0.666,-1.1890501,12.25905,-0.1969,0.0515625,0.3268375
1692595082793,-0.72195005,-1.3279501,13.107,-0.1736625,-0.031075,0.2902625
1692595082823,-1.107,-1.45305,12.3820505,-0.1095875,-0.0312125,0.161975
1692595082852,-1.023,-1.7400001,11.352,0.014025,-0.01375,-0.044825
1692595082880,-0.324,-1.9030501,10.761001,0.0323125,0.004125,-0.029975
1692595082910,-0.47295,-2.05095,11.347051,0.0144375,0.02035,0.0565125
1692595082940,0.010050001,-2.8170002,11.06505,-0.092675,-0.0248875,0.327525
1692595082968,0.3,-2.6830502,11.45505,-0.223025,-0.14355,0.5462875
1692595082995,-0.31695002,-2.05095,10.93305,-0.2954875,-0.202125,0.6205375
1692595083025,-0.40605003,-2.14905,10.08405,-0.3575,-0.2525875,0.6485875
1692595083057,-0.69795,-2.022,9.471001,-0.3617625,-0.258225,0.497475
1692595083080,-1.2100501,-1.125,9.459001,-0.3207875,-0.21133749,0.3939375
1692595083112,-1.3969501,0.66,6.91905,-0.2277,-0.068475,0.2586375
1692595083139,-0.14895001,0.61200005,4.9180503,-0.122237496,0.0460625,0.1258125
1692595083170,2.04705,-0.25800002,5.4420004,0.259325,0.311575,-0.43835
1692595083199,0.28005,0.112050004,9.48795,0.4250125,0.33055,-0.76147497
1692595083234,-1.62195,0.80100006,8.752951,0.536525,-0.02805,-1.2560625
1692595083263,-1.248,1.2750001,9.16395,0.5731,-0.161975,-1.5048
1692595083293,-0.46800002,1.404,7.5150003,0.779625,0.1167375,-2.1802
1692595083319,-0.89100003,1.19595,7.45305,0.9202875,0.3042875,-2.552825
1692595083347,0.21795002,0.77205,8.425051,1.0355124,0.379225,-2.8224626
1692595083378,0.96495,0.45600003,8.899051,1.0786875,0.290125,-2.78575
1692595083406,0.402,1.31595,8.166,0.99549997,0.172975,-2.474725
1692595083433,-0.432,1.761,7.7400002,0.70125,-0.2036375,-1.5398625
1692595083462,-0.34605002,1.40205,9.0070505,0.6078875,-0.3458125,-1.234475
1692595083493,-0.078,0.97605,10.597951,0.6323625,-0.33261248,-1.1895125
1692595083522,-0.15705001,1.074,9.92805,0.6246625,-0.2586375,-1.166275
1692595083550,0.64395005,0.47805002,9.282001,0.4147,-0.1533125,-0.797775
1692595083580,1.26195,-0.061950002,10.536,0.285175,-0.13255,-0.5850625
1692595083607,1.056,-0.016050002,10.653001,0.16293749,-0.15015,-0.390225
1692595083637,0.63705003,0.30600002,9.564,-0.095425,-0.30195,0.05555
1692595083664,0.36705002,0.38205,9.082951,-0.20047499,-0.3686375,0.271975
1692595083694,0.73305005,0.11895001,10.179001,-0.2492875,-0.3482875,0.473275
1692595083722,0.85695004,0.08805001,10.40205,-0.2492875,-0.3482875,0.473275
1692595083751,0.90495,0.46800002,8.87205,-0.15565,-0.1720125,0.4082375
1692595083780,1.00995,0.30105,8.499001,-0.14135,-0.164725,0.3881625
1692595083809,0.82095003,0.19305001,8.7619505,-0.12265,-0.1791625,0.35021248
1692595083839,0.42600003,0.07095,9.29895,-0.069299996,-0.2121625,0.2787125
1692595083867,0.20595,-0.32295,9.468,-0.058849998,-0.207625,0.293425
1692595083897,0.16995001,-0.48795003,10.345051,-0.0903375,-0.104637496,0.3669875
1692595083925,0.079050004,-0.37995002,10.75605,-0.1287,-0.0218625,0.4233625
1692595083957,-0.32205,0.102000006,9.5140505,-0.2173875,0.1214125,0.5478
1692595083985,-0.37005,0.32505003,8.95905,-0.23773749,0.1703625,0.5511
1692595084013,0.060000002,0.363,9.883051,-0.1755875,0.25795,0.3796375
1692595084040,0.027,0.56205004,9.757951,-0.1056,0.2921875,0.2748625
1692595084072,-0.32700002,1.2540001,8.95905,0.0319,0.27445,0.2135375
1692595084103,-0.453,1.23405,8.83395,0.1021625,0.2407625,0.15565
1692595084131,-0.31695002,0.94500005,9.957001,0.2800875,0.2107875,-0.2605625
1692595084159,0.35505003,1.041,10.503,0.350625,0.2080375,-0.4904625
1692595084187,-0.11805001,1.4569501,9.969001,0.3595625,0.1637625,-0.6243875
1692595084216,-0.66195005,1.6489501,8.611951,0.3317875,0.109175,-0.5852
1692595084245,-1.353,1.5619501,7.83405,0.3234,0.0545875,-0.582725
1692595084280,-1.43505,1.5499501,7.8409505,0.346775,0.036575,-0.65381247
1692595084305,-0.67605,0.85395,8.904,0.429275,0.170225,-0.88825
1692595084331,-0.74805003,0.966,8.66205,0.392975,0.341825,-0.8936125
1692595084362,-0.63495004,1.04295,8.66205,0.30745,0.352825,-0.7167875
1692595084389,-0.12795001,1.3230001,8.443951,0.2121625,0.319275,-0.48125
1692595084418,0.32805002,1.7730001,8.7619505,0.10395,0.20693749,-0.113299996
1692595084449,-0.147,2.0410502,8.142,0.1364,0.0188375,0.0746625
1692595084478,-0.87000006,1.62195,7.8030005,0.2022625,-0.0985875,0.0834625
1692595084507,-0.74100006,0.97095007,8.43,0.280775,-0.179575,0.01815
1692595084535,0.19695,0.23595001,10.585951,0.34265,-0.13145,-0.143825
1692595084566,-1.593,0.15195,9.0070505,0.24695,-0.0495,-0.0537625
1692595084593,-1.713,0.22395001,9.0709505,-0.17545,0.053625,0.56265
1692595084622,-0.786,-0.21000001,8.66205,-0.358875,0.1329625,0.81949997
1692595084651,-0.51105005,-0.91605,8.76,-0.5291,0.3964125,1.0047125
1692595084683,-0.50100005,-1.5990001,11.359051,-0.591525,0.4472875,1.1507375
1692595084711,0.24900001,-1.5289501,12.762001,-0.8344875,0.323125,1.8239375
1692595084742,0.11505,-0.957,8.688001,-0.9843625,0.20625,2.221175
1692595084771,-0.10605001,-1.20105,8.817,-1.0767624,0.064075,2.4726624
1692595084798,0.91995007,-2.19195,11.079,-1.005675,-0.1868625,2.3222375
1692595084831,0.31395,-2.0340002,10.555051,-0.8545625,-0.3091,2.018775
1692595084858,-0.34605002,-1.8000001,10.15995,-0.8300875,-0.37661248,1.9856375
1692595084885,-0.70005006,-1.93605,10.396951,-0.81565,-0.43065,1.93985
1692595084915,0.094050005,-2.604,11.833051,-0.71115,-0.3419625,1.6526124
1692595084946,0.97200006,-2.4799502,12.02295,-0.593175,-0.169675,1.4100626
1692595084975,0.97200006,-2.046,11.854951,-0.593175,-0.169675,1.4100626
1692595085005,-0.078,-1.16295,10.62495,-0.53955,-0.2528625,1.3002
1692595085033,-0.094050005,-0.64395005,10.938001,-0.3738625,-0.3488375,0.8729875
1692595085061,0.58695,-0.90705,11.577001,-0.2297625,-0.2849,0.5765375
1692595085089,0.64395005,-0.94005007,11.30895,-0.0726,-0.17847499,0.3179
1692595085120,-0.09,-0.49005002,11.59605,0.164725,-0.078375,-0.037675
1692595085148,-0.52305,-0.88995004,10.644,0.2520375,-0.0873125,-0.2300375
1692595085176,1.3980001,-1.0360501,12.70695,0.2696375,-0.0276375,-0.254925
1692595085208,0.75705004,-0.69600004,12.361951,0.2542375,0.0749375,-0.2382875
1692595085239,-0.72195005,-0.69900006,10.024051,0.2234375,0.00605,-0.28105
1692595085268,-0.45600003,-1.23,11.163,0.19635,-0.093637496,-0.3674
1692595085296,2.1090002,-2.913,15.208051,0.1632125,-0.0572,-0.48125
1692595085324,0.24900001,-2.0970001,14.233951,0.1170125,0.023375,-0.430375
1692595085351,0.112950005,-1.5769501,12.805051,-0.0994125,-0.0925375,-0.1507
1692595085379,1.1329501,-1.4599501,12.898951,-0.190025,-0.1728375,-0.0545875
1692595085410,1.38405,-1.7710501,12.465,-0.217525,-0.16775,-0.0510125
1692595085438,1.539,-2.3689501,12.417001,-0.1563375,-0.1054625,-0.2127125
1692595085466,1.0320001,-2.46795,11.212951,-0.135575,-0.14025,-0.264
1692595085496,0.855,-2.40105,10.644,-0.1907125,-0.25245,-0.0672375
1692595085525,0.84300005,-2.709,10.830001,-0.240625,-0.283525,0.1353
1692595085558,1.02705,-3.42,11.733001,-0.30855,-0.27101249,0.458425
1692595085587,1.1730001,-3.6070502,11.497951,-0.33055,-0.24653749,0.54945
1692595085615,0.252,-2.9869502,10.897051,-0.39833748,-0.2193125,0.6628875
1692595085643,-0.38595003,-2.39595,8.949,-0.4384875,-0.2182125,0.6813125
1692595085672,-0.11595,-1.51995,8.71395,-0.4343625,-0.1285625,0.6358
1692595085704,-1.11405,0.24105,7.3020005,-0.3763375,-0.0264,0.5944125
1692595085732,-0.21405001,0.46395,7.5270004,-0.1326875,0.20487499,0.3331625
1692595085761,1.0680001,0.22695,10.75605,0.0664125,0.326975,0.028324999
1692595085789,0.89805007,1.3759501,10.00905,0.503525,0.4830375,-0.9098375
1692595085816,0.98700005,2.07495,7.7520003,0.6831,0.44385,-1.4366
1692595085845,-2.1739502,2.3830502,4.1140504,0.9752875,0.242,-2.2583
1692595085872,-2.6940002,1.9530001,5.61495,1.1121,0.20047499,-2.5278
1692595085902,-0.97005004,0.99495006,8.19495,1.23255,0.27101249,-2.73295
1692595085932,-0.25695002,0.71295005,6.4860005,1.3014375,0.6307125,-2.91555
1692595085962,-1.7910001,1.11705,5.9380503,1.1782374,0.686675,-2.69335
1692595085989,0.513,0.53505003,9.981001,0.773025,0.5251125,-1.7353874
1692595086019,1.83105,1.00905,10.038,0.62095,0.4761625,-1.3321
1692595086046,-0.20700002,2.1730502,8.370001,0.49335,0.4016375,-0.9986625
1692595086076,-1.8079501,2.4139502,7.5340505,0.32381248,-0.1018875,-0.5291
1692595086107,-1.6339501,1.93305,9.691051,0.37867498,-0.2957625,-0.6147625
1692595086135,-0.657,1.041,10.207951,0.625075,-0.0884125,-1.2376375
1692595086164,-0.56100005,1.2270001,8.44905,0.6428125,0.088275,-1.4089625
1692595086190,-0.504,1.0309501,8.217,0.3865125,0.1651375,-1.139325
1692595086219,-0.57105005,0.91605,8.454,0.2437875,0.1247125,-0.9090125
1692595086249,-0.40305,0.49005002,10.309051,0.1491875,0.087037496,-0.70345
1692595086274,-0.23595001,0.44700003,10.31295,6.875E-4,0.0578875,-0.23705
1692595086306,-0.27600002,0.98505,9.592951,-0.106975,0.0518375,0.0620125
1692595086333,0.12495001,1.0309501,10.519051,-0.2924625,0.0132,0.54725
1692595086362,0.65895003,0.708,10.816051,-0.29741248,-0.0210375,0.58134997
1692595086392,0.312,1.146,9.898951,-0.1958,-0.1296625,0.412225
1692595086422,-1.07595,1.9740001,8.03895,-0.155925,-0.212025,0.3647875
1692595086453,-0.66405004,1.5289501,8.6980505,-0.043175,-0.28875,0.1502875
1692595086480,0.26805001,1.1580001,10.420951,0.0686125,-0.2127125,-0.11385
1692595086508,0.462,1.005,11.40705,0.2294875,-0.0385,-0.5297875
1692595086539,-0.95895004,1.83,7.6519504,0.1907125,-0.0627,-0.4686
1692595086564,-1.12605,2.11305,7.4700003,0.113299996,-0.12979999,-0.31075
1692595086594,0.59595,1.3230001,9.66495,0.1282875,-0.116325,-0.34045
1692595086623,0.74205005,1.383,9.8869505,0.21725,-0.041249998,-0.5104
1692595086654,1.00605,1.6680001,9.715051,0.2589125,-0.0675125,-0.4475625
1692595086683,0.61605,1.8930001,9.591001,0.20625,-0.17105,-0.251075
1692595086714,-0.84795004,2.1010501,8.25,0.148225,-0.3348125,-0.088825
1692595086742,-1.5949501,1.8229501,8.571,0.1672,-0.3386625,-0.1953875
1692595086769,-1.1719501,1.3470001,9.097051,0.208725,-0.2616625,-0.4109875
1692595086795,-0.324,0.42795002,10.732051,0.2695,0.066,-0.8636375
1692595086825,-0.50895,0.46800002,8.997001,0.2171125,0.2149125,-0.8790375
1692595086852,-1.00395,1.02405,7.7809505,0.0765875,0.3004375,-0.6741625
1692595086882,-0.67800003,1.39005,7.695,-0.26785,0.3051125,-0.0204875
1692595086911,-0.47700003,1.9090501,8.109,-0.2589125,0.2748625,0.0895125
1692595086939,-0.99000007,3.28095,7.3960505,-0.142725,0.2484625,-0.0504625
1692595086970,-0.22800002,3.8719501,7.3500004,0.1860375,0.1313125,-0.45485
1692595086998,1.2379501,3.7530003,7.9750504,0.439175,0.0666875,-0.7189875
1692595087026,2.20005,3.147,9.13095,0.72435,-0.0166375,-0.9274375
1692595087057,1.968,2.328,9.03495,1.0561374,-0.347325,-0.698225
1692595087085,1.5109501,1.6009501,8.85105,1.00925,-0.5621,-0.2781625
1692595087113,-0.216,0.16695,8.26395,0.6087125,-0.7783875,0.5687
1692595087143,-3.2040002,-1.6849501,7.2040505,0.3183125,-0.6917625,0.852225
1692595087172,-0.60195005,-3.42,13.2289505,-0.359425,-0.0947375,1.160225
1692595087199,0.77595,-3.8250003,13.473001,-0.75955,0.3466375,1.34255
1692595087230,-0.65205,-2.63505,11.344951,-1.233925,0.7324625,1.7634375
1692595087259,-1.6099501,-1.55805,10.29705,-2.0520499,0.79145,3.091
1692595087287,-1.0639501,-1.8090001,10.696051,-2.1355126,0.602525,3.3815374
1692595087316,-0.549,-2.28795,11.922001,-1.728925,0.4797375,2.9475875
1692595087345,-0.93000007,-1.8829501,10.857,-1.46025,0.4690125,2.6109874
1692595087375,-0.99405,-1.4119501,10.215,-1.083775,0.2822875,2.2031624
1692595087410,-0.78105,-1.338,10.09605,-0.790625,0.120037496,1.8453875
1692595087429,-0.60405004,-1.43295,10.813951,-0.63414997,0.0935,1.6209875
1692595087460,-0.64695,-1.31895,11.11095,-0.4899125,0.073425,1.404425
1692595087491,-0.42000002,-0.95205003,11.034,-0.2828375,0.0088,1.0256125
1692595087519,-0.59895,-0.42105,10.737,-0.20185,-0.0213125,0.8240375
1692595087551,-0.37695003,-0.22005,11.367001,-0.01375,-0.0496375,0.344025
1692595087585,-0.453,-0.0019500001,12.19995,0.0996875,-0.048675,0.082225
1692595087615,-0.21195,-0.0139500005,11.616,0.3157,-0.0358875,-0.4148375
1692595087642,0.01905,-0.045,11.503051,0.394625,-0.03575,-0.6260375
1692595087671,0.043050002,0.08295,12.489,0.4577375,-0.075625,-0.8303625
1692595087700,0.13695,-0.25800002,12.501,0.4453625,-0.11495,-0.785125
1692595087729,-0.04695,0.12900001,12.784051,0.41635,-0.1516625,-0.6873625
1692595087758,-0.37905002,0.078,12.196951,0.33673748,-0.1815,-0.4954125
1692595087786,-0.43005002,-0.45705003,12.52305,0.302225,-0.1725625,-0.42473748
1692595087815,-0.50595003,-1.0860001,12.25695,0.2778875,-0.1456125,-0.367125
1692595087849,-0.657,-2.0410502,13.566001,0.101475,-0.0166375,-0.045925
1692595087879,-0.042000003,-2.4390001,14.03295,-0.0323125,0.012925,0.1551
1692595087907,-0.70005006,-1.9549501,13.179001,-0.18287499,0.025575,0.375925
1692595087936,-1.365,-1.25205,11.659051,-0.4327125,-0.017324999,0.7084
1692595087963,-1.08105,-1.36395,12.015,-0.4802875,-0.025575,0.752125
1692595087990,-0.67395,-2.0340002,12.427051,-0.397375,0.0897875,0.62315
1692595088022,-0.33405003,-2.3380501,11.69505,-0.3339875,0.1472625,0.525525
1692595088052,-0.40605003,-2.28795,11.07705,-0.30745,0.1197625,0.4456375
1692595088079,-0.47295,-2.4480002,10.825951,-0.3388,0.06215,0.47808748
1692595088106,-0.597,-2.77395,10.43595,-0.3790875,0.002475,0.5368
1692595088137,-1.452,-2.56995,9.59805,-0.4538875,-0.0864875,0.70895
1692595088165,-1.9780501,-1.8790501,8.703,-0.4904625,-0.1087625,0.837375
1692595088195,-0.20700002,-1.335,9.088051,-0.5289625,-0.0499125,1.0575125
1692595088224,0.32595003,0.27195,7.293,-0.488125,0.0309375,1.0360625
1692595088253,1.02495,0.43005002,6.4480505,-0.208725,0.089925,0.46461248
1692595088282,1.09905,0.43305,9.66705,0.02145,0.043725,-0.0950125
1692595088311,0.10305001,1.8760501,11.979001,0.4962375,-0.09075,-1.362625
1692595088339,0.14595,2.3160002,9.837001,0.6972625,-0.1467125,-1.95415
1692595088371,-0.564,2.77395,8.743051,1.082675,-0.1005125,-3.1548
1692595088399,-0.55395,2.352,5.8350005,1.258125,-0.0345125,-3.7186875
1692595088426,-0.44895002,1.51005,5.385,0.94215,0.011825,-4.0816875
1692595088457,1.1010001,-0.32505003,9.255,0.5841,0.05115,-3.9282374
1692595088485,0.63705003,-0.37095,8.52495,0.1582625,0.034649998,-3.4313126
1692595088514,0.44805002,-0.009000001,8.451,-0.064625,-0.122375,-1.7083
1692595088538,0.109950006,0.74100006,8.644951,-0.2165625,-0.2107875,-0.8542875
1692595088567,-0.56595004,1.8060001,8.266951,-0.3466375,-0.2583625,-0.0
1692595088593,-0.85995007,2.118,7.965,-0.2693625,-0.217525,-4.125E-4
1692595088625,0.02205,1.8540001,8.47995,-0.0988625,-0.13695,-0.2267375
1692595088652,0.80895007,1.0720501,8.20005,0.3488375,0.0451,-0.9035125
1692595088683,0.85200006,0.38895002,9.4470005,0.487575,0.0540375,-1.0481625
1692595088713,0.82605004,0.10005,10.057051,0.4057625,-0.1197625,-0.649825
1692595088741,0.81900007,0.13095,9.79605,0.2338875,-0.20735,-0.2673
1692595088771,0.975,0.43500003,9.1050005,-0.120175,-0.2578125,0.4026
1692595088799,0.9889501,0.483,8.703,-0.2255,-0.2509375,0.5944125
1692595088828,0.56295,0.89895004,9.595051,-0.2682625,-0.246675,0.6719625
1692595088856,0.18900001,1.179,9.250951,-0.2182125,-0.243375,0.5885
1692595088886,0.69000006,1.07595,9.32205,-0.1552375,-0.210375,0.482625
1692595088914,0.57195,1.04505,9.703051,-0.010175,-0.09075,0.2506625
