@ HyperIMU - ianovir
@ Date:Mon Aug 21 08:30:01 GMT+03:00 2023, Sampling Rate:25ms

timestamp,bma4xy_accelerometer.x,bma4xy_accelerometer.y,bma4xy_accelerometer.z,oem_pseudo_gyro.x,oem_pseudo_gyro.y,oem_pseudo_gyro.z
1692595801807,-0.006,-0.12195001,10.222051,-0.1901625,0.372075,0.885225
1692595801852,-0.43005002,0.094950005,10.203,-0.707575,0.6549125,2.073775
1692595801875,-0.21195,-0.15300001,10.27005,-0.90805,0.726,2.5619
1692595801913,-0.17595,-0.028050002,9.47805,-1.0269876,0.65505,2.7872624
1692595801942,-0.47505003,0.37695003,8.932051,-0.9812,0.59015,2.7203
1692595801975,-0.09195001,0.15195,9.385051,-0.8130375,0.432575,2.3491874
1692595801997,-0.04695,0.028050002,9.72,-0.7019375,0.3579125,2.03885
1692595802020,0.10305001,-0.19605,9.969001,-0.6004625,0.2861375,1.7433625
1692595802046,-0.06105,-0.19395001,9.904051,-0.528825,0.2151875,1.5323
1692595802073,0.43395,-0.66,10.207951,-0.4761625,0.0911625,1.3673
1692595802099,0.44295,-0.60105,10.066951,-0.4706625,0.0451,1.3283875
1692595802133,0.48600003,-0.63195,10.206,-0.4675,0.0028875,1.2661
1692595802157,-0.043950003,-0.040050004,10.002001,-0.4676375,-0.0969375,1.14345
1692595802184,-0.25995,0.13305001,9.909,-0.4566375,-0.1414875,1.1210375
1692595802216,-0.38205,0.25800002,9.76305,-0.3487,-0.141075,0.9400875
1692595802244,-0.123,0.09,9.76305,-0.2539625,-0.0858,0.722425
1692595802273,0.09105001,-0.08595,9.79905,-0.0754875,0.04235,0.2688125
1692595802310,0.08400001,-0.052050002,9.744,-0.0286,0.0677875,0.1777875
1692595802339,0.028950002,-0.021000002,9.5119505,-0.020624999,0.0341,0.19965
1692595802371,-0.079950005,0.03795,9.54705,-0.02915,0.0064625,0.1692625
1692595802398,0.010050001,-0.061950002,9.753,-0.0246125,-0.016775,0.01925
1692595802431,0.039,-0.012,9.828,-0.005225,-0.00385,-0.0686125
1692595802459,0.010050001,0.006,9.847051,-0.001375,4.125E-4,-0.0636625
1692595802487,-0.08205,0.033,9.93795,-5.5E-4,-0.0012375,-0.0364375
1692595802515,-0.12105001,0.042000003,9.90705,0.0022,-0.0050875,-0.0015125
1692595802549,-0.07005,0.069000006,9.79395,0.0045375,0.00385,0.00495
1692595802578,0.01905,-0.112050004,9.636001,0.01045,0.015675,0.022275
1692595802602,0.14400001,-0.20805001,10.057051,0.01485,0.0221375,0.041249998
1692595802628,-0.063,-0.00705,10.28505,0.0155375,0.020075,0.050325
1692595802654,-0.11595,0.054,10.29405,0.004125,0.0034375,0.01485
1692595802701,-0.11805001,0.006,10.29405,0.004125,0.0034375,0.01485
1692595802745,-0.11805001,0.16395001,9.550051,0.0089375,0.0276375,-0.1181125
1692595802780,-0.09,0.12900001,9.739051,0.0089375,0.0276375,-0.1181125
1692595802821,-0.09,0.12900001,9.739051,0.0089375,0.0276375,-0.1181125
1692595802857,-0.22800002,0.126,9.81105,0.022,0.02915,-0.1194875
1692595802898,-0.08505,-0.076050006,9.945001,0.013475,0.0391875,-0.0149875
1692595802941,-0.08505,-0.076050006,9.945001,0.013475,0.0391875,-0.0149875
1692595802978,-0.049050003,0.08805001,9.801001,-0.0229625,-0.0050875,0.065725
1692595803091,-0.04695,-0.064050004,9.86295,-0.00385,-0.0196625,-0.072875
1692595803132,-0.027,-0.012,9.865951,-0.0226875,-0.0122375,0.02255
1692595803171,-0.09,0.034950003,9.700951,-0.02475,-0.010175,0.055825
1692595803209,-0.039,-0.0019500001,9.871051,-0.00715,-0.0012375,-0.005775
1692595803244,-0.09195001,-0.0139500005,9.76305,0.0031625,0.0061875,-0.0499125
1692595803257,-0.087000005,-0.028050002,9.837001,0.0031625,0.0061875,-0.0499125
1692595803280,-0.07305,-0.0139500005,9.918,0.004675,0.0055,-0.0578875
1692595803307,-0.04695,0.034950003,9.721951,0.00275,0.0026125,-0.0350625
1692595803342,-0.135,0.078,9.80805,0.001375,0.0012375,-0.0171875
1692595803363,-0.14895001,0.054,9.97095,0.0026125,1.375E-4,0.0028875
1692595803391,-0.04695,0.0,9.81105,0.0066,-4.125E-4,0.0460625
1692595803418,-0.003,0.0,9.739051,0.0119624995,0.0061875,0.1368125
1692595803443,-0.07005,0.025950002,9.868051,0.009625,0.0078375,0.1584
1692595803475,-0.08205,0.006,9.81795,0.0012375,0.00275,0.1241625
1692595803501,-0.078,0.042000003,9.715051,0.0,0.0020625,0.0650375
1692595803530,-0.06105,0.141,9.637951,0.0034375,0.003575,-0.0642125
1692595803555,-0.09,0.11400001,9.77505,0.009075,0.0037125,-0.0605
1692595803584,-0.16905001,0.057000004,9.765,0.015675,0.0023375,-0.008525
1692595803612,-0.20700002,0.08505,9.741,0.0273625,9.625E-4,0.0264
1692595803639,-0.22095,0.08805001,9.801001,0.03025,0.0064625,-0.0143
1692595803668,-0.252,0.081,9.96405,0.031075,0.016224999,-0.0506
1692595803698,-0.19305001,0.112050004,9.7560005,0.029424999,0.039325,-0.1035375
1692595803725,-0.21900001,0.186,9.715051,0.0284625,0.048675,-0.1450625
1692595803754,-0.15900001,0.19305001,9.708,0.0325875,0.0507375,-0.260425
1692595803780,-0.29295,0.22395001,9.82005,0.0372625,0.044825,-0.27665
1692595803809,-0.31695002,0.31305,9.637951,0.04235,0.0391875,-0.2451625
1692595803839,-0.26700002,0.26700002,9.724951,0.0600875,0.0383625,-0.1896125
1692595803866,-0.30495003,0.24105,9.847051,0.071775,0.04235,-0.2013
1692595803893,-0.36195,0.25995,9.688951,0.0779625,0.0484,-0.2013
1692595803922,-0.22800002,0.186,9.59805,0.0719125,0.0493625,-0.1991
1692595803950,-0.33105,0.112050004,9.67695,0.05335,0.050875,-0.22935
1692595803977,-0.15195,-0.031050002,9.523951,0.0418,0.0493625,-0.2325125
1692595804007,-0.25995,-0.03795,9.721951,0.02585,0.0430375,-0.212575
1692595804030,-0.37395,0.094950005,9.625951,0.0039875,0.031625,-0.1788875
1692595804061,0.058050003,0.246,10.062,-0.0407,0.009625,-0.142725
1692595804088,0.20595,0.81795,9.18105,-0.0402875,0.00165,-0.12595
1692595804118,-0.075,1.28205,8.48205,-0.013612499,-0.0196625,-0.09845
1692595804145,0.156,1.01205,8.937,0.04235,-0.0562375,-0.116875
1692595804173,0.12495001,0.44700003,10.33005,0.13255,-0.0919875,-0.2344375
1692595804200,0.18705001,0.28395,10.91895,0.3003,-0.1260875,-0.528
1692595804229,0.24705002,0.33405003,10.567051,0.292875,-0.1335125,-0.4895
1692595804256,0.49095002,0.41805002,10.567051,0.134475,-0.135575,-0.11
1692595804285,0.35895002,0.77505004,9.739051,0.062975,-0.13915,0.0246125
1692595804310,0.109950006,1.11195,9.253051,0.007425,-0.1684375,-0.0111375
1692595804341,0.201,1.299,8.67405,0.02805,-0.176,-0.129525
1692595804368,0.25395,1.38495,8.691,0.080025,-0.1662375,-0.2728
1692595804397,0.24000001,1.5190501,8.904,0.2292125,-0.1287,-0.534325
1692595804426,0.37095,1.44,9.11205,0.2960375,-0.122099996,-0.6161375
1692595804453,0.36705002,1.4809501,9.241051,0.3729,-0.1282875,-0.6705875
1692595804481,0.381,1.6200001,9.057,0.380325,-0.13365,-0.6323625
1692595804509,0.23295002,1.7850001,9.59805,0.3724875,-0.1357125,-0.5410625
1692595804536,0.13395001,1.66305,10.075951,0.3463625,-0.1263625,-0.3482875
1692595804562,0.48105,1.2750001,9.993,0.33673748,-0.11605,-0.3361875
1692595804590,0.50100005,1.8589501,8.406,0.3180375,-0.10065,-0.3619
1692595804618,0.59400004,3.0660002,5.8710003,0.2376,-0.0782375,-0.3381125
1692595804646,0.95505005,3.1330502,5.9830503,0.2476375,-0.0977625,-0.34265
1692595804675,0.78105,3.0340502,7.221,0.5273125,-0.2338875,-0.62273747
1692595804702,0.52500004,3.1660502,6.9289503,0.7088125,-0.3320625,-0.78636247
1692595804730,1.8079501,2.154,7.2900004,0.8347625,-0.4126375,-0.86913747
1692595804760,2.085,1.28505,7.1350503,0.8644625,-0.4521,-0.7882875
1692595804787,1.1539501,0.717,8.50905,0.567325,-0.46461248,-0.2248125
1692595804817,1.6830001,-0.462,10.713,0.321475,-0.4522375,0.1714625
1692595804843,0.58395004,-0.81600004,8.85105,0.0517,-0.3856875,0.535425
1692595804875,-1.5160501,-1.20105,7.93695,-0.5333625,-0.09405,1.2483625
1692595804903,-1.6980001,-2.4460502,10.58205,-0.792825,0.1153625,1.5797375
1692595804930,0.264,-3.2980502,12.939001,-1.1490875,0.6964375,2.1175
1692595804957,0.65400004,-2.8620002,12.18,-1.3245375,0.9504,2.6019125
1692595804985,0.42195,-1.7539501,10.701,-1.4936625,1.0030625,3.2604
1692595805013,-0.01305,-1.66305,10.354051,-1.5360125,0.5556375,3.8556376
1692595805040,-1.0690501,-2.5849502,14.067,-1.3704625,0.3201,3.5085876
1692595805071,-1.212,-3.0679502,16.483952,-1.153075,0.18727499,3.0008
1692595805098,0.19395001,-3.0010502,13.698001,-0.824725,0.1890625,2.38205
1692595805125,0.546,-2.08905,11.212951,-0.746625,0.2409,2.2486749
1692595805155,0.16095,-0.84000003,9.648001,-0.629475,0.1727,1.7235625
1692595805182,0.537,-0.82095003,10.026,-0.5407875,0.0664125,1.345575
1692595805209,1.33095,-1.161,10.608001,-0.249975,-0.064899996,0.614625
1692595805239,1.5180001,-0.9480001,10.629001,-0.0966625,-0.0928125,0.2869625
1692595805266,0.606,-0.201,10.729951,0.014712499,-0.1342,-1.375E-4
1692595805294,0.9289501,-0.39000002,11.42895,0.13653749,-0.2363625,-0.4274875
1692595805320,1.17795,-0.60795003,11.26095,0.198275,-0.2363625,-0.614075
1692595805350,0.82905006,-0.67005,11.218051,0.304425,-0.1634875,-0.91368747
1692595805377,0.39495003,-0.33195,11.182051,0.3075875,-0.153175,-0.9296375
1692595805412,0.27105,-0.064050004,10.13595,0.2602875,-0.1243,-0.7943375
1692595805429,0.43800002,-0.14805001,9.700951,0.2602875,-0.1243,-0.7943375
1692595805466,0.54105,-0.26295,9.883051,0.2443375,0.0034375,-0.8091875
1692595805498,0.29700002,0.045,10.099951,0.2363625,0.0719125,-0.8619875
1692595805529,0.192,-0.00405,10.5379505,0.2211,0.0716375,-0.84315
1692595805557,0.22500001,-0.07395,10.825951,0.205975,0.0867625,-0.81565
1692595805585,0.42195,-0.17895001,10.94505,0.2085875,0.1126125,-0.827475
1692595805616,0.17295001,-0.39705002,11.215951,0.19745,0.144375,-0.7931
1692595805650,-0.18495001,-0.735,12.02295,0.17545,0.138875,-0.716375
1692595805682,-0.46305,-0.708,11.24205,0.087037496,0.1381875,-0.44233748
1692595805715,-0.50595003,-1.1149501,12.601951,-0.0243375,0.19813749,-0.0638
1692595805743,-0.51600003,-1.7689501,13.392,-0.0664125,0.2332,0.12595
1692595805775,-0.44400004,-2.4390001,14.64105,-0.1588125,0.2633125,0.4873
1692595805803,-0.21405001,-2.6140501,14.536051,-0.23375,0.2508,0.6975375
1692595805829,-0.80295,-1.848,12.790951,-0.4140125,0.170225,1.122825
1692595805863,-0.58500004,-1.6030501,11.785951,-0.4745125,0.1192125,1.2277375
1692595805895,0.29205,-2.6880002,13.618951,-0.4508625,0.0779625,1.1669625
1692595805929,0.75705004,-3.0660002,13.078051,-0.3997125,0.061049998,1.1290125
1692595805960,0.43800002,-2.2090502,11.6629505,-0.38225,-0.0862125,1.140975
1692595805991,-0.27600002,-0.66795003,9.40905,-0.4147,-0.24695,0.9526
1692595806023,0.36195,-0.60300004,8.36505,-0.3700125,-0.2563,0.7541875
1692595806051,0.45795003,-0.273,8.82705,-0.1335125,-0.1505625,0.2706
1692595806084,0.08400001,0.37305,7.8790503,5.5E-4,-0.102025,0.0270875
1692595806116,-1.4830501,0.84705,4.9950004,0.2189,-0.062425,-0.4629625
1692595806146,-1.7910001,0.36600003,5.091,0.327525,-0.013612499,-0.71596247
1692595806176,0.29205,-0.67695004,9.538051,0.5350125,0.287925,-1.126675
1692595806208,1.2090001,0.022950001,10.522051,0.5820375,0.4838625,-1.2546875
1692595806237,-0.015000001,1.2610501,7.1629505,0.483725,0.4455,-1.4031875
1692595806269,-0.384,1.27005,5.71005,0.42845,0.2226125,-1.5023249
1692595806304,0.67305005,-0.13905,9.66705,0.5135625,-0.0325875,-1.880725
1692595806336,0.12705001,0.43305,9.37005,0.5726875,-0.036575,-2.0483375
1692595806362,-0.21195,0.89895004,9.43995,0.488675,-0.0864875,-1.8706875
1692595806394,0.075,1.23,8.865001,0.363275,-0.12155,-1.3352625
1692595806424,-0.38205,2.11995,8.35095,0.3722125,-0.08525,-1.2120625
1692595806454,-0.65505004,2.24895,8.559,0.419375,-0.051975,-1.194325
1692595806479,0.50805,0.94695,9.5449505,0.6166875,-0.01045,-1.3011625
1692595806506,1.1329501,0.15195,10.27305,0.7231125,0.0174625,-1.3366375
1692595806538,0.74700004,0.30105,9.045,0.648175,-0.0191125,-0.90639997
1692595806570,0.075,0.94995004,8.06295,0.4307875,-0.108625,-0.4008125
1692595806605,0.26595002,1.11,8.80305,0.031625,-0.24653749,0.357225
1692595806635,0.120000005,1.1410501,8.82705,0.007425,-0.1684375,0.274175
1692595806666,-0.29295,1.2100501,9.01395,0.056649998,-0.1101375,0.150975
1692595806693,-0.44595003,1.0570501,8.949,0.1255375,-0.017875,0.034649998
1692595806726,-0.372,0.40395,10.11705,0.143275,0.043725,-0.0081124995
1692595806755,0.010050001,0.126,10.663051,0.1167375,0.17613749,-0.0488125
1692595806787,0.10095,0.37995002,9.294001,0.0389125,0.2135375,0.023375
1692595806818,-0.573,0.62595004,8.99505,-0.1859,0.1793,0.287375
1692595806847,-0.633,0.30600002,10.420951,-0.24887499,0.131725,0.366575
1692595806878,-0.14505,0.33,11.23005,-0.2355375,0.1230625,0.33495
1692595806909,-0.76005006,1.1580001,8.63595,-0.2173875,0.1573,0.298925
1692595806942,-0.726,0.75795,8.82495,-0.179025,0.177375,0.2255
1692595806969,-1.023,0.25800002,9.966001,-0.1051875,0.176,0.0881375
1692595807001,-1.4250001,0.25095,9.604951,0.0605,0.2110625,-0.2712875
1692595807033,-1.54005,0.63600004,8.467951,-0.010175,0.2904,-0.1816375
1692595807063,-1.26705,0.50895,9.097051,-0.0677875,0.346775,-0.0592625
1692595807095,-0.63795,0.64095,10.1320505,-0.0727375,0.4291375,0.0210375
1692595807121,-0.45600003,1.31595,9.576,-0.0539,0.417725,0.033
1692595807150,-0.39795002,1.83,8.997001,-0.0154,0.246675,0.121275
1692595807183,-0.37695003,1.3759501,9.92595,0.060225,0.122237496,0.085525
1692595807215,-0.657,0.96900004,10.15995,0.31501248,-0.085525,-0.3064875
1692595807246,-0.82905006,0.648,10.09605,0.382525,-0.1464375,-0.46048748
1692595807279,-1.07595,0.483,10.078951,0.2688125,-0.1447875,-0.3372875
1692595807308,-0.42195,0.38700002,9.684,0.147675,-0.094875,-0.1687125
1692595807339,-1.4130001,1.5619501,8.973001,-0.070125,0.015262499,0.145475
1692595807368,-1.78005,2.082,8.82495,-0.1307625,0.056375,0.2608375
1692595807401,-0.85305005,2.05095,9.03495,-0.0111375,0.15345,0.139425
1692595807431,-0.58695,2.32095,8.217,0.16555,0.210925,-0.142175
1692595807461,-0.966,2.982,7.1200504,0.4816625,0.187,-0.6237
1692595807495,-0.528,2.93895,7.5060005,0.6798,0.0094875,-0.7478625
1692595807524,-0.45795003,3.6660001,7.21605,0.79873747,-0.0639375,-0.84975
1692595807551,-0.066,4.215,5.7460504,0.913,-0.127325,-0.96525
1692595807588,0.192,3.63,4.9110003,1.0868,-0.28765,-1.0956
1692595807616,0.25605002,2.32095,7.3360505,1.372525,-0.5388625,-1.2764125
1692595807643,0.51705,1.3039501,10.206,1.4672625,-0.65587497,-1.312575
1692595807674,-0.37005,0.624,7.6590004,0.9631875,-0.6136625,-0.6747125
1692595807699,-1.12395,0.109050006,7.6830006,0.417175,-0.4461875,-0.066275
1692595807727,0.37395,-1.26405,10.965,-0.10835,-0.24805,0.4664
1692595807756,1.45095,-2.322,11.604,-0.9213875,0.1546875,1.1655875
1692595807784,1.1400001,-2.5110002,11.356951,-1.3215125,0.2737625,1.6973
1692595807822,-0.23595001,-2.7640502,12.39105,-1.9685875,0.1111,3.025825
1692595807856,0.38595003,-2.76195,12.33405,-2.0879376,-0.061049998,3.487825
1692595807879,0.85695004,-2.6089501,11.87895,-1.988525,-0.041525,3.388825
1692595807919,0.37395,-1.52205,9.93,-1.6347375,-0.068475,2.8826876
1692595807948,0.12495001,-1.4310001,9.279,-1.197625,-0.2058375,2.2175999
1692595807979,0.075,-2.3380501,11.29695,-0.96085,-0.22687499,1.8475875
1692595808009,0.522,-2.83395,12.355051,-0.742225,-0.207075,1.5156626
1692595808039,0.35505003,-2.25495,10.893001,-0.501875,-0.1551,1.2227875
1692595808066,-0.28395,-1.14405,9.30105,-0.4769875,-0.163625,1.2134374
1692595808096,0.027,-1.2060001,10.01895,-0.42075,-0.181225,1.0825375
1692595808123,0.651,-1.9339501,11.704051,-0.3289,-0.1373625,0.894575
1692595808152,0.38295,-1.5409501,11.734951,-0.09955,-0.01155,0.40507498
1692595808184,0.24000001,-0.897,10.88805,-0.0295625,0.0031625,0.2057
1692595808217,0.78795004,-1.0699501,10.677,0.056649998,-0.010175,-0.0996875
1692595808250,1.02195,-1.3570501,11.800051,0.104499996,-0.004125,-0.233475
1692595808277,0.3,-0.72705,11.26095,0.16445,-0.0451,-0.3788125
1692595808304,0.109950006,-0.282,10.720051,0.1661,-0.088,-0.3911875
1692595808335,0.58905005,-0.64605004,10.94505,0.2044625,-0.0532125,-0.495825
1692595808367,0.40005,-0.60300004,10.9140005,0.2792625,0.0653125,-0.6873625
1692595808394,0.28995,-0.648,10.93305,0.2792625,0.0653125,-0.6873625
1692595808425,0.80895007,-1.00695,11.22795,0.265375,0.066825,-0.73755
1692595808459,0.924,-0.99105006,10.94295,0.1978625,0.0407,-0.760375
1692595808482,0.84105,-0.97200006,10.897051,0.1524875,0.015262499,-0.7337
1692595808522,1.0009501,-1.7899501,12.973051,0.066,-0.07755,-0.4514125
1692595808548,0.79005,-1.764,13.19295,0.0301125,-0.11715,-0.2655125
1692595808581,0.82095003,-1.8499501,12.652051,-0.066825,-0.1381875,0.0100375
1692595808609,0.45795003,-2.0650501,13.119,-0.117975,-0.1274625,0.09735
1692595808638,-0.102000006,-2.0700002,12.805051,-0.1771,-0.0812625,0.2068
1692595808671,-0.042000003,-2.32395,12.625951,-0.1920875,-0.0386375,0.2556125
1692595808702,0.076950006,-2.83395,12.86295,-0.2124375,0.0785125,0.355575
1692595808730,0.201,-3.1309502,12.70005,-0.22715,0.1265,0.3925625
1692595808756,0.65895003,-3.4969501,12.98505,-0.3020875,0.1397,0.4984375
1692595808790,0.78105,-3.255,12.27105,-0.3576375,0.1032625,0.583275
1692595808815,0.402,-2.6160002,11.47395,-0.4472875,-0.0418,0.79048747
1692595808845,-0.15195,-1.7569501,9.966001,-0.4549875,-0.1249875,0.8779375
1692595808878,-1.353,-0.45705003,7.0270505,-0.353375,-0.15565,0.78815
1692595808906,-3.1270502,0.43695003,5.0740504,-0.2470875,-0.06765,0.5724125
1692595808938,-0.65505004,-0.14595,8.299951,0.0485375,0.3372875,0.0457875
1692595808970,2.04495,0.15,9.30795,0.384175,0.825275,-0.375925
1692595808995,0.99600005,1.5840001,7.14195,0.529925,0.81125,-0.695475
1692595809029,-0.58695,2.259,7.93695,0.77715,0.2343,-1.5906
1692595809059,-1.1190001,1.39005,8.266951,0.92345,0.0121,-2.013275
1692595809093,-1.46595,0.89895004,8.892,1.0813,-0.024475,-2.366925
1692595809119,-0.264,0.40905002,6.6130505,1.1922625,0.2343,-2.70435
1692595809150,-0.45600003,0.56700003,5.979,1.0982125,0.364375,-2.6404126
1692595809185,-1.2790501,0.53295004,8.03895,0.786225,0.3906375,-2.1362
1692595809223,-1.7320501,0.57900006,7.00995,0.5218125,0.2982375,-1.4463625
1692595809249,-1.488,0.15705001,8.48205,0.44027498,0.32381248,-1.1969374
1692595809275,0.087000005,0.279,11.680051,0.3183125,0.4321625,-0.918225
1692595809306,-1.4970001,1.7869501,8.68095,0.232925,0.4312,-0.7753625
1692595809333,-2.15505,2.367,8.253,0.0721875,0.16885,-0.3760625
1692595809357,-0.786,1.2870001,9.253051,0.1346125,0.0543125,-0.404525
1692595809394,0.27795002,-0.052050002,8.50905,0.495,0.0730125,-1.0580626
1692595809425,-1.5090001,0.54705,10.1959505,0.5467,0.05115,-1.1812625
1692595809457,-1.2720001,0.708,9.92595,0.2061125,-0.0829125,-0.4994
1692595809485,0.16995001,0.68895006,9.109051,0.0254375,-0.066275,-0.141625
1692595809513,0.82395005,1.2100501,8.3869505,-0.07755,0.0422125,0.0583
1692595809540,-0.09705,1.44,8.973001,-0.056925,-0.0251625,0.0972125
1692595809566,0.36405003,0.83895004,11.733001,-0.008525,-0.171325,0.1489125
1692595809590,1.1329501,0.50205004,11.89305,0.0622875,-0.319,0.193325
1692595809619,1.2040501,1.3780501,9.47295,0.12773749,-0.4745125,0.377025
1692595809648,0.90300006,1.8420001,8.647051,0.0853875,-0.5319875,0.511225
1692595809678,0.726,1.2750001,10.186951,0.0699875,-0.651475,0.4398625
1692595809706,0.44805002,1.0860001,10.617001,0.1373625,-0.65835,0.2371875
1692595809755,0.27600002,1.0639501,10.486051,0.1827375,-0.4272125,-0.032725
1692595809771,0.54105,0.93495005,10.333051,0.1302125,-0.3084125,-0.0281875
1692595809800,0.48405004,1.014,10.227,0.08085,-0.20515,-0.0314875
1692595809825,0.28005,1.2220501,9.403951,0.039875,-0.136675,-0.0127875
1692595809852,0.13395001,1.5460501,8.710051,-0.0042625,-0.0776875,0.1128875
1692595809886,0.23295002,1.7040001,8.281051,0.011275,-0.0551375,0.1175625
1692595809919,0.312,1.6369501,8.67105,0.1211375,-0.0243375,-0.1617
1692595809951,0.59895,1.15995,8.688001,0.186175,-0.0259875,-0.34265
1692595809980,0.87900007,1.062,8.64,0.2509375,-0.0369875,-0.380325
1692595810004,0.83100003,1.3249501,8.487,0.2248125,-0.047849998,-0.22687499
1692595810032,0.85005003,1.419,8.28405,0.111375,-0.11055,0.1164625
1692595810062,0.20400001,2.04795,7.89795,0.078099996,-0.1478125,0.21133749
1692595810090,0.28005,2.21295,8.56095,0.117425,-0.1599125,0.1984125
1692595810118,0.68700004,2.70195,7.9579506,0.188375,-0.1291125,0.036025
1692595810146,0.40500003,3.7669501,6.38805,0.270325,-0.0983125,-0.21573749
1692595810177,1.4290501,3.4819503,6.4090505,0.467775,-0.1340625,-0.72325
1692595810205,1.7479501,3.2260501,8.3220005,0.6323625,-0.2129875,-0.947925
1692595810231,1.67595,3.31905,10.31595,0.815925,-0.3254625,-1.1044
1692595810263,1.7190001,3.561,9.093,0.9519125,-0.5379,-0.8892125
1692595810288,0.90795004,2.3470502,7.623,0.8595125,-0.56045,-0.5819
1692595810318,0.76395005,-0.009000001,9.379951,0.5988125,-0.45374998,-0.094325
1692595810349,-0.231,-0.86595005,9.535951,0.44288749,-0.3441625,0.0688875
1692595810376,-2.39505,-0.41595003,7.8430505,-0.1747625,0.062975,0.6483125
1692595810404,-2.0310001,-0.59595,7.7710505,-0.558525,0.352825,1.0531125
1692595810432,-0.372,-2.367,11.517,-1.054075,0.9989375,1.5778124
1692595810459,-0.86505,-2.2039502,12.336,-1.1977625,1.2302125,1.8082625
1692595810487,-0.80505,-1.79295,10.519051,-1.36235,1.30515,2.2155375
1692595810516,0.075,-2.058,10.309051,-1.6388625,1.0626,3.1735
1692595810542,-0.28605002,-2.15895,11.484,-1.6303375,0.86845,3.3682
1692595810573,-0.36195,-2.0770502,12.496051,-1.4317875,0.452375,3.2451375
1692595810602,-0.15195,-1.5079501,11.674951,-1.3105125,0.27005,3.033525
1692595810632,-0.40995002,-0.87600005,11.06505,-1.01255,0.058025,2.431825
1692595810658,-0.279,-0.76305,11.467051,-0.82568747,0.004125,2.115575
1692595810684,0.36195,-0.864,12.127951,-0.624525,-0.025575,1.812525
1692595810711,0.53205,-0.79695004,12.38895,-0.2580875,-0.043725,1.1372625
1692595810737,0.24195,-0.33495003,12.02295,-0.1255375,-0.0724625,0.745525
1692595810765,0.252,0.016050002,11.508,-0.0292875,-0.1181125,0.3768875
1692595810793,0.57495004,-0.21495001,11.47395,0.117975,-0.1672,-0.1678875
1692595810818,0.36705002,-0.29700002,11.85,0.1854875,-0.1568875,-0.3773
1692595810849,0.21795002,-0.36600003,11.7949505,0.236775,-0.143825,-0.5713125
1692595810875,0.11505,-0.28005,11.067,0.256575,-0.1269125,-0.79254997
1692595810906,0.24900001,-0.117000006,11.91495,0.23773749,-0.1082125,-0.7693125
1692595810933,0.094050005,-0.045,11.508,0.215875,-0.081675,-0.69519997
1692595810961,0.381,-0.69600004,12.726001,0.1885125,-0.033,-0.598125
1692595810991,0.36405003,-0.80205005,12.601951,0.17765,-0.0165,-0.591525
1692595811019,0.010050001,-0.59595,12.798,0.0994125,-0.013062499,-0.506
1692595811049,0.37395,-1.04595,13.55895,0.036025,-0.0235125,-0.4101625
1692595811079,-0.14895001,-1.1340001,13.873051,-0.05775,-0.02585,-0.1962125
1692595811104,-0.98700005,-0.25095,12.954,-0.0856625,-0.0176,-0.0818125
1692595811135,-0.76695,-0.402,10.515,-0.108899996,0.0279125,0.1266375
1692595811166,0.75405,-2.2110002,13.81305,-0.0759,0.091575,0.150425
1692595811193,0.69705003,-2.5729501,13.50195,-0.0287375,0.16885,0.1491875
1692595811222,0.10095,-2.3479502,11.25195,-0.1142625,0.098037496,0.2773375
1692595811251,0.29505002,-2.709,11.494051,-0.25025,-0.01485,0.456775
1692595811281,-0.13695,-2.94105,12.74505,-0.451825,-0.13695,0.617375
1692595811315,-0.34605002,-2.25495,11.07705,-0.54408747,-0.111375,0.5643
1692595811344,-0.70500004,-1.4650501,8.73795,-0.5592125,-0.0705375,0.525525
1692595811372,-0.42495003,-1.8210001,8.877001,-0.4915625,0.0385,0.42625
1692595811401,-0.027,-2.09205,8.974951,-0.4915625,0.0385,0.42625
1692595811431,-0.54705,-0.009000001,7.3240504,-0.3438875,0.14905,0.1519375
1692595811459,0.72300005,-0.08595,9.081,-0.1934625,0.202125,-0.27775
1692595811489,0.85695004,-0.273,10.44705,0.102575,0.2030875,-0.91162497
1692595811518,-0.62805,1.7659501,8.02005,0.2707375,0.154825,-1.29305
1692595811548,0.04605,1.266,6.25605,0.401225,0.074525,-1.6424375
1692595811577,1.3770001,-0.17400001,6.1320004,0.6293375,0.038775,-2.21925
1692595811606,1.3240501,-0.30795002,6.7639503,0.7269625,0.0650375,-2.361975
1692595811634,1.1659501,-0.13605,5.754,0.7415375,0.018424999,-2.2598126
1692595811662,0.42900002,0.08805001,6.9619503,0.4978875,-0.2844875,-1.4603875
1692595811692,0.28005,-0.15495001,9.83205,0.27225,-0.438075,-0.8680375
1692595811719,0.26805001,-0.0019500001,9.98295,0.2275625,-0.3727625,-0.74965
1692595811748,-0.29505002,0.89895004,9.0379505,0.2044625,-0.2418625,-0.6675625
1692595811779,-0.12105001,1.4950501,8.049001,0.2055625,0.02915,-0.5732375
1692595811807,0.55095005,1.15995,8.14005,0.27115,0.1458875,-0.677325
1692595811837,0.855,0.66,8.961,0.49981248,0.27445,-1.0822625
1692595811864,0.84300005,0.68100005,9.10005,0.561275,0.2162875,-1.1108625
1692595811896,0.30705002,0.813,9.777,0.4725875,-0.0215875,-0.6535375
1692595811924,0.076950006,0.92595005,9.226951,0.3839,-0.095699996,-0.370425
1692595811951,-0.453,1.02405,9.351001,0.3092375,-0.108899996,-0.156475
1692595811980,-0.52005005,1.0669501,9.222,0.2349875,0.005225,-0.0356125
1692595812009,-0.22395001,0.84405005,9.238951,0.22605,0.09735,-0.1183875
1692595812038,0.3,0.72495,9.306001,0.2222,0.189475,-0.2270125
1692595812068,0.38595003,0.88995004,9.339001,0.19373749,0.2844875,-0.2833875
1692595812100,-0.43905002,1.05495,9.712951,0.11935,0.1879625,-0.0446875
1692595812129,-0.27405003,0.69105005,10.10295,0.0935,0.1232,0.046475
1692595812158,-0.042000003,0.50205004,9.568951,0.0908875,0.1051875,-0.047575
1692595812183,-0.36495003,0.507,9.717,0.077275,0.131175,-0.0925375
1692595812210,-0.78900003,0.72495,9.528001,-0.014025,0.1529,0.08525
1692595812236,-0.38895002,0.528,9.825001,-0.05995,0.1634875,0.2008875
1692595812265,0.11505,0.37005,9.96195,-0.0886875,0.1936,0.2424125
1692595812295,0.57495004,-0.045,10.359,-0.11165,0.2237125,0.157025
1692595812322,-0.23295002,0.342,9.880051,-0.1287,0.1617,0.1419
1692595812348,-0.25695002,0.40395,9.556951,-0.1599125,0.0666875,0.1901625
1692595812376,-0.07005,0.45600003,9.02295,-0.2055625,-0.0347875,0.377575
1692595812411,-0.25500003,0.94005007,8.33205,-0.18933749,-0.0155375,0.423225
1692595812445,-0.231,1.3969501,8.703,-0.0919875,0.044275,0.27101249
1692595812472,0.112950005,1.81605,8.997001,0.083875,0.0493625,-0.1527625
1692595812503,0.34005,1.914,10.323001,0.194975,0.0308,-0.4063125
1692595812528,-0.054,1.77795,10.6050005,0.3078625,-0.0078375,-0.61654997
1692595812562,-0.88695,1.797,9.97395,0.46585,-0.1236125,-0.6831
1692595812586,-0.58500004,1.4790001,9.835051,0.4805625,-0.1439625,-0.601425
1692595812613,-0.26895002,1.15995,9.33405,0.41965,-0.039325,-0.60445
1692595812641,-0.15900001,1.23195,8.51295,0.363,0.025575,-0.642675
1692595812669,-0.666,1.6510501,8.587951,0.289025,0.0605,-0.606925
1692595812696,-0.77895004,1.6819501,8.712001,0.1552375,0.058849998,-0.3845875
1692595812723,-0.68805003,1.7899501,8.85795,0.143,0.061875,-0.34553748
1692595812751,-0.69795,1.881,8.44905,0.1662375,0.0818125,-0.3975125
1692595812779,-0.79605,2.0389502,8.272051,0.24007499,0.1126125,-0.631675
1692595812814,-0.46095002,2.02905,8.764951,0.3047,0.095425,-0.7709625
1692595812825,-0.38895002,2.022,9.229051,0.3047,0.095425,-0.7709625
1692595812860,-0.83400005,2.7930002,8.53695,0.3493875,0.072325,-0.7434625
1692595812889,-1.5520501,3.5419502,6.984,0.371525,0.034649998,-0.594275
1692595812918,-0.84795004,3.2670002,6.366,0.4453625,0.0202125,-0.6353875
1692595812947,1.00995,2.11305,7.6800003,0.75734997,-0.0185625,-1.1605
1692595812973,1.2760501,1.455,8.72595,0.859925,-0.085525,-1.3160125
1692595813003,0.94305,0.94005007,8.58495,0.807675,-0.1940125,-1.10495
1692595813031,0.14595,0.16005,7.6060505,0.58905,-0.31185,-0.5368
1692595813059,0.74205005,-0.09105001,8.986951,-0.03575,-0.392975,0.8294
1692595813087,1.0200001,-1.1029501,10.629001,-0.315425,-0.3201,1.3345749
1692595813117,0.321,-1.86405,12.298051,-0.7876,-0.094325,2.0981126
1692595813142,-0.26895002,-1.5340501,11.175,-1.0082875,-0.0086624995,2.4894376
1692595813175,-0.58005005,-1.098,10.705951,-1.3583624,0.143,3.1244125
1692595813200,-0.60705,-1.0819501,9.990001,-1.401675,0.231,3.2049875
1692595813229,0.087000005,-1.7350501,10.68,-1.3398,0.3091,3.1304624
1692595813260,-0.372,-1.6699501,10.596001,-1.092025,0.355575,2.7572875
1692595813290,-1.42005,-0.96900004,10.323001,-0.93995,0.23045,2.36335
1692595813319,-1.7680501,-0.31605002,10.564951,-0.8765625,0.1750375,2.1929874
1692595813348,-0.82395005,-0.96000004,12.472951,-0.62645,0.2822875,1.7326375
1692595813376,-0.75495005,-0.84000003,12.303,-0.4596625,0.3887125,1.41515
1692595813404,-0.90300006,-0.22005,11.515051,-0.3158375,0.4371125,1.084875
1692595813433,-0.75495005,-0.057000004,11.07495,-0.118525,0.3355,0.4989875
1692595813460,0.063,-0.51000005,12.063001,-0.0242,0.2673,0.24887499
1692595813488,-0.123,-1.05795,10.524,0.0650375,0.2102375,0.045925
1692595813520,0.44295,-0.78705,11.641951,0.130075,0.056375,-0.1571625
1692595813547,0.55095005,-0.33195,13.19505,0.093637496,-0.0507375,-0.1827375
1692595813574,0.052950002,-0.354,12.84405,0.0111375,-0.2402125,-0.27719998
1692595813603,-1.2600001,-0.079050004,10.960051,0.0213125,-0.2877875,-0.3785375
1692595813633,-0.44595003,-1.1179501,13.657051,0.09515,-0.22275,-0.5154875
1692595813663,1.2589501,-2.2069502,14.313001,0.11,-0.118525,-0.494175
1692595813686,0.83100003,-1.8760501,13.96905,0.0815375,-0.030524999,-0.3950375
1692595813716,0.252,-1.1869501,13.356001,-0.1205875,-0.104637496,-0.0089375
1692595813745,0.60795003,-0.99495006,12.417001,-0.2223375,-0.207075,0.155375
1692595813772,1.1329501,-1.7850001,12.790951,-0.249975,-0.269775,0.2429625
1692595813805,-0.003,-1.9980001,12.84105,-0.2083125,-0.2586375,0.231825
1692595813835,-0.92505,-1.3069501,11.27805,-0.1964875,-0.2431,0.237875
1692595813863,0.51495004,-2.1040502,11.19705,-0.2256375,-0.1962125,0.248325
1692595813893,0.68505,-2.7910502,12.882001,-0.24213749,-0.1183875,0.2638625
1692595813924,-0.28095,-2.94105,12.754951,-0.25959998,-0.0385,0.360525
1692595813955,-0.87495005,-2.3170502,11.673,-0.36574998,-0.1128875,0.6128375
1692595813980,-0.84105,-2.05605,10.93605,-0.4109875,-0.1056,0.7558375
1692595814008,-1.143,-2.058,10.573951,-0.4170375,-0.0455125,0.83875
1692595814038,-0.60405004,-1.8520501,9.097051,-0.33275,0.1236125,0.782925
1692595814068,0.27600002,-1.6390501,8.51295,-0.28187498,0.1841125,0.7123875
1692595814099,-0.48000002,-0.093,8.379001,-0.21779999,0.20019999,0.5517875
1692595814128,-1.4830501,1.4950501,7.18305,-0.185625,0.158125,0.4301
1692595814157,0.39795002,2.2420502,6.9220505,0.0636625,0.1467125,-0.0485375
1692595814185,1.4130001,2.355,9.519,0.3603875,0.2278375,-0.50325
1692595814214,2.49495,3.1729503,11.14395,1.1059124,0.220825,-1.814725
1692595814243,2.2410002,2.5459502,6.8950505,1.377475,0.0050875,-2.43705
1692595814272,-2.601,2.80905,2.3740501,1.522125,-0.293425,-2.839375
1692595814301,-2.3089502,1.9090501,7.8430505,1.5404125,-0.6719625,-2.95405
1692595814331,0.68505,0.54705,10.893001,1.46465,-0.1557875,-2.9909
1692595814360,-0.23805001,1.677,6.1390505,1.323575,0.1854875,-2.8974
1692595814391,-1.212,2.6250002,4.1790004,1.0489875,0.303875,-2.4550624
1692595814420,0.64905006,2.53695,9.69795,0.5611375,0.089925,-1.41625
1692595814449,0.034050003,2.3040001,11.497951,0.56595,-0.0020625,-1.353275
1692595814476,-1.34895,2.63895,8.346001,0.6887375,-0.125125,-1.44265
1692595814504,-1.9660501,2.3830502,6.67005,0.626175,-0.1615625,-1.298825
1692595814532,-0.10605001,0.99495006,8.734051,0.5218125,-0.0303875,-1.3173875
1692595814559,0.54795,0.61695004,9.09,0.5187875,0.102025,-1.482525
1692595814592,0.47700003,1.0570501,7.59705,0.42734998,0.1854875,-1.3893
1692595814620,-0.51600003,1.263,8.63595,-0.0699875,0.0947375,-0.171325
1692595814649,-0.55605,0.79395,10.6390505,-0.2585,0.0050875,0.3674
1692595814677,-0.38895002,0.37500003,11.448001,-0.3815625,-0.007425,0.64968747
1692595814708,-0.70005006,0.70305,10.28205,-0.44233748,0.0581625,0.700975
1692595814734,-1.167,0.966,9.64095,-0.614075,0.1640375,0.9345875
1692595814765,-0.786,0.957,10.11495,-0.6353875,0.1926375,0.9513625
1692595814795,-0.59205,0.85095006,10.79205,-0.493625,0.2462625,0.648175
1692595814824,-0.72195005,0.69795,10.333051,-0.400675,0.24447499,0.4571875
1692595814855,-1.3939501,0.91605,9.009001,-0.2897125,0.1574375,0.214775
1692595814882,-0.85095006,0.873,9.859051,-0.258225,0.1238875,0.140525
1692595814911,-0.025050001,0.56700003,10.354051,-0.223025,0.1304875,0.081675
1692595814940,-0.0010500001,0.75105006,10.041,-0.1590875,0.16445,0.039325
1692595814968,-0.30495003,1.24605,8.611951,-0.1551,0.1027125,0.061875
1692595814999,0.132,1.131,8.566051,-0.145475,-0.1023,0.1087625
1692595815027,0.12705001,1.146,9.19995,-0.096525,-0.161425,0.08305
1692595815060,0.075,0.96900004,9.670051,0.0364375,-0.2187625,-0.032175
1692595815088,-0.3,1.00695,8.832001,0.072875,-0.2443375,-0.069025
1692595815115,-0.35505003,1.27995,8.6640005,0.0801625,-0.25905,-0.0721875
1692595815147,0.39495003,1.43805,9.259951,0.061325,-0.2101,-0.0235125
1692595815175,0.261,1.5259501,9.8869505,0.1115125,-0.1486375,-0.0622875
1692595815204,0.18900001,1.67505,9.19995,0.1513875,-0.172425,-0.117425
1692595815232,0.35700002,1.6200001,10.390051,0.2030875,-0.2492875,-0.291225
1692595815263,-0.06795,1.96905,9.648001,0.21835,-0.2633125,-0.3883
1692595815292,-0.549,2.32605,9.094951,0.2222,-0.2641375,-0.44027498
1692595815321,-0.46095002,2.2470002,8.596951,0.23375,-0.21835,-0.5011875
1692595815351,0.28305,1.5619501,9.42105,0.282425,-0.1546875,-0.6292
1692595815379,0.30405003,1.5409501,9.291,0.3757875,-0.0339625,-0.8716125
1692595815407,0.30900002,1.69395,8.43,0.3389375,-0.032175,-0.782925
1692595815435,0.56295,1.6699501,7.4389505,0.172425,-0.092675,-0.317625
1692595815467,0.45495003,2.21295,8.128051,0.1271875,-0.120175,-0.143825
1692595815497,0.036000002,3.111,8.3890505,0.1423125,-0.185075,-0.0380875
1692595815526,-0.50100005,3.4609501,7.8600006,0.1931875,-0.2151875,-0.0743875
1692595815555,-0.33600003,3.3340502,7.42005,0.41799998,-0.2085875,-0.4063125
1692595815583,0.81705004,2.6830502,8.238,0.5644375,-0.1689875,-0.6744375
1692595815611,1.233,2.19705,9.27,0.682275,-0.1309,-0.89595
1692595815640,-0.05595,1.8970501,8.016001,0.6703125,-0.163075,-0.77701247
1692595815668,-0.97800004,1.55505,7.1989503,0.5240125,-0.208725,-0.4552625
1692595815698,-0.37395,-0.49005002,8.442,0.18053749,-0.1065625,0.0237875
1692595815724,-0.88695,-1.419,8.607,0.015675,0.067375,0.141075
1692595815754,-0.693,-1.7230501,9.696,-0.219175,0.2762375,0.37895
1692595815785,0.75705004,-1.8829501,11.13,-0.9755625,0.65793747,1.5453625
1692595815814,-0.079950005,-1.1890501,10.024051,-1.6237375,0.7173375,2.9282
1692595815841,-1.4110501,-0.76995003,9.531,-1.7425375,0.5533,3.2993126
1692595815870,-1.2739501,-0.98805004,10.431001,-1.7021124,0.36519998,3.314575
1692595815902,-0.78900003,-1.7539501,11.637,-1.31065,0.2734875,2.684
1692595815932,-0.63495004,-1.6510501,11.224951,-0.9988,0.3356375,2.27755
1692595815959,-0.43695003,-1.8760501,9.769951,-0.931975,0.2993375,2.2061875
1692595815987,-0.59205,-1.62705,11.793,-0.878625,0.23375,2.1107626
1692595816017,-0.075,-1.4790001,12.942,-0.7588625,0.09955,1.7864
1692595816045,-0.022950001,-0.98805004,12.18795,-0.6829625,0.0435875,1.5635124
1692595816075,-0.84405005,-0.064050004,11.368951,-0.4615875,-0.0540375,0.987525
1692595816104,-0.432,0.09705,12.160951,-0.314875,-0.07535,0.658625
1692595816134,-0.573,0.32505003,11.92695,0.0364375,-0.0026125,-0.058025
1692595816163,-0.86805004,-0.08295,12.031951,0.19965,0.0485375,-0.3909125
1692595816192,-0.59205,-0.23400001,13.135951,0.3982,0.08305,-0.8322875
1692595816221,-0.25500003,-0.52905005,13.585951,0.419925,0.0878625,-0.90639997
1692595816250,0.19695,-0.72,12.21195,0.3922875,0.0895125,-0.881925
1692595816279,0.01905,-1.1029501,10.30605,0.240625,0.0215875,-0.6826875
1692595816318,0.34995002,-2.1349502,13.309951,0.0616,-0.09735,-0.4676375
1692595816336,0.87900007,-2.6179502,14.404051,0.0616,-0.09735,-0.4676375
1692595816367,-0.432,-2.0629501,13.5379505,-0.1618375,-0.16733749,-0.0801625
1692595816398,-1.03995,-1.59105,12.8220005,-0.401225,-0.2209625,0.2998875
1692595816426,-0.25695002,-2.4460502,13.77,-0.44907498,-0.1942875,0.3795
1692595816453,-0.21405001,-2.70195,13.851001,-0.4433,-0.1225125,0.4170375
1692595816481,-0.89400005,-2.15895,12.61095,-0.390225,-0.0066,0.4390375
1692595816511,-0.0010500001,-2.0410502,11.656051,-0.392425,-0.0207625,0.4747875
1692595816538,0.29205,-2.14395,11.982,-0.3788125,-0.0268125,0.481525
1692595816564,-0.59205,-1.81605,13.078051,-0.34347498,-0.0317625,0.4571875
1692595816596,-0.78405005,-2.2740002,12.21405,-0.26235,-0.077275,0.3656125
1692595816623,-0.64500004,-2.7259502,10.431001,-0.22165,-0.0809875,0.32725
1692595816654,-0.87195003,-2.6419501,10.387951,-0.1838375,-0.050875,0.306075
1692595816683,-1.10895,-2.14905,10.31805,-0.2050125,0.0325875,0.34347498
1692595816722,-0.11400001,-2.07495,6.94605,-0.3009875,0.08195,0.414975
1692595816747,0.69000006,-2.2350001,6.6220503,-0.30195,0.1175625,0.413325
1692595816775,1.1179501,-0.99105006,8.10705,-0.27005,0.1233375,0.3614875
1692595816802,0.9580501,0.59805006,7.9920006,-0.27555,0.0213125,0.308825
1692595816830,-0.60705,2.2369502,7.5730505,-0.23333749,-0.1205875,0.14685
1692595816855,-1.4800501,4.092,7.3020005,0.2187625,-0.23045,-0.70125
1692595816889,0.43800002,2.805,5.682,1.0811625,0.093225,-2.15985
1692595816916,0.522,2.2009501,4.9680004,1.5420625,0.2633125,-2.979075
1692595816947,1.45605,0.92595005,6.3229504,1.872475,0.2795375,-3.5409
1692595816975,1.28805,-0.28500003,7.1179504,1.8662875,-0.0759,-3.19165
1692595816999,1.19505,-0.21000001,8.80305,1.5850999,-0.2946625,-2.5020876
1692595817027,0.72300005,0.83205,9.969001,1.1925375,-0.4714875,-1.7204
1692595817055,-1.30095,2.30205,7.4749503,0.4142875,-0.5889125,-0.4411
1692595817083,-2.5099502,3.4960501,5.5519505,0.216975,-0.5014625,-0.1827375
1692595817112,0.16095,1.4470501,9.978001,0.4191,0.003025,-0.7838875
1692595817141,0.79305005,0.74100006,10.795051,0.692175,0.287375,-1.4249125
1692595817169,0.312,1.041,9.363001,0.836825,0.4120875,-1.7939625
1692595817197,0.216,1.00695,8.437051,0.44165,0.177375,-1.041975
1692595817225,0.68700004,0.28905,10.246051,0.1797125,0.0352,-0.4984375
1692595817253,0.78495,0.0139500005,10.998,-0.1021625,-0.0644875,0.1500125
1692595817282,0.19905001,0.34605002,9.94995,-0.2146375,-0.0856625,0.4035625
1692595817310,0.058050003,0.65295005,8.95905,-0.3271125,-0.11,0.6210875
1692595817338,-0.06105,0.97605,10.05,-0.4288625,-0.0963875,0.7514375
1692595817366,0.108,0.74595004,10.9480505,-0.3906375,-0.0485375,0.653675
1692595817392,0.055050004,0.63105005,10.737,-0.3172125,0.0022,0.5075125
1692595817419,0.024,0.46395,10.28205,-0.188925,0.0710875,0.2858625
1692595817454,-0.32895002,0.291,9.95895,-0.1571625,0.106975,0.26235
1692595817476,-0.07305,0.093,9.957001,-0.1606,0.121275,0.27995
1692595817502,0.010050001,0.13095,9.966001,-0.1706375,0.1368125,0.2864125
1692595817537,-0.3,0.57105005,9.580951,-0.205425,0.15785,0.2836625
1692595817564,-0.42000002,0.65505004,9.861,-0.21133749,0.1584,0.2770625
1692595817594,-1.00605,0.52605003,8.71395,-0.1436875,0.160875,0.117975
1692595817623,0.18495001,-0.040050004,9.49695,-0.0862125,0.17379999,0.014712499
1692595817658,0.32595003,-0.165,10.9140005,-0.0367125,0.2057,0.056375
1692595817685,-0.822,0.492,9.418051,-0.0801625,0.1733875,0.2305875
1692595817710,-1.07295,0.61695004,8.463,-0.20405,0.033825,0.6205375
1692595817744,-0.25995,0.078,9.93,-0.1973125,0.033825,0.635525
1692595817769,0.20595,0.078,10.099951,-0.1434125,0.09515,0.501325
1692595817797,-0.20895001,0.648,9.411,-0.0625625,0.18205,0.1991
1692595817827,-0.60195005,0.966,9.02805,-0.0647625,0.1496,0.1799875
1692595817856,-0.109050006,0.66,9.691051,0.0012375,0.0617375,0.102025
1692595817885,0.24705002,0.67395,10.12395,0.078099996,0.048675,-0.0323125
1692595817913,0.024,1.2919501,9.82005,0.162525,9.625E-4,-0.1208625
1692595817942,-0.006,1.5600001,10.15305,0.1684375,-0.0507375,-0.070125
1692595817972,-0.10395,1.3399501,10.49295,0.2385625,-0.1332375,-0.1942875
1692595818002,-0.74805003,1.3879501,10.07205,0.297275,-0.14739999,-0.34705
1692595818029,-0.82695,1.3450501,9.31995,0.3359125,-0.14093749,-0.4569125
1692595818061,-0.63495004,1.23405,9.214951,0.3287625,-0.039049998,-0.4912875
1692595818090,-0.90795004,1.503,8.607,0.27995,0.1057375,-0.4442625
1692595818117,-0.882,1.55805,8.3220005,0.253275,0.144375,-0.4224
1692595818145,-0.74100006,1.263,9.247951,0.24007499,0.165825,-0.4329875
1692595818175,-0.669,1.5810001,9.35595,0.252175,0.1816375,-0.547525
1692595818208,-0.68595004,1.9240501,8.932051,0.246125,0.1706375,-0.5647125
1692595818236,-0.82695,2.1730502,8.49405,0.235125,0.125125,-0.463925
1692595818266,-0.92700005,2.21595,8.35305,0.2671625,0.0996875,-0.44275
1692595818299,-1.00905,2.4120002,7.9890003,0.39325,0.0539,-0.63305
1692595818318,-0.73395,2.42205,8.599951,0.45374998,0.0452375,-0.7607875
1692595818353,-0.32700002,2.18895,9.29895,0.5187875,0.058575,-0.794475
1692595818384,-0.40995002,2.43105,9.01095,0.5148,0.0460625,-0.709775
1692595818413,-0.80805004,2.89995,8.20695,0.4824875,0.0044,-0.5836875
1692595818440,-0.99000007,2.7570002,6.91695,0.415525,-0.0966625,-0.3757875
1692595818469,-0.60705,1.7680501,7.1920505,0.4406875,-0.1203125,-0.421025
1692595818497,0.75000006,0.59505004,10.41405,0.5391375,-0.1073875,-0.64955
1692595818527,-1.0180501,0.14295001,9.61695,0.4723125,-0.073699996,-0.54285
1692595818556,-0.882,0.38205,9.62205,-0.117699996,0.013475,0.4390375
1692595818584,0.69900006,0.17205001,9.63105,-0.4807,0.086075,0.98065
1692595818616,-0.372,0.069000006,9.375,-0.863775,0.1948375,1.5323
1692595818642,-0.57795,-0.402,9.97395,-0.9073625,0.14245,1.6655375
1692595818673,0.47400004,-0.69405,10.76595,-0.913275,0.045375,1.8090875
1692595818707,0.06705,-0.69600004,10.693951,-0.920425,0.0600875,1.85405
1692595818734,-1.23105,-0.67200005,9.19305,-0.9475125,0.0017875,1.9529124
1692595818764,-1.4419501,-0.708,8.950951,-0.9315625,-0.047575,1.9344875
1692595818793,-0.44895002,-0.84495,9.93,-0.8243125,0.041525,1.732775
1692595818821,-0.32895002,-0.91395,10.43595,-0.767525,0.1398375,1.6462874
1692595818849,-0.42705002,-0.86595005,9.97395,-0.7211875,0.19305,1.60875
1692595818877,-0.39795002,-0.9979501,10.653001,-0.6265875,0.1111,1.5335375
1692595818908,-0.77205,-1.16505,11.199,-0.5696625,0.047575,1.4377
1692595818935,-0.61095005,-1.09095,11.25405,-0.4816625,-0.0017875,1.2271875
1692595818965,-0.76695,-0.68205005,11.008051,-0.451,0.0017875,1.1020625
1692595818992,-0.98700005,0.0019500001,11.118001,-0.4147,0.013612499,0.9246875
1692595819022,-0.82005006,0.033,11.59395,-0.2707375,0.0587125,0.4184125
1692595819053,-0.99195004,0.07395,11.08695,-0.0097624995,0.115775,-0.1084875
1692595819082,-0.58695,0.102000006,11.505,0.1104125,0.1304875,-0.3152875
1692595819110,-0.78105,0.07395,11.34,0.2358125,0.1263625,-0.5405125
1692595819138,-1.1400001,0.32505003,11.047951,0.2525875,0.108075,-0.5561875
1692595819169,-1.026,0.52605003,10.387951,0.2541,0.0765875,-0.4948625
1692595819194,-0.85305005,0.48000002,10.564951,0.2541,0.0765875,-0.4948625
1692595819233,-0.89400005,0.09705,11.920051,0.28861248,0.11055,-0.471075
1692595819257,-1.21695,0.28395,11.094001,0.285175,0.0946,-0.4794625
1692595819285,-0.58305,0.12900001,11.3550005,0.2607,0.0702625,-0.48014998
1692595819314,-0.10395,0.07395,11.910001,0.1854875,0.058025,-0.4279
1692595819343,-0.52305,0.117000006,12.118051,0.1854875,0.058025,-0.4279
1692595819369,-0.71400005,-0.036000002,10.882951,0.1137125,-0.0103124995,-0.259875
1692595819399,-0.126,-0.34905002,11.517,0.0583,-0.086075,-0.104225
1692595819429,0.13005,-0.65805006,12.267,0.034925,-0.0851125,-0.091299996
1692595819459,0.06705,-0.92595005,11.991,-0.0501875,-0.1276,-0.0539
1692595819489,-0.37005,-1.161,12.23595,-0.1973125,-0.231825,0.2459875
1692595819515,-0.47295,-1.1010001,12.765,-0.2673,-0.2492875,0.4162125
1692595819543,-0.882,-0.74895006,12.528001,-0.3232625,-0.2311375,0.5630625
1692595819572,-1.04205,-0.85695004,12.121051,-0.360525,-0.1379125,0.7357625
1692595819604,-1.33905,-0.91605,11.161051,-0.332475,-0.0771375,0.7126625
1692595819634,-0.88905007,-1.7809501,11.71395,-0.246125,0.069299996,0.549175
1692595819661,-0.11100001,-2.4769502,12.22605,-0.22893749,0.1340625,0.4976125
1692595819689,-0.84105,-2.55795,11.818951,-0.2550625,0.1617,0.4970625
1692595819719,-1.4089501,-1.93095,10.342051,-0.4393125,0.0595375,0.6505125
1692595819747,-1.53795,-1.455,8.76,-0.5339125,-0.001925,0.7396125
1692595819785,-0.48195,-0.84900004,9.37005,-0.5556375,0.044,0.70867497
1692595819805,-0.94695,-0.15795001,8.829,-0.4855125,0.1208625,0.5863
1692595819836,-1.1359501,1.2970501,7.1659503,-0.2418625,0.1885125,0.159775
1692595819865,-0.55905,1.6650001,7.149,-0.0539,0.2003375,-0.1750375
1692595819895,0.55995005,2.0029502,8.10705,0.1903,0.2410375,-0.590425
1692595819924,2.39205,2.2350001,9.082951,0.3751,0.2553375,-1.5895
1692595819952,-0.025050001,1.6200001,5.7660003,-0.1153625,0.15675,-2.1146126
1692595819979,-1.42305,1.4260501,6.2779503,-0.0451,-0.080575,-2.565475
1692595820010,-0.62805,-0.30105,10.1320505,0.698775,-0.674575,-2.7918
1692595820039,-0.46500003,0.04695,8.46105,0.7068875,-0.36313748,-2.25005
1692595820069,-1.5619501,0.86295,6.1249504,0.504625,-0.106837496,-1.7818625
1692595820096,-0.70695,1.24905,7.4460006,0.0721875,0.103125,-0.7803125
1692595820123,2.0010002,0.64995,11.002951,0.0396,0.1936,-0.58245
1692595820152,0.094050005,1.23,12.754951,0.2123,0.2580875,-0.612975
1692595820187,-3.35505,2.94105,8.443951,0.238425,0.0826375,-0.5209875
1692595820214,-1.9380001,2.17995,7.9489503,0.266475,-0.153725,-0.5132875
1692595820243,-0.17295001,0.98295003,8.3890505,0.3982,4.125E-4,-0.8545625
1692595820270,-0.40800002,0.94500005,8.21895,0.6485875,0.3276625,-1.4449875
1692595820300,-0.087000005,0.95895004,8.50395,0.576125,0.296725,-1.2376375
1692595820326,0.22800002,0.95400006,8.817,0.4016375,0.1859,-0.7948875
1692595820361,-0.16095,1.23705,9.76305,0.102025,-0.047575,-0.0812625
1692595820388,-0.84795004,1.5000001,10.29705,0.0259875,-0.1533125,0.0790625
1692595820417,-0.95100003,1.4239501,9.232051,-0.023924999,-0.24255,0.1255375
1692595820446,-1.2240001,1.40205,8.956051,-0.0072875,-0.1923625,0.0438625
1692595820482,-1.06095,1.45905,10.066951,0.058025,-0.0163625,-0.155375
1692595820508,-0.693,1.23195,9.93795,0.0803,0.064625,-0.210375
1692595820537,-0.42495003,1.179,8.7960005,0.0710875,0.1533125,-0.1830125
1692595820565,0.13695,0.90900004,8.96805,0.043449998,0.1370875,-0.113299996
1692595820594,0.83595,0.78900003,10.467001,-0.016775,0.023375,0.072875
1692595820621,0.46500003,1.194,10.017,-0.053075,-0.057475,0.205975
1692595820653,-0.58005005,1.8930001,8.655001,-0.100375,-0.1640375,0.365475
1692595820680,-0.16095,1.914,8.961,-0.116325,-0.3433375,0.4807
1692595820711,0.39105,1.4620501,9.745951,0.08305,-0.2712875,0.0763125
1692595820744,0.19905001,1.455,9.32505,0.16775,-0.2259125,-0.1359875
1692595820771,-0.05595,1.28505,9.318001,0.19139999,-0.225225,-0.2451625
1692595820797,-0.042000003,1.0189501,10.033051,0.1266375,-0.25685,-0.2272875
1692595820825,-0.11400001,1.2420001,10.042951,0.0801625,-0.23045,-0.1678875
1692595820855,-0.753,1.90005,9.271951,0.0248875,-0.1777875,-0.08305
1692595820884,-0.70995003,2.17995,9.057,-0.0570625,-0.0605,0.02915
1692595820912,-0.34305,1.9240501,9.22395,0.064899996,0.04675,-0.286825
1692595820943,0.01695,1.62705,8.88405,0.1661,0.0776875,-0.534325
1692595820972,0.15105,1.43295,8.89395,0.2508,0.047025,-0.7033125
1692595821001,0.064950004,1.4860501,8.98005,0.22013749,0.0042625,-0.56265
1692595821034,-0.20700002,1.8090001,8.49405,0.11165,-0.0796125,-0.18535
1692595821061,0.02205,1.845,8.36505,0.0790625,-0.1018875,-0.0935
1692595821091,0.15795001,1.93305,8.643001,0.077275,-0.1035375,-0.0704
1692595821120,-0.31905,2.4820502,7.8859506,0.1343375,-0.0878625,-0.0803
1692595821148,-0.27195,2.45295,8.190001,0.1772375,-0.092125,-0.10395
1692595821176,-0.40095,2.60595,8.17095,0.3058,-0.0903375,-0.30827498
1692595821205,-0.43005002,3.1249502,7.7310004,0.366025,-0.0771375,-0.435325
1692595821233,0.01905,3.0270002,8.4199505,0.444675,-0.06435,-0.574475
1692595821264,1.269,2.091,9.67395,0.493625,-0.0765875,-0.625625
1692595821291,0.83595,1.8379501,8.793,0.4829,-0.153175,-0.49005
1692595821323,-1.1329501,2.69895,6.438,0.355575,-0.2063875,-0.2105125
1692595821352,-1.3770001,1.7680501,7.8840003,0.117425,-0.211475,0.2237125
1692595821380,-1.7170501,0.0019500001,8.39595,0.1054625,-0.0974875,0.15853749
1692595821408,-1.77495,-1.0000501,8.253,0.1010625,0.091299996,0.0144375
1692595821435,-0.9990001,-1.4449501,9.15705,-0.2792625,0.5808,0.2303125
1692595821465,0.052950002,-2.14395,10.408951,-0.6777375,0.8162,0.73425
1692595821496,-0.35805002,-2.0340002,10.33695,-1.4931124,0.9554875,2.2242
1692595821520,-0.68295,-1.8600001,9.354,-1.779525,0.793925,2.9205
1692595821552,-1.26195,-1.8210001,11.59605,-1.9366875,0.5636125,3.3787875
1692595821581,-0.73095006,-1.8430501,11.85,-1.861475,0.2344375,3.516975
1692595821609,-0.564,-1.6320001,12.054001,-1.704175,0.1709125,3.339875
1692595821641,-1.014,-1.074,11.482051,-1.3267375,0.0847,2.732125
1692595821670,-0.97005004,-0.72,11.479051,-1.1284626,0.0221375,2.3496
1692595821699,-0.513,-0.90195006,12.970051,-0.6956125,-0.0279125,1.5101625
1692595821728,-0.67605,-0.29700002,12.43395,-0.3034625,-0.006875,0.69519997
1692595821755,-0.81705004,0.016050002,12.151951,-0.3034625,-0.006875,0.69519997
1692595821784,-1.23405,0.14505,11.833051,-0.04015,-0.0407,0.0466125
1692595821815,-0.88395005,0.20805001,11.809051,0.1920875,-0.00385,-0.404525
1692595821840,-1.0519501,0.25305,11.512951,0.280225,0.0391875,-0.5262125
1692595821869,-0.59205,0.46800002,12.432,0.334125,0.0748,-0.5808
1692595821900,-0.69795,0.117000006,11.826,0.3829375,0.07315,-0.6131125
1692595821928,0.22305001,-0.624,11.644051,0.3994375,0.035475,-0.6551875
1692595821958,0.20895001,-0.94995004,10.88805,0.3553,-0.05775,-0.72008747
1692595821986,-0.43695003,-1.302,12.616051,0.2608375,-0.117837496,-0.6683875
1692595822017,-0.52500004,-1.4430001,12.910951,-0.0105875,-0.2382875,-0.2875125
1692595822046,-0.51795,-1.48905,13.303051,-0.1368125,-0.2475,0.003025
1692595822075,-1.3300501,-1.05795,13.32495,-0.3037375,-0.176,0.440825
1692595822103,-1.473,-0.88095003,13.36305,-0.33715,-0.1274625,0.491425
1692595822133,-1.30095,-1.01205,12.604051,-0.3322,-0.0639375,0.4431625
1692595822162,-0.87000006,-1.66305,12.444,-0.2303125,0.104225,0.26125
1692595822191,-0.85305005,-1.9650002,12.085051,-0.1813625,0.16335,0.2255
1692595822222,0.11805001,-2.47005,11.623051,-0.198,0.1599125,0.3009875
1692595822251,-0.40995002,-2.4390001,10.95495,-0.3304125,0.0389125,0.4670875
1692595822278,-1.46595,-2.21895,11.503051,-0.4037,-0.0402875,0.5424375
1692595822304,-2.0670002,-1.7209501,11.529,-0.4665375,-0.1062875,0.594
1692595822333,-1.7220001,-1.6849501,10.519051,-0.4945875,-0.069299996,0.6034875
1692595822363,-1.1400001,-1.9219501,10.713,-0.4368375,0.0407,0.54285
1692595822390,-1.176,-1.9459502,9.745951,-0.2861375,0.2220625,0.3749625
1692595822418,-1.2390001,-0.76095,8.43,-0.2497,0.2297625,0.3392125
1692595822447,-0.88395005,0.21195,7.2379503,-0.2322375,0.201025,0.33673748
1692595822478,0.28995,1.1580001,7.1680503,-0.1010625,0.1695375,0.206525
1692595822505,-0.72405005,1.7490001,4.9420505,0.0716375,0.180125,-0.058025
1692595822536,-0.53505003,2.05305,5.2600503,0.6138,0.1496,-1.110175
1692595822564,2.9850001,0.15195,9.507001,0.918225,0.14739999,-1.7422625
1692595822595,1.5490501,0.43305,8.667001,1.31505,0.02475,-2.629275
1692595822624,-0.49695003,1.0360501,5.9670005,1.2562,-0.2825625,-2.5696
1692595822650,-0.53505003,0.88305,6.9910502,1.0580626,-0.6334625,-2.2188375
1692595822682,0.64695,0.076050006,9.69795,0.7261375,-0.7403,-1.6962
1692595822709,0.63705003,0.058950003,8.904,0.5218125,-0.3922875,-1.4612125
1692595822745,0.30705002,0.62595004,7.9890003,0.37015,-0.3284875,-1.170675
1692595822771,0.24705002,0.87495005,8.892,0.1225125,-0.3224375,-0.531025
1692595822798,0.156,0.97800004,9.87495,0.0988625,-0.29273748,-0.388575
1692595822825,0.11805001,0.69105005,9.30795,0.132275,-0.240625,-0.36685
1692595822854,-0.34305,1.4500501,7.9680004,0.22715,-0.1227875,-0.430925
1692595822883,0.58395004,0.90900004,10.299001,0.2539625,-0.069299996,-0.4621375
1692595822912,1.8079501,0.33705002,11.508,0.282975,-0.0185625,-0.51094997
1692595822943,0.90300006,0.753,10.62195,0.2932875,-0.0143,-0.4703875
1692595822970,-0.37005,1.6170001,9.471001,0.21175,-0.117837496,-0.2487375
1692595822996,-1.1380501,1.6699501,9.391951,0.045925,-0.3067625,0.120037496
1692595823027,-1.2390001,1.1890501,9.721951,0.0724625,-0.23539999,0.0165
1692595823057,-0.52005005,0.99300003,9.427951,0.231825,0.1618375,-0.447425
1692595823085,-0.513,1.09095,8.158951,0.2616625,0.341,-0.5432625
1692595823114,0.08895,1.0330501,8.34105,0.2035,0.45168748,-0.35901248
1692595823141,0.55095005,0.85095006,9.8560505,0.1703625,0.4085125,-0.2160125
1692595823169,-0.003,0.507,10.029,0.1252625,0.2360875,0.0589875
1692595823197,-1.116,0.744,9.27,0.0790625,0.130625,0.210925
1692595823226,-1.557,0.10005,9.85095,0.0132,0.05555,0.32835
1692595823251,-0.9990001,-0.50205004,11.053051,-0.053625,0.060225,0.3642375
1692595823281,-1.3099501,0.117000006,10.57695,-0.1923625,0.2930125,0.324775
1692595823309,-1.53795,1.0330501,9.162001,-0.292875,0.3972375,0.3876125
1692595823337,-0.97800004,1.2940501,8.99505,-0.3961375,0.4371125,0.45045
1692595823366,-0.14505,0.87495005,9.889951,-0.306625,0.429825,0.2871
1692595823395,0.192,0.837,9.717,-0.006875,0.348425,-0.0397375
1692595823423,-0.043950003,1.263,9.556951,0.0782375,0.229625,-0.0350625
1692595823453,-0.32895002,1.2270001,9.637951,0.1170125,-0.078099996,0.0655875
1692595823482,-0.23595001,0.79395,10.510051,0.1387375,-0.1827375,0.0334125
1692595823509,-0.28800002,0.64095,10.191001,0.1665125,-0.22605,-0.0317625
1692595823541,-0.29805002,0.76995003,9.910951,0.12815,-0.18933749,0.036025
1692595823567,-0.46305,0.96405005,9.757951,0.061325,-0.15785,0.14355
1692595823597,-0.79095006,1.30095,8.953951,0.003025,-0.1335125,0.2017125
1692595823626,-0.70500004,1.2250501,8.986951,-0.00935,-0.074525,0.12375
1692595823654,-0.49905002,1.0530001,9.612,0.1012,0.021175,-0.15785
1692595823682,-0.64305,1.2060001,9.45195,0.1522125,0.0528,-0.3075875
1692595823710,-0.96300006,1.5600001,8.77005,0.16995,0.0611875,-0.380875
1692595823739,-1.023,1.7160001,8.382,0.1551,0.0510125,-0.3587375
1692595823769,-0.77895004,1.7160001,8.425051,0.1793,0.0592625,-0.410575
1692595823799,-0.54195005,1.7730001,8.52795,0.29755,0.091025,-0.6637125
1692595823825,-0.432,1.96695,9.049951,0.346225,0.08965,-0.729025
1692595823851,-0.60705,2.079,9.564,0.3840375,0.0248875,-0.6609625
1692595823881,-0.87705004,2.3400002,8.32695,0.38541248,-0.0284625,-0.6059625
1692595823911,-0.56595004,2.319,8.01105,0.3848625,-0.0765875,-0.5836875
1692595823940,-0.21405001,2.0269501,8.949,0.4186875,-0.114675,-0.671
1692595823969,-0.51105005,2.1780002,8.88195,0.44907498,-0.120725,-0.7244875
1692595823995,-0.26205,2.2110002,8.599951,0.4279,-0.153725,-0.623975
1692595824023,-0.69495004,2.4190502,7.8430505,0.377025,-0.169675,-0.5148
1692595824052,-0.74505,2.391,7.5100503,0.318725,-0.18645,-0.4794625
1692595824081,-0.43005002,2.28795,8.455951,0.3293125,-0.17613749,-0.556875
1692595824105,0.132,2.01195,9.085951,0.35021248,-0.1483625,-0.6274125
1692595824140,-0.45795003,1.8739501,8.04705,0.3042875,-0.117975,-0.501325
1692595824169,-1.58595,1.07895,6.91905,0.217525,-0.1353,-0.3119875
1692595824195,-0.62595004,-0.15495001,8.652,0.0424875,-0.109725,-0.001925
1692595824223,1.4440501,-1.4959501,12.444,-0.0633875,-0.0077,0.1375
1692595824251,0.216,-1.7020501,8.6980505,-0.598125,0.2239875,1.038675
1692595824282,-1.0210501,-2.4120002,10.395,-1.0008625,0.2149125,1.8356249
1692595824310,-0.291,-2.6209502,12.774,-1.3409,0.14135,2.5408626
1692595824338,-0.171,-1.728,12.736051,-1.6792874,0.1073875,3.211175
1692595824370,-1.6860001,-0.12195001,8.290951,-1.728375,0.1016125,3.299725
1692595824392,-1.014,0.061950002,8.676001,-1.6735125,0.056649998,3.208975
1692595824424,0.63705003,-0.78495,10.357051,-1.177,0.0473,2.4783
1692595824453,-0.549,0.0,10.48305,-0.590975,0.099,1.6300625
1692595824483,-1.4610001,0.48795003,8.48205,-0.4191,0.0290125,1.3231624
1692595824513,-0.83595,-0.141,8.84895,-0.2891625,-0.037125,1.05985
1692595824541,0.441,-1.31895,11.27295,-0.012925,0.0638,0.5542625
1692595824573,-0.35505003,-0.93795,12.373951,0.0504625,0.12045,0.3355
1692595824602,-0.12795001,-0.86100006,11.338051,-0.034375,0.029975,0.3597
1692595824628,0.13905,-0.82095003,11.482051,-0.1172875,-0.066275,0.385
1692595824657,-0.09195001,-0.56505,11.653951,-0.1632125,-0.1318625,0.3441625
1692595824685,-0.72900003,-0.24405001,11.350051,-0.150425,-0.1381875,0.2971375
1692595824715,-0.20700002,-0.40905002,12.09,-0.07095,-0.111925,0.0732875
1692595824742,-0.043950003,-0.40695003,11.541,-0.0177375,-0.066275,-0.091575
1692595824771,-0.31005,-0.105000004,10.61505,0.02585,-0.0232375,-0.24145
1692595824801,-0.07305,0.15495001,10.83495,0.0708125,-0.0045375,-0.4026
1692595824833,-0.46095002,-0.036000002,10.893001,0.1238875,-0.0155375,-0.4252875
1692595824863,-0.34605002,-0.48795003,11.391001,0.160875,-0.013062499,-0.417175
1692595824896,0.34500003,-1.005,11.508,0.17105,0.0163625,-0.328075
1692595824924,0.453,-0.89505005,12.987,0.1186625,0.0251625,-0.2189
1692595824953,-0.40305,0.030000001,12.319051,-0.038775,-0.0405625,0.0367125
1692595824981,-0.34800002,0.0019500001,10.63395,-0.0867625,-0.0974875,0.0941875
1692595825010,0.18900001,-0.73200005,11.709001,-0.0842875,-0.1216875,0.072325
1692595825039,-0.01305,-1.5679501,13.818001,0.0042625,-0.06545,-0.0583
1692595825070,-0.015000001,-1.3879501,12.678,0.006325,-0.0565125,-0.042075
1692595825099,-0.22095,-1.182,11.7640505,-0.141075,-0.089375,0.2358125
1692595825127,-0.25995,-1.4809501,12.09405,-0.2182125,-0.086075,0.3980625
1692595825155,-0.46800002,-1.51005,12.799951,-0.2717,-0.0389125,0.53075
1692595825184,-0.22095,-1.86405,12.22395,-0.2740375,-0.0108624995,0.4855125
1692595825214,0.57000005,-2.736,12.826951,-0.2770625,0.034925,0.37895
1692595825240,0.25605002,-2.8150501,11.79705,-0.2987875,0.022824999,0.414975
1692595825274,-0.03195,-2.63295,10.07205,-0.4208875,-0.108625,0.644325
1692595825300,-0.55395,-2.3449502,10.5720005,-0.4838625,-0.1706375,0.7574875
1692595825329,-1.8610501,-0.87795,9.234,-0.5278625,-0.168575,0.87436247
1692595825358,-1.2529501,0.076050006,8.274,-0.4862,-0.086899996,0.8573125
1692595825388,-0.25005,0.72195005,7.8289504,-0.37675,0.0594,0.75405
1692595825416,-0.10605001,1.098,7.1800504,0.0331375,0.3716625,0.16005
1692595825447,0.65400004,1.6560001,7.7860503,0.2794,0.415525,-0.32175
1692595825482,1.63995,3.10905,7.0129504,0.726825,0.2811875,-1.3289375
1692595825509,0.37905002,3.1900501,6.0000005,0.92509997,0.1395625,-1.7692125
1692595825537,-2.12895,2.9839501,6.8239503,1.3123,-0.2550625,-2.4886124
1692595825568,-0.95595,1.6699501,8.961,1.485825,-0.36905,-2.738175
1692595825599,0.61305004,0.54300004,8.02305,1.6099875,-0.1164625,-2.992825
1692595825626,0.29700002,0.84195006,7.8550506,1.46025,0.0642125,-2.836075
1692595825653,-0.71895003,2.19405,7.6660504,0.8045125,0.0477125,-1.7512
1692595825685,-0.98505,2.2399502,8.535001,0.54065,-0.0361625,-1.27435
1692595825712,-1.0710001,1.7080501,7.93905,0.4742375,-0.034649998,-1.17315
1692595825741,-0.89895004,1.4860501,8.27595,0.5357,0.0165,-1.3113375
1692595825770,0.28305,1.17495,10.14105,0.546975,0.0638,-1.3717
1692595825798,-0.54405004,1.21305,10.4740505,0.345125,0.082499996,-1.0604
1692595825828,-1.0690501,1.1410501,9.636001,0.1750375,0.0397375,-0.7090875
1692595825854,-1.1689501,1.041,9.471001,0.0132,-0.0089375,-0.348975
1692595825885,-0.50595003,0.58605003,9.849001,-0.170225,0.0149875,-0.0529375
1692595825913,-0.38595003,0.51600003,9.471001,-0.2316875,0.1153625,-0.108075
1692595825939,-0.21405001,0.777,9.01605,-0.280225,0.120725,-0.007425
1692595825965,-0.051000003,0.98805004,8.743051,-0.33605,0.095425,0.1728375
1692595825994,-0.42495003,1.3450501,8.595,-0.3377,-0.004675,0.3201
1692595826021,-0.10605001,1.074,9.849001,-0.2638625,-0.0603625,0.2190375
1692595826051,-0.06105,0.94200003,10.030951,-0.168575,-0.10175,0.0796125
1692595826079,-0.26700002,1.1530501,8.63805,-0.045375,-0.14533749,-0.059675
1692595826106,-0.13305001,0.97395,8.50395,-0.0438625,-0.160875,-0.0034375
1692595826137,-0.20505,0.96405005,9.38895,-0.0468875,-0.1428625,0.1197625
1692595826164,0.096,0.87495005,9.765,-0.032175,-0.11495,0.122375
1692595826193,0.41895002,0.93000007,9.61695,-0.0364375,-0.087725,0.1408
1692595826223,0.177,1.12695,9.47295,-0.054175,-0.100925,0.1832875
1692595826250,-0.003,1.0860001,10.12905,-0.0664125,-0.1326875,0.2267375
1692595826281,-0.18795002,1.182,9.63405,-0.050325,-0.1793,0.2399375
1692595826310,-0.51105005,1.33305,8.52795,-0.0086624995,-0.1263625,0.135575
1692595826336,0.57000005,0.85605,9.93795,0.0176,-0.0787875,0.0138875
1692595826364,1.1590501,0.70305,11.644051,0.044,-0.0347875,-0.1211375
1692595826394,0.273,1.54305,9.624001,0.0182875,-0.0730125,-0.1131625
1692595826418,-0.24300002,1.9720501,8.856,-0.0358875,-0.1604625,0.028875
1692595826447,0.30405003,1.7850001,9.27,-0.059125,-0.2300375,0.105875
1692595826477,0.59400004,1.6200001,9.889951,0.0807125,-0.21285,-0.1736625
1692595826506,0.97200006,1.4830501,10.048051,0.1736625,-0.18287499,-0.3674
1692595826532,0.22305001,1.8970501,8.899051,0.225775,-0.20515,-0.3845875
1692595826561,-0.10395,2.05095,8.401051,0.20515,-0.229625,-0.25575
1692595826590,-0.09,1.77495,8.2879505,0.1975875,-0.2248125,-0.162525
1692595826619,0.036000002,1.5259501,8.446051,0.2613875,-0.1148125,-0.28393748
1692595826647,0.051000003,1.371,8.35995,0.2847625,-0.054175,-0.40507498
1692595826672,-0.24000001,1.8229501,7.9680004,0.2255,0.0165,-0.4266625
1692595826704,-0.15900001,2.2009501,7.7550006,0.170775,0.0356125,-0.3537875
1692595826730,-0.19305001,2.49105,7.6159506,0.1401125,0.05995,-0.339625
1692595826760,-0.50595003,2.8639503,7.6039505,0.1931875,0.0545875,-0.4541625
1692595826787,-0.68595004,3.2070003,8.253,0.2831125,0.0341,-0.627275
1692595826813,0.55095005,3.3460503,7.1629505,0.49981248,-5.5E-4,-1.0192875
1692595826843,1.89795,2.46,8.877001,0.6017,-0.018424999,-1.1688875
1692595826871,2.2120502,1.7230501,9.70995,0.67485,-0.0776875,-1.18525
1692595826900,1.8000001,0.63405,9.19095,0.5863,-0.3441625,-0.521675
1692595826928,2.4060001,-1.21305,9.66495,0.3887125,-0.46585,0.062425
1692595826956,-1.014,-1.01505,8.66895,-0.190025,-0.498575,1.2555125
1692595826986,-3.039,0.058950003,8.755051,-0.506825,-0.407825,1.8022125
1692595827014,0.096,-1.71405,10.653001,-0.9579625,0.12705,2.2551374
1692595827049,0.62295,-1.9290001,10.227,-1.0371625,0.5377625,2.1283624
1692595827075,-0.102000006,-0.94500005,9.688951,-1.1482625,0.8452125,2.2595375
1692595827103,-0.46095002,-1.01505,10.384951,-1.2106875,0.6692125,2.5135
1692595827130,-0.43005002,-1.6350001,10.5720005,-1.0932626,0.366025,2.4231625
1692595827161,-0.91095006,-1.8259501,10.38,-0.9508125,0.338525,2.1571
1692595827189,-0.95895004,-1.7230501,9.741,-0.83765,0.33935,1.9404
1692595827217,-0.77205,-2.214,11.75205,-0.7530875,0.34485,1.7797999
1692595827247,-0.74805003,-2.2450502,12.508051,-0.7390625,0.3449875,1.7711375
1692595827274,-0.82695,-1.9150501,11.89305,-0.7060625,0.2817375,1.7466625
1692595827305,-0.453,-1.4790001,12.307051,-0.671,0.2270125,1.6335
1692595827334,0.108,-1.5270001,12.978001,-0.602525,0.183975,1.39205
1692595827363,-0.20895001,-1.21095,13.84605,-0.3669875,0.115225,0.65835
1692595827393,-0.279,-1.074,13.227,-0.1252625,0.00715,0.054175
1692595827422,-0.906,-0.30405003,10.705951,-0.0281875,-0.0259875,-0.132825
1692595827451,-0.34305,-0.27,9.70995,0.0559625,-0.02585,-0.28187498
1692595827480,-0.78405005,-0.162,11.529,0.2013,0.064625,-0.5042125
1692595827509,-0.702,-0.34905002,11.7949505,0.302775,0.1225125,-0.596475
1692595827539,-1.0020001,-0.78705,10.416,0.322575,0.1291125,-0.6260375
1692595827569,-1.2100501,-0.25095,10.210951,0.319275,0.149875,-0.656425
1692595827596,-1.2940501,-0.42795002,10.984051,0.271975,0.223575,-0.727925
1692595827622,-0.67095006,-1.02405,11.69505,0.2512125,0.2564375,-0.7062
1692595827650,-0.60705,-1.314,12.304951,0.23045,0.2739,-0.61325
1692595827677,-0.669,-1.6510501,13.006051,0.125675,0.2165625,-0.40205
1692595827707,-0.45105,-1.5340501,11.71395,0.037675,0.1491875,-0.3312375
1692595827737,0.35205,-1.21095,12.489,-0.055,0.0757625,-0.2396625
1692595827763,-0.52500004,-1.07895,13.67895,-0.183975,-0.0884125,0.001925
1692595827795,-1.2859501,-0.82800007,13.32495,-0.1720125,-0.246675,0.08195
1692595827825,-1.1400001,-0.648,11.343,-0.121,-0.243925,0.044
1692595827852,-0.61395,-0.81795,11.53695,-0.0584375,-0.1648625,0.0031625
1692595827882,0.043050002,-1.6699501,11.68305,0.0433125,0.0385,0.0191125
1692595827911,0.24900001,-2.1370502,11.142,0.051425,0.0647625,0.080575
1692595827941,-0.75495005,-2.12805,10.309051,-0.0724625,-0.0584375,0.32175
1692595827974,-1.3270501,-1.9939501,10.696051,-0.27981248,-0.18727499,0.6230125
1692595828004,0.88605005,-2.74305,11.137051,-0.3531,-0.163075,0.738925
1692595828032,-2.1360002,-0.67695004,10.395,-0.4043875,-0.105875,0.83393747
1692595828061,-4.01805,0.60705,7.8739505,-0.4731375,-0.0570625,0.91025
1692595828090,-2.18895,-0.8880001,7.5799503,-0.194425,0.293425,0.427075
1692595828117,-0.303,-1.4290501,8.856,0.0677875,0.627275,0.0501875
1692595828152,1.10895,-0.41895002,10.455001,0.24695,0.85855,-0.21573749
1692595828177,0.34500003,1.28205,8.841001,0.22275,0.57035,-0.410025
1692595828204,-0.36,1.9759501,7.0009503,0.23333749,0.20899999,-0.6549125
1692595828241,-1.023,1.81095,8.21205,0.6351125,-0.20405,-1.6325375
1692595828266,-2.3040001,2.4070501,10.10505,0.9086,-0.20405,-2.15435
1692595828294,-1.3300501,1.7490001,7.5460505,1.3055625,-0.0268125,-2.918575
1692595828322,0.97695005,1.1029501,5.2720504,1.40525,0.093637496,-3.1029625
1692595828350,1.9770001,0.57600003,5.2600503,1.4212,0.182325,-3.0980124
1692595828381,1.5630001,-0.09105001,7.8289504,1.1680624,-0.0133375,-2.327875
1692595828409,0.22995001,0.052050002,9.603001,0.92716247,-0.311025,-1.6319875
1692595828441,-0.62595004,0.78405005,7.73295,0.3540625,-0.81235,-0.2695
1692595828467,-0.26205,1.04295,7.4290504,0.117975,-0.8069875,0.1216875
1692595828498,1.3480501,1.2270001,9.406051,-0.0402875,-0.40205,0.1860375
1692595828527,2.3770502,1.08105,10.62705,0.018975,-0.238975,0.063525
1692595828558,0.71400005,1.6369501,9.40905,0.158675,-0.36905,0.0433125
1692595828587,0.10305001,1.797,8.134951,0.1871375,-0.5567375,0.1211375
1692595828610,0.85005003,1.2750001,8.67105,0.2140875,-0.6557375,0.124025
1692595828637,1.197,0.96195006,10.066951,0.2982375,-0.4543,-0.17173749
1692595828662,1.0009501,1.11,10.383,0.309375,-0.319275,-0.2759625
1692595828692,0.28500003,1.50705,10.155001,0.2003375,-0.223025,-0.098037496
1692595828716,-0.094050005,1.5700501,9.691051,0.132825,-0.19167499,0.0246125
1692595828744,0.35895002,1.146,8.475,0.0946,-0.130075,0.0518375
1692595828776,0.50505,0.97800004,8.76,0.093637496,0.04455,-0.0864875
1692595828804,0.30405003,0.89895004,10.309051,0.0930875,0.104775,-0.0933625
1692595828829,0.24000001,0.93495005,11.23995,0.072875,0.132275,-0.0122375
1692595828858,0.26805001,1.215,9.777,-0.0198,0.152625,0.1948375
1692595828884,0.21795002,1.27995,8.86995,-0.066825,0.1615625,0.22013749
1692595828916,0.010050001,1.11,9.018001,-0.0809875,0.1535875,0.093775
1692595828945,0.097950004,0.93795,9.942,-0.0460625,0.1381875,-0.0336875
1692595828975,0.735,0.102000006,10.91205,-8.25E-4,0.1291125,-0.1947
1692595829001,0.65895003,-0.0019500001,10.76805,-0.032725,0.1342,-0.0961125
1692595829029,0.0049500004,0.41295,10.110001,-0.1106875,0.1227875,0.1329625
1692595829057,-0.95400006,0.74595004,9.79395,-0.2957625,0.0633875,0.609675
1692595829085,-1.179,0.69600004,9.504001,-0.3246375,0.0749375,0.6908
1692595829116,-0.504,0.39900002,9.69795,-0.23595,0.259325,0.52305
1692595829143,-0.11595,0.33,9.315001,-0.17655,0.3738625,0.380325
1692595829171,-0.31500003,0.74895006,7.96995,-0.1335125,0.42955,0.27307498
1692595829201,-0.75000006,1.39995,7.6090503,-0.136675,0.368225,0.3042875
1692595829236,0.039,2.046,9.045,-0.0534875,0.237325,0.20075
1692595829261,0.546,2.33295,9.736951,0.0683375,0.1959375,-0.023375
1692595829294,-0.29295,2.4409502,10.692,0.384725,0.0556875,-0.5044875
1692595829321,-1.3750501,2.1079502,10.737,0.506275,-0.0507375,-0.5930375
1692595829348,-1.1719501,1.5340501,10.26795,0.572275,-0.1175625,-0.62796247
1692595829377,-0.60195005,1.371,8.932051,0.5291,-0.00275,-0.725725
1692595829406,-0.61095005,1.86405,8.142,0.43821248,0.109175,-0.6942375
1692595829436,-1.11405,2.352,7.82595,0.2696375,0.19415,-0.503525
1692595829464,-1.2580501,2.7180002,8.181001,0.2605625,0.1742125,-0.50888747
1692595829492,-0.94395006,2.6179502,8.67105,0.407825,0.153725,-0.7877375
1692595829524,-0.67800003,2.86695,8.290951,0.507925,0.154825,-0.9461375
1692595829553,-0.32700002,2.90295,8.500951,0.623975,0.0847,-1.0624624
1692595829581,-0.39795002,2.87895,8.391001,0.639925,0.0070125,-1.032075
1692595829610,-0.30495003,2.80905,7.2060003,0.6202625,-0.1478125,-0.8232125
1692595829638,0.22305001,2.8909502,7.3960505,0.59455,-0.19415,-0.67595
1692595829667,0.984,3.111,9.27495,0.5729625,-0.22453749,-0.5632
1692595829695,-1.2030001,3.1060503,7.6540504,0.52525,-0.314325,-0.3320625
1692595829723,-1.9470001,3.2209501,3.1950002,0.4838625,-0.3625875,-0.163625
1692595829752,-0.46095002,2.505,4.24305,0.51094997,-0.2365,-0.28985
1692595829780,1.14705,-0.45000002,10.371,0.6590375,-0.095699996,-0.67347497
1692595829807,0.27795002,-2.2090502,15.028951,0.7860875,0.0125124995,-0.928675
1692595829838,-1.12605,-2.7450001,10.94505,-0.1731125,0.3213375,0.6435
1692595829861,-0.86295,-3.042,11.11995,-1.20285,0.562925,2.2801626
1692595829891,0.08895,-2.05095,12.931951,-2.539625,0.7995625,4.5101376
1692595829922,-1.1209501,-0.41895002,8.679001,-2.6983,0.718575,4.8219876
1692595829948,-1.45395,0.67200005,7.2619505,-2.3079374,0.3509,4.231975
1692595829979,-1.15005,0.069000006,10.17195,-1.860925,0.263725,3.4947
1692595830004,-1.66005,-0.10005,11.067,-1.3567125,0.2748625,2.6648874
1692595830033,-1.1520001,-0.65295005,11.503051,-0.5504125,0.3444375,1.3404875
1692595830061,0.08895,-1.302,12.1060505,-0.3504875,0.3436125,0.9956375
1692595830086,-0.24000001,-1.28295,12.127951,-0.2740375,0.3157,0.8270625
1692595830116,-0.90300006,-0.39705002,12.159,-0.3377,0.1095875,0.739475
1692595830138,-1.7029501,0.049950004,12.118051,-0.384175,-0.0215875,0.6749875
1692595830170,-1.9470001,-0.30795002,11.809051,-0.36905,-0.0873125,0.5251125
1692595830196,-1.2030001,-0.67200005,11.920051,-0.1551,0.0400125,0.089237496
1692595830227,-0.84105,-0.55305004,12.288,-0.0556875,0.1508375,-0.0598125
1692595830254,-0.9799501,-0.32505003,12.1369505,-0.0105875,0.20185,-0.1101375
1692595830284,-0.61395,-0.06705,11.62005,-0.0149875,0.143825,-0.1007875
1692595830309,-1.14495,0.112050004,10.816051,-0.0055,0.078099996,-0.1188
1692595830338,-0.59895,-0.39000002,11.04405,0.0539,-0.0059125,-0.233475
1692595830363,0.13695,-0.75600004,12.738001,0.09735,-0.011,-0.3172125
1692595830392,-0.19500001,-0.56505,13.50195,0.13145,-0.001925,-0.3892625
1692595830418,-1.64505,-0.71295005,11.44995,0.089375,-0.061049998,-0.3718
1692595830448,-0.11400001,-1.08405,11.47395,0.03025,-0.114675,-0.2717
1692595830476,-0.22395001,-1.539,12.352951,-0.073699996,-0.08635,0.0078375
1692595830508,-0.54705,-1.3260001,13.23795,-0.129525,-0.06985,0.1408
1692595830538,0.0,-1.86705,11.88405,-0.24447499,-0.15895,0.3551625
1692595830565,-0.38895002,-1.9390501,14.127001,-0.2842125,-0.1931875,0.4368375
1692595830591,-0.95400006,-1.4100001,13.626,-0.31845,-0.208175,0.4978875
1692595830621,-1.5160501,-1.24905,11.93595,-0.3806,-0.2209625,0.55439997
1692595830652,-1.11195,-2.02005,12.51105,-0.3289,-0.1035375,0.504625
1692595830679,-1.3800001,-1.7809501,12.147,-0.2836625,-0.010175,0.48235
1692595830711,-2.18895,-1.7299501,10.917001,-0.2685375,0.112475,0.4899125
1692595830742,-0.85305005,-3.35595,11.661,-0.2690875,0.145475,0.4582875
1692595830769,-0.28605002,-3.28905,10.81095,-0.2682625,0.171325,0.4156625
1692595830797,-0.312,-2.5110002,7.73295,-0.4027375,0.125675,0.5531625
1692595830830,-2.3830502,-1.31895,6.07905,-0.527725,0.0287375,0.70015
1692595830859,-3.6150002,1.50705,4.7719502,-0.647075,-0.104225,0.78815
1692595830884,1.5949501,3.18,5.3440504,-0.5850625,-0.0125124995,0.7349375
1692595830912,5.0340004,3.2260501,8.403001,0.0554125,0.4217125,0.0603625
1692595830941,4.11705,3.2760003,9.31305,0.6791125,0.4104375,-0.920425
1692595830973,-1.4800501,1.77795,6.4500003,1.3171124,-0.01045,-2.164525
1692595830994,-3.0190501,1.6030501,8.985001,1.870275,-1.213575,-3.5008874
1692595831028,-1.06605,0.63105005,12.42195,1.7782875,-1.2111,-3.4571624
1692595831056,-0.95100003,1.0360501,9.588,1.2777874,-0.2154625,-3.0168874
1692595831086,-0.44400004,1.17495,9.00405,0.9879375,5.5E-4,-2.7141125
1692595831113,0.38805002,0.48795003,10.1650505,0.54505,0.1348875,-2.0882125
1692595831144,0.29505002,0.6,10.420951,0.42941248,0.125675,-1.85515
1692595831173,-0.34095,0.93000007,9.141001,0.328625,0.04675,-1.582075
1692595831208,-1.18095,1.39995,5.8710003,0.1005125,-0.15895,-0.861025
1692595831237,0.76905006,0.27195,11.07705,0.0633875,-0.1450625,-0.5124625
1692595831265,0.16605,0.75105006,11.27805,0.100925,-0.08965,-0.4533375
1692595831293,-0.79605,1.54305,9.373051,0.01375,-0.129525,-0.01155
1692595831322,-1.0519501,1.6650001,8.691,-0.058849998,-0.17379999,0.2101
1692595831351,-1.5520501,1.4310001,9.00405,0.043175,-0.0528,-0.0048125
1692595831380,-0.89595,0.84900004,8.619,0.16445,0.0738375,-0.2949375
1692595831410,-0.15900001,0.63405,8.08695,0.2816,0.28875,-0.667425
1692595831438,0.25395,0.82005006,7.0150504,0.238975,0.3221625,-0.6359375
1692595831467,-0.15195,0.837,6.7920003,0.15015,0.2809125,-0.450725
1692595831498,-0.33900002,0.531,9.733951,0.0044,0.0713625,0.0526625
1692595831524,0.216,0.46095002,10.713,-0.0169125,-0.01155,0.21615
1692595831553,0.28800002,1.3759501,9.588,-0.042075,-0.0583,0.341275
1692595831582,-0.042000003,2.17995,8.217,-0.1392875,-0.1357125,0.539
1692595831618,0.13005,2.08905,10.186951,-8.25E-4,-0.233475,0.2275625
1692595831643,-0.147,2.1030002,9.721951,0.1695375,-0.2541,-0.0873125
1692595831671,-0.40800002,2.1780002,9.670051,0.3227125,-0.256025,-0.3438875
1692595831700,0.14205001,1.6030501,9.801001,0.4456375,-0.21505,-0.540375
1692595831728,0.34305,1.131,10.12395,0.4390375,-0.173525,-0.557975
1692595831755,0.22800002,0.96195006,10.030951,0.313225,-0.1111,-0.41854998
1692595831786,-0.075,1.07895,9.784051,0.1892,-0.1060125,-0.240625
1692595831815,-0.58500004,1.6009501,9.361051,-0.062425,-0.0972125,0.0754875
1692595831844,-0.06105,1.4260501,10.02105,-0.124437496,-0.0697125,0.1034
1692595831872,0.34005,1.23195,10.182,-0.0952875,0.0045375,-0.08305
1692595831902,-0.030000001,1.6320001,9.16395,-0.0620125,0.01595,-0.143
1692595831932,-0.29805002,2.0050502,8.63805,-0.0407,-0.031625,-0.0496375
1692595831960,0.177,1.8780001,8.475,-0.010175,-0.052249998,-0.0383625
1692595831988,0.513,1.6840501,8.83695,0.054175,-0.055825,-0.104637496
1692595832019,-0.231,2.13,9.15705,0.19415,-0.078099996,-0.2514875
1692595832048,-0.54,2.424,8.169001,0.2220625,-0.1079375,-0.2330625
1692595832077,-0.094050005,1.6680001,8.037001,0.25465,-0.0875875,-0.193875
1692595832106,0.35505003,0.624,8.962951,0.2882,-0.026675,-0.2366375
1692595832141,0.10305001,1.572,8.31705,0.2360875,0.0528,-0.1408
1692595832157,-0.34095,2.01705,8.51595,0.1067,0.0345125,0.0715
1692595832193,-0.31500003,2.77395,7.5730505,-0.0264,-0.009625,0.253
1692595832221,0.59595,3.7140002,8.602051,-0.0169125,-0.081675,0.0226875
1692595832252,0.36195,3.8749502,9.82005,0.1502875,-0.1109625,-0.3089625
1692595832279,0.85695004,2.9940002,10.12695,0.568975,-0.23539999,-0.759825
1692595832309,0.675,1.8690001,9.32205,0.6898375,-0.2987875,-0.79254997
1692595832337,1.0699501,1.04295,9.49005,0.6974,-0.3309625,-0.7269625
1692595832365,1.1400001,-0.85395,8.82195,0.402325,-0.30153748,-0.2937
1692595832396,-2.6479502,-0.024,5.8560004,-0.154,-0.18095,0.5339125
1692595832425,-2.565,-0.15300001,7.9960504,-0.4420625,-0.064899996,0.9293625
1692595832453,-0.44595003,-2.19495,10.189051,-0.6661875,0.140525,1.159125
1692595832483,-0.78900003,-2.331,9.98295,-0.9466875,0.75845,1.298825
1692595832517,-1.1020501,-1.8090001,8.944051,-1.3825625,0.9389875,2.206325
1692595832542,-0.135,-2.35305,10.9789505,-1.574925,0.8229375,2.750275
1692595832571,-0.30495003,-2.3170502,11.26395,-1.6476625,0.6912125,3.0718875
1692595832599,-1.014,-1.6699501,9.14295,-1.5511374,0.4041125,3.2019625
1692595832628,-0.33105,-1.9150501,9.688951,-1.4507625,0.23485,3.0899
1692595832657,-0.15195,-2.14905,11.781,-1.156925,0.0433125,2.558325
1692595832694,0.29700002,-1.9219501,12.183001,-0.8734,-0.067375,1.9738125
1692595832722,0.30405003,-1.4860501,11.403001,-0.7580375,-0.15455,1.6878124
1692595832752,-0.07305,-0.35895002,11.71605,-0.63525,-0.2322375,1.362625
1692595832779,0.21300001,0.12105001,11.380951,-0.316525,-0.278025,0.5732375
1692595832809,0.031050002,0.08295,11.989051,-0.1131625,-0.2391125,0.14245
1692595832840,-1.2409501,-0.08595,12.835951,0.2803625,-0.121825,-0.5935875
1692595832870,-1.11195,-0.61005,13.128,0.4085125,-0.0680625,-0.82225
1692595832897,-0.657,-0.933,11.68305,0.47795,0.0908875,-0.9928875
1692595832925,-0.063,-1.08405,11.395051,0.4222625,0.17435,-0.9200125
1692595832953,-0.513,-0.79695004,11.26395,0.32285,0.2135375,-0.7447
1692595832983,-1.21695,-0.22695,10.1650505,0.111375,0.14135,-0.293975
1692595833014,-1.44,0.081,10.026,0.0540375,0.102437496,-0.13585
1692595833040,-1.0159501,-0.31605002,9.8869505,0.0856625,0.18095,-0.115225
1692595833070,-0.94695,-0.56505,11.170051,0.1843875,0.313225,-0.1758625
1692595833097,-1.5619501,-0.16995001,10.929001,0.1909875,0.3152875,-0.115637496
1692595833126,-0.22800002,-0.32505003,12.769051,0.1684375,0.2781625,-0.0460625
1692595833157,0.28305,-0.56205004,12.649951,0.12265,0.1892,-0.065725
1692595833187,-0.32700002,-0.112050004,11.967001,0.1183875,0.119625,-0.132
1692595833215,-0.30705002,-0.109950006,11.686951,0.117425,-0.103125,-0.202125
1692595833245,-0.006,-1.16805,13.645051,0.120175,-0.1747625,-0.2047375
1692595833275,-0.010950001,-1.51995,13.854001,0.088,-0.19607499,-0.0842875
1692595833301,-0.50895,-1.5340501,13.095,0.01375,-0.203775,0.0570625
1692595833335,-1.284,-1.2610501,11.841001,-0.1890625,-0.2080375,0.3249125
1692595833361,-1.248,-1.194,12.054001,-0.2547875,-0.1546875,0.3949
1692595833392,-0.72195005,-1.8790501,12.994051,-0.2828375,-0.0631125,0.4329875
1692595833421,-1.00605,-2.118,12.472951,-0.2762375,0.10395,0.4940375
1692595833450,-1.21905,-1.8930001,11.467051,-0.2861375,0.1227875,0.5537125
1692595833478,-1.353,-1.8259501,10.396951,-0.36355,0.0771375,0.699875
1692595833506,-1.62195,-1.8790501,10.227,-0.3909125,0.0774125,0.7084
1692595833536,-1.6380001,-1.9890001,10.44705,-0.386925,0.1486375,0.5663625
1692595833564,-1.5090001,-1.2760501,9.16695,-0.3735875,0.19195,0.4786375
1692595833594,-0.95100003,0.16905001,5.8279505,-0.3271125,0.252725,0.374825
1692595833621,0.10305001,0.46395,3.7050002,-0.262075,0.26427498,0.2965875
1692595833652,1.6330501,0.52605003,8.370001,0.0213125,0.256025,-0.155925
1692595833680,1.743,0.88500005,10.663051,0.2057,0.1843875,-0.4888125
1692595833707,-2.0740502,2.151,10.31295,0.388575,0.014575,-0.8405375
1692595833738,-3.65895,3.08505,7.39305,0.7481375,-0.3603875,-1.5797375
1692595833767,-0.70005006,1.9930501,5.6719503,0.9590625,-0.2734875,-2.0180874
1692595833796,1.5589501,0.99000007,6.5719504,1.4535125,0.3573625,-3.0336626
1692595833825,0.89805007,1.55295,7.1710505,1.590875,0.4846875,-3.249675
1692595833858,0.28800002,1.644,7.9099503,1.3261875,-0.0122375,-2.3447876
1692595833887,0.60795003,0.92595005,7.965,1.100825,-0.33495,-1.7131125
1692595833915,0.16305001,1.12395,9.1050005,0.9365125,-0.5201625,-1.2765499
1692595833946,0.24900001,1.39005,8.406,0.6692125,-0.54821247,-0.71225
1692595833975,1.2040501,1.4430001,8.48505,0.3579125,-0.444675,-0.245025
1692595834008,0.95295006,1.7850001,9.109051,0.2270125,-0.42405,-0.07535
1692595834035,0.273,2.0629501,9.36795,0.2270125,-0.42405,-0.07535
1692595834064,-0.324,1.6459501,9.784051,0.228525,-0.5141125,0.030524999
1692595834093,-0.43695003,1.1839501,9.904051,0.2332,-0.4852375,0.0248875
1692595834122,-0.109050006,0.73200005,9.871051,0.1821875,-0.1995125,-0.1362625
1692595834149,0.027,0.56700003,9.271951,0.1054625,-0.034649998,-0.1659625
1692595834178,-0.006,0.40395,9.30795,-0.11055,0.1431375,0.0023375
1692595834208,0.15795001,0.20295002,9.559051,-0.2080375,0.15619999,0.1183875
1692595834237,0.52695,0.049950004,10.1320505,-0.3411375,0.12925,0.2908125
1692595834265,-0.034950003,0.47595003,10.55805,-0.388025,0.104775,0.383075
1692595834293,-0.37695003,1.2420001,9.901951,-0.4455,0.0221375,0.5581125
1692595834323,-0.28395,1.5000001,9.588,-0.4241875,0.0011,0.5346
1692595834352,-0.45105,1.6560001,9.28695,-0.3436125,0.01815,0.3884375
1692595834386,-0.56595004,1.3249501,8.54205,-0.0584375,0.0908875,-0.109725
1692595834415,-0.23805001,0.64305,9.315001,0.1755875,0.13653749,-0.47795
1692595834443,0.39795002,0.16005,10.026,0.22385,0.1612875,-0.5247
1692595834471,0.21300001,0.231,10.27005,0.2101,0.1744875,-0.451
1692595834501,-0.42495003,0.59505004,9.435,-5.5E-4,0.105325,0.0094875
1692595834534,-0.88905007,0.753,9.02295,-0.127325,0.0460625,0.2451625
1692595834562,-1.26495,0.81600004,9.064051,-0.2146375,0.0504625,0.41085
1692595834589,-1.27695,0.87105006,8.83395,-0.17985,0.126775,0.3553
1692595834615,-0.68295,0.92295,9.294001,-0.075625,0.3089625,0.06765
1692595834645,0.18195,1.3969501,9.435,-0.0287375,0.3658875,-0.0903375
1692595834675,-0.25995,2.3790002,9.258,0.053625,0.2905375,-0.1848
1692595834705,-1.0159501,2.7930002,9.31095,0.1166,0.1557875,-0.1645875
1692595834733,-0.762,2.1370502,9.828,0.3837625,-0.0804375,-0.480425
1692595834761,0.043050002,1.371,10.36095,0.5399625,-0.11,-0.7847125
1692595834793,0.59895,1.0170001,8.84595,0.6235625,-0.100237496,-0.9780375
1692595834821,-0.43905002,1.84695,8.02995,0.4323,-0.13145,-0.62095
1692595834849,-0.70695,2.364,7.6540504,0.2583625,-0.1874125,-0.2501125
1692595834876,-0.78405005,2.50305,8.18295,0.155925,-0.18727499,0.01705
1692595834905,-0.46500003,2.66805,8.269051,0.2440625,-0.117975,-0.14245
1692595834935,-0.28605002,2.7280502,8.17605,0.4635125,-0.018975,-0.5982625
1692595834965,-0.37005,2.9220002,8.004001,0.5333625,-0.019524999,-0.7403
1692595834993,-0.68295,3.24495,7.9939504,0.602525,-0.0774125,-0.7715125
1692595835031,-0.28800002,2.805,8.18805,0.6644,-0.1208625,-0.7788
1692595835059,0.40500003,1.69395,9.780001,0.68915,-0.135575,-0.82225
1692595835089,0.35700002,1.39995,9.399,0.65615,-0.1494625,-0.7909
1692595835117,-1.899,1.371,6.6439505,0.263175,-0.15455,-0.21573749
1692595835148,0.08205,0.25305,9.250951,-0.0034375,-0.1219625,0.14739999
1692595835176,1.26705,-0.60300004,11.014951,-0.3086875,0.13145,0.31033748
1692595835206,-1.4610001,-0.63600004,8.829,-0.45595,0.259875,0.4756125
1692595835236,-0.762,-1.3980001,10.57695,-0.9845,0.22055,1.7133875
1692595835269,1.4580001,-1.89495,12.02295,-1.3336124,0.31239998,2.4503875
1692595835299,0.18495001,-1.40505,10.48305,-1.4168,0.36519998,2.591325
1692595835328,-0.76005006,-1.17495,10.11705,-1.4628625,0.2563,2.709025
1692595835357,0.012,-1.43805,10.46895,-1.3594625,-0.1150875,2.6048
1692595835386,0.012,-1.6510501,11.182051,-1.221825,-0.154275,2.3898876
1692595835414,-0.11400001,-1.4959501,10.76805,-1.0773125,-0.122237496,2.1412876
1692595835445,0.096,-0.91200006,10.45005,-0.8512625,-0.073699996,1.645325
1692595835474,-0.00795,-0.72300005,10.074,-0.757075,-0.070125,1.4452626
1692595835503,0.39495003,-1.3260001,11.857051,-0.525525,-0.069025,1.10275
1692595835530,0.69195,-1.43595,11.998951,-0.3971,-0.075075,0.959475
1692595835558,0.21795002,-0.91200006,11.223001,-0.2426875,-0.132,0.8259625
1692595835585,-0.63495004,-0.33195,10.30395,-0.2176625,-0.172975,0.7821
1692595835616,-0.34800002,-0.58395004,11.125051,-0.120175,-0.151525,0.5204375
1692595835646,0.28005,-0.744,11.500951,-0.0342375,-0.0638,0.34375
1692595835671,0.15105,-0.61200005,10.83495,0.0878625,0.0902,0.0858
1692595835704,-0.19005,-0.21000001,10.75905,0.1010625,0.0842875,-0.010175
1692595835732,0.12195001,-0.177,11.0119505,0.106837496,0.018424999,-0.1848
1692595835761,-0.043950003,-0.18900001,10.9140005,0.12925,0.0221375,-0.293425
1692595835789,0.06705,-0.33495003,11.568001,0.160875,0.0364375,-0.41745
1692595835818,-0.075,-0.093,12.310051,0.19813749,0.026675,-0.5509625
1692595835849,-0.27405003,0.59505004,11.224951,0.193875,0.0116875,-0.5548125
1692595835878,0.22995001,0.64605004,12.43395,0.2035,0.0279125,-0.579425
1692595835906,-0.010950001,0.351,12.561001,0.2376,0.0537625,-0.6301625
1692595835933,-0.34305,-0.021000002,11.527051,0.3278,0.0488125,-0.7140375
1692595835965,0.097950004,-0.49305,11.908051,0.330825,0.02805,-0.67155
1692595835993,0.49095002,-0.897,13.159051,0.292875,0.0246125,-0.5633375
1692595836022,0.16095,-0.957,12.678,0.135025,0.029975,-0.2085875
1692595836050,1.164,-1.065,11.56095,-0.0735625,-0.0424875,0.2629
1692595836079,0.72105,-1.0819501,12.448951,-0.1566125,-0.1016125,0.4450875
1692595836108,0.41700003,-1.2250501,13.642951,-0.21285,-0.1645875,0.5531625
1692595836138,-0.16605,-1.3279501,12.304951,-0.26221249,-0.24695,0.5853375
1692595836167,-0.702,-1.11,11.508,-0.267025,-0.23595,0.536525
1692595836195,-0.54405004,-1.0309501,10.486051,-0.2660625,-0.098725,0.43821248
1692595836225,0.65595,-2.13,11.053051,-0.257675,0.0015125,0.433675
1692595836253,0.56805,-2.59395,11.091001,-0.2561625,0.1172875,0.5377625
1692595836282,-0.40800002,-2.46495,10.02105,-0.3064875,0.0664125,0.64185
1692595836309,-0.50895,-2.391,9.42105,-0.388575,-0.031075,0.7665625
1692595836343,-0.35505003,-1.7659501,8.2879505,-0.5223625,-0.107525,1.0333124
1692595836374,0.40500003,-0.76995003,7.0150504,-0.51645,-0.02255,1.1413875
1692595836403,-0.05595,0.43500003,5.979,-0.4543,0.0064625,1.0274
1692595836432,-0.41505003,1.0530001,8.986951,-0.1969,0.0185625,0.4129125
1692595836461,-0.28395,1.57395,10.372951,0.0149875,0.0471625,-0.0430375
1692595836493,1.60905,3.3030002,6.603,0.57475,0.2068,-1.1583
1692595836520,1.2790501,3.2359502,6.6510005,0.8674875,0.237875,-1.7942375
1692595836551,-0.74295,2.88105,8.628,1.1495,0.15345,-2.4550624
1692595836578,-1.1400001,1.914,10.231951,1.5802875,-0.22893749,-3.4200375
1692595836608,-1.026,1.19895,8.3869505,1.633225,-0.29205,-3.523025
1692595836636,-1.2409501,1.11705,6.9930005,1.5375249,-0.1956625,-3.3878624
1692595836667,-1.38495,0.91395,6.6540003,1.0247875,0.088,-2.6703875
1692595836696,0.112950005,0.492,9.933001,0.5467,0.3257375,-1.8244874
1692595836723,-0.21900001,1.2220501,10.693951,0.382525,0.407825,-1.41075
1692595836752,-1.365,2.673,8.748,0.0446875,0.3443,-0.532125
1692595836783,-2.253,2.9170501,9.0379505,-0.0517,0.21779999,-0.2745875
1692595836813,-1.9950001,1.70595,11.002951,0.1991,0.136675,-0.7123875
1692595836839,-0.777,0.73695004,10.684051,0.4082375,0.202675,-1.1422125
1692595836869,-0.06105,0.66,8.740951,0.4932125,0.27445,-1.3629
1692595836899,0.25605002,0.423,8.158951,0.1926375,0.25135,-0.86625
1692595836926,0.097950004,0.28395,8.559,-0.0297,0.143,-0.379775
1692595836957,0.01695,0.351,8.904,-0.2033625,0.0125124995,0.088825
1692595836985,-0.25500003,0.6,8.974951,-0.4005375,-0.061875,0.77288747
1692595837016,-0.85305005,1.0000501,9.33195,-0.4610375,-0.1560625,1.078275
1692595837044,-1.24605,1.31295,9.684,-0.432575,-0.148225,1.0500875
1692595837073,-1.3219501,1.42095,9.993,-0.2517625,-0.0242,0.6199875
1692595837102,-1.5190501,1.4310001,9.90705,-0.13213749,0.067375,0.33055
1692595837132,-1.33395,1.24395,9.98595,-0.0218625,0.1483625,0.0598125
1692595837160,-0.81495005,0.88500005,10.12395,0.117425,0.2391125,-0.284625
1692595837188,-0.549,0.60495,10.387951,0.129525,0.251075,-0.2924625
1692595837219,-0.15405001,0.33195,10.242001,0.032725,0.19305,-0.03135
1692595837249,-0.64305,0.84705,9.47805,-0.058849998,0.119625,0.16225
1692595837277,-0.753,1.0639501,8.99505,-0.22247499,-0.047025,0.489775
1692595837305,-0.231,0.86595005,9.0379505,-0.2371875,-0.0911625,0.53075
1692595837332,0.252,0.63795,9.729,-0.1357125,-0.092675,0.366025
1692595837364,-0.003,0.94005007,9.424951,-0.0853875,-0.1065625,0.2932875
1692595837393,-0.98505,1.4950501,7.7239504,-0.0592625,-0.194975,0.31707498
1692595837421,-0.99000007,1.27995,8.236051,-0.0369875,-0.2146375,0.3007125
1692595837450,-0.022950001,0.74895006,9.64095,0.025575,-0.18287499,0.1791625
1692595837481,0.10095,0.85395,9.082951,0.1689875,-0.0347875,-0.1302125
1692595837508,0.38805002,1.2420001,9.31095,0.0906125,-0.0430375,0.054725
1692595837543,0.642,1.419,9.523951,0.03135,-0.117837496,0.15675
1692595837571,-0.49395,2.01495,9.247951,0.0169125,-0.1989625,0.13475
1692595837600,-1.27005,2.3449502,8.961,0.1062875,-0.3059375,-0.150425
1692595837630,-1.5880501,2.36205,9.0379505,0.1926375,-0.2897125,-0.360525
1692595837658,-0.88905007,1.797,8.743051,0.296175,-0.2057,-0.6120125
1692595837691,0.13005,1.23405,8.63805,0.46695,0.060225,-1.0800625
1692595837709,0.18,1.2750001,8.523001,0.477675,0.133375,-1.1570625
1692595837744,-0.22395001,1.5460501,9.37005,0.3078625,0.0427625,-0.8397125
1692595837774,-0.16395001,1.8900001,8.734051,0.113299996,-0.126775,-0.3938
1692595837804,-0.33900002,2.7180002,8.2879505,0.075625,-0.161425,-0.2993375
1692595837833,-0.28095,3.7690501,9.00195,0.08525,-0.1728375,-0.3007125
1692595837861,0.264,4.353,8.547,0.2971375,-0.193325,-0.5435375
1692595837890,0.273,3.9420002,8.358001,0.71389997,-0.2789875,-0.910525
1692595837919,0.82395005,2.90805,8.84595,0.89196247,-0.35901248,-1.0429375
1692595837947,-0.23295002,1.7659501,8.487,0.987525,-0.4316125,-1.07415
1692595837976,0.93600005,0.282,9.31995,0.787875,-0.4148375,-0.6524375
1692595838005,-0.58500004,-0.71295005,9.31995,0.494175,-0.3172125,-0.21945
1692595838033,-2.7250502,-0.9979501,9.448951,-0.28765,-0.0539,0.8064375
1692595838062,-1.8060001,-2.11605,11.071951,-0.675675,0.14245,1.1952875
1692595838093,-0.48495004,-2.424,9.238951,-1.2970375,0.7588625,1.7182
1692595838121,-0.846,-1.9050001,8.98305,-1.5618625,0.968825,2.1528375
1692595838150,-0.67800003,-1.8910501,9.92595,-1.8849875,0.8111125,3.08935
1692595838181,-0.52005005,-1.9789501,9.89505,-1.8634,0.6105,3.233725
1692595838215,-1.2910501,-1.6699501,10.07205,-1.602425,0.2806375,3.0522249
1692595838242,-1.8390001,-1.5319501,10.71105,-1.44485,0.1535875,2.8936875
1692595838270,-1.368,-1.7299501,11.314051,-1.286175,0.076175,2.71315
1692595838301,-0.777,-2.09205,12.042001,-0.9612625,0.100375,2.2697124
1692595838329,-0.86295,-1.7569501,11.488951,-0.818675,0.1109625,2.0235875
1692595838358,-0.62595004,-1.21305,12.0730505,-0.607475,0.00165,1.4730375
1692595838388,-0.32895002,-1.00695,12.003,-0.510125,-0.056925,1.1988626
1692595838417,-0.34305,-0.933,11.704051,-0.39421248,-0.0930875,0.932525
1692595838446,-0.33105,-0.85395,11.70705,-0.2567125,-0.1148125,0.637725
1692595838476,-0.63795,-0.25305,11.757001,0.0988625,-0.1461625,-0.26455
1692595838504,-0.97800004,-0.14805001,12.02295,0.1676125,-0.1414875,-0.429825
1692595838531,-0.82695,-0.124050006,11.6629505,0.230725,-0.1225125,-0.534875
1692595838562,-0.564,-0.35595003,11.6970005,0.3499375,-0.0386375,-0.6061
1692595838587,-0.75705004,0.282,10.488001,0.384175,0.00715,-0.5974375
1692595838616,-0.23595001,-0.036000002,11.802001,0.38541248,0.0578875,-0.5902875
1692595838646,0.381,-0.57195,12.7240505,0.373175,0.0592625,-0.58753747
1692595838677,-0.48000002,-0.53595,11.383051,0.32587498,-0.0273625,-0.5363875
1692595838705,-1.8900001,-0.53295004,12.468,0.26785,-0.10285,-0.4690125
1692595838734,-0.83400005,-1.7520001,14.65995,0.127325,-0.108899996,-0.32065
1692595838764,-0.75495005,-1.6870501,13.73595,0.064075,-0.0182875,-0.2633125
1692595838792,-1.61205,-0.9979501,12.49905,-0.10395,0.0925375,-0.0363
1692595838821,-2.1720002,-0.81105006,11.72805,-0.18205,0.0875875,0.0972125
1692595838853,-0.82695,-1.8550501,11.4529505,-0.2057,0.1593625,0.1859
1692595838877,-0.27405003,-2.4120002,12.247951,-0.180675,0.2325125,0.1706375
1692595838906,-1.31805,-2.11095,11.89305,-0.186175,0.2591875,0.1736625
1692595838935,-1.5520501,-2.0730002,11.347051,-0.2437875,0.20625,0.219175
1692595838966,-0.92700005,-2.66595,11.395051,-0.399025,0.0389125,0.3661625
1692595838993,-0.64695,-2.697,11.470051,-0.4543,0.034649998,0.4720375
1692595839023,-1.7700001,-1.845,11.13405,-0.4811125,0.02805,0.545325
1692595839053,-1.095,-1.302,9.34395,-0.5036625,-0.03355,0.6622
1692595839082,-0.22395001,-0.94500005,8.17095,-0.441375,-0.0232375,0.60115
1692595839109,-0.78105,0.354,6.3450003,-0.3276625,0.0240625,0.4296875
1692595839140,0.051000003,1.0360501,8.437051,-0.0169125,0.1145375,-0.16665
1692595839165,0.29700002,1.9410001,8.25,0.1804,0.1340625,-0.5456
1692595839194,-0.44895002,2.4100502,4.9450502,0.6824125,0.086075,-1.423675
1692595839229,-0.68100005,1.28505,7.86705,0.97377497,0.0221375,-1.9105625
1692595839254,-0.54,1.0720501,10.420951,1.4337125,-0.0259875,-2.6824875
1692595839281,-0.432,0.99300003,8.121,1.4757875,-0.013062499,-2.776675
1692595839311,0.52500004,0.74895006,5.5690503,1.1804374,-0.0424875,-2.3354375
1692595839342,2.2099502,-0.42795002,8.35995,0.98202497,-0.099,-2.01465
1692595839369,1.9540501,-0.483,9.00405,0.7995625,-0.20047499,-1.6872625
1692595839400,0.22800002,-0.045,8.575951,0.5941375,-0.374825,-1.2667875
1692595839429,-0.006,0.052050002,9.01095,0.0837375,-0.8003875,-0.1857625
1692595839456,-0.513,0.753,9.568951,-0.177375,-0.6898375,0.27995
1692595839485,-1.07595,1.4140501,8.925,-0.17985,-0.4587,0.2256375
1692595839515,-0.36195,1.24395,8.614051,-0.12265,-0.2278375,0.0836
1692595839544,0.59595,0.69795,8.65005,0.1296625,0.1489125,-0.34759998
1692595839575,0.95100003,0.54495,10.026,0.30621248,0.2044625,-0.5929
1692595839605,0.675,0.67200005,10.926001,0.2894375,0.0829125,-0.505725
1692595839633,0.10095,0.67905,10.720051,0.149325,-0.1890625,-0.1694
1692595839660,-0.21405001,0.94200003,9.66705,0.0858,-0.2497,-0.0526625
1692595839690,-0.0010500001,0.99300003,9.28695,0.0446875,-0.237325,9.625E-4
1692595839722,0.072000004,0.69105005,9.696,0.0490875,-0.0759,-0.0567875
1692595839745,0.043050002,0.79200006,10.00905,0.0771375,-0.006325,-0.1249875
1692595839778,-0.94905007,0.73200005,8.78895,0.0847,0.0320375,-0.2222
1692595839806,-0.72900003,0.54300004,8.475,0.0642125,0.0397375,-0.231825
1692595839835,0.702,-0.10305001,11.544001,0.0317625,0.1425875,-0.14795
1692595839863,0.87600005,-0.34395,12.774,0.005775,0.2063875,-0.042075
1692595839893,-0.95100003,0.67200005,9.95895,-0.148225,0.1387375,0.3205125
1692595839922,-1.42005,0.62895006,9.495001,-0.22893749,0.0548625,0.46048748
1692595839950,-1.0519501,0.17205001,10.26105,-0.208175,0.1205875,0.329175
1692595839980,-1.00605,0.26505002,10.333051,-0.1478125,0.2435125,0.1618375
1692595840010,-0.86805004,0.588,8.88405,-0.1098625,0.3416875,0.0499125
1692595840036,-1.1689501,1.0500001,8.382,-0.09735,0.3784,0.0053625
1692595840068,-0.64305,0.933,8.51805,-0.0675125,0.3546125,-0.0372625
1692595840096,-0.11595,0.74895006,8.986951,0.0889625,0.3007125,-0.2820125
1692595840122,0.012,1.005,9.267,0.1651375,0.2553375,-0.3856875
1692595840153,-0.102000006,1.31805,9.72,0.20927499,0.067375,-0.3227125
1692595840184,-0.21900001,1.3800001,9.966001,0.20927499,0.067375,-0.3227125
1692595840212,-0.66195005,1.23195,10.729951,0.257675,-0.16995,-0.2206875
1692595840239,-0.40095,0.83505005,11.154,0.2803625,-0.1659625,-0.276925
1692595840269,-0.46995002,0.82305,9.696,0.2299,-0.0946,-0.2899875
1692595840300,-0.78900003,1.0860001,8.628,0.1577125,-0.0682,-0.2338875
1692595840325,-0.597,1.2559501,8.583,0.0886875,-0.0501875,-0.1695375
1692595840356,-0.43005002,1.2919501,9.14505,0.0592625,0.003575,-0.144375
1692595840385,-0.70500004,1.491,9.226951,0.089925,0.0275,-0.1662375
1692595840415,-0.99405,1.7920501,9.10005,0.1505625,0.029975,-0.1243
1692595840444,-0.95895004,1.9480501,8.614051,0.1794375,0.035475,-0.09515
1692595840474,-0.83595,2.17995,8.487,0.2209625,0.0594,-0.1079375
1692595840503,-0.73395,2.50305,8.0779505,0.3496625,0.10945,-0.3036
1692595840532,-0.79095006,2.7210002,8.49705,0.5049,0.067925,-0.63965
1692595840560,-0.80505,2.8170002,7.6420503,0.5795625,0.0259875,-0.7794875
1692595840589,-0.906,2.8639503,6.5890503,0.645975,-0.01155,-0.8716125
1692595840617,-0.64995,2.22105,8.35995,0.75845,-0.050875,-0.97171247
1692595840647,-0.94200003,1.34895,8.50395,0.79365,-0.0545875,-0.9766625
1692595840673,-1.0570501,1.251,7.08405,0.625625,-0.0240625,-0.6589
1692595840703,-1.2390001,0.80805004,6.7950006,0.3991625,0.0204875,-0.3718
1692595840735,-1.22895,0.31305,9.72,-0.0265375,0.14739999,0.0328625
1692595840763,0.68295,-0.105000004,10.95705,-0.1832875,0.2253625,0.1775125
1692595840789,-0.12105001,0.42495003,7.431,-0.3741375,0.297275,0.444125
1692595840819,-1.07295,0.010950001,9.459001,-0.84095,0.265925,1.4345375
1692595840850,0.76395005,-1.2780001,12.043951,-0.9497125,0.1841125,1.81445
1692595840879,0.42900002,-1.2919501,12.12495,-0.941325,0.1584,2.022625
1692595840909,-0.32700002,-0.83505005,10.31595,-1.0225875,0.1139875,2.1929874
1692595840937,-0.066,-1.16505,10.62495,-1.2309,-0.1626625,2.5383875
1692595840965,0.13905,-1.4790001,11.556001,-1.20285,-0.223025,2.4699125
1692595840997,0.010050001,-1.21095,10.692,-1.0307,-0.1874125,2.2001374
1692595841030,-0.05595,-0.82605004,10.795051,-0.960575,-0.19373749,2.1041625
1692595841061,-0.123,-1.1530501,11.482051,-0.7913125,-0.221375,1.82105
1692595841088,0.31905,-1.3110001,11.74005,-0.6813125,-0.2134,1.6198875
1692595841116,0.513,-1.00695,11.52,-0.488675,-0.1865875,1.242175
1692595841144,0.076950006,-0.483,10.91205,-0.4184125,-0.189475,1.0800625
1692595841174,-0.29295,-0.08595,11.166,-0.3521375,-0.2008875,0.9112125
1692595841201,0.33795002,-0.59595,11.127001,-0.17407499,-0.17435,0.4621375
1692595841231,0.54105,-0.83295006,11.89095,-0.0724625,-0.1307625,0.2033625
1692595841259,-0.03195,-0.31305,11.557951,0.0334125,-0.0944625,-0.107525
1692595841289,-0.48900002,0.15195,10.689,0.043449998,-0.1166,-0.0906125
1692595841317,-0.35805002,0.15195,11.311951,0.0710875,-0.0867625,-0.0988625
1692595841348,-0.822,-0.069000006,9.411,0.1192125,-0.0221375,-0.170225
1692595841378,0.99600005,-0.63600004,12.991951,0.20899999,0.13145,-0.3837625
1692595841407,0.65595,-0.29700002,12.927001,0.2190375,0.177925,-0.4640625
1692595841435,-0.74100006,0.39705002,10.231951,0.142175,0.10835,-0.5209875
1692595841463,-0.57600003,0.23595001,10.857,0.1034,0.030524999,-0.5064125
1692595841497,0.12705001,-1.2589501,14.442,0.095837496,-0.0066,-0.47808748
1692595841525,0.31605002,-1.9740001,14.713051,0.084975,0.0331375,-0.36245
1692595841552,0.036000002,-1.43595,12.963,-0.115225,-0.010725,-0.021724999
1692595841580,0.59205,-1.3470001,12.693001,-0.2385625,-0.0567875,0.2099625
1692595841609,0.24195,-1.12695,12.034051,-0.3141875,-0.09185,0.3994375
1692595841637,-0.264,-1.4479501,12.151951,-0.31295,-0.1329625,0.5289625
1692595841667,0.51705,-2.1780002,12.066001,-0.2803625,-0.1304875,0.5077875
1692595841696,-0.35295,-1.5460501,11.521951,-0.2498375,-0.0820875,0.4533375
1692595841724,-0.51105005,-1.3279501,11.26395,-0.2624875,-0.066825,0.47025
1692595841754,0.25605002,-1.2229501,10.840051,-0.2646875,-0.034925,0.5226375
1692595841781,0.67800003,-1.4119501,9.624001,-0.2294875,-0.0022,0.46873748
1692595841812,-0.15705001,-1.11,9.95895,-0.1511125,-0.007425,0.2322375
1692595841839,-0.82005006,-0.033,9.379951,-0.1332375,-0.0562375,0.1489125
1692595841869,0.010050001,0.91395,7.4770503,-0.1166,-0.082499996,0.1082125
1692595841897,-0.78405005,1.9450501,6.096,0.0369875,0.0457875,-0.0792
1692595841927,0.132,0.684,8.746051,0.209825,0.1544125,-0.342925
1692595841955,1.1040001,0.081,12.540001,0.6524375,0.293975,-1.20175
1692595841985,0.59400004,2.24895,11.163,0.7921375,0.260975,-1.5767125
1692595842013,-0.90300006,3.9630003,8.87205,0.781275,-0.050049998,-1.8789375
1692595842045,-1.09305,2.769,7.79505,0.80808747,-0.168025,-2.0761125
1692595842072,-0.73800004,1.50495,8.79105,0.9362375,-0.1689875,-2.433475
1692595842101,0.762,-0.22200002,7.872,1.21495,-0.0011,-3.1062624
1692595842129,-0.312,0.15705001,7.15395,1.1521125,0.0504625,-2.9645
1692595842158,-1.1719501,0.62205005,7.2349505,0.5688375,0.01705,-1.6120499
1692595842187,-1.18095,1.04505,7.70205,0.2644125,0.0022,-0.924275
1692595842217,-1.116,1.488,6.9619503,0.0053625,0.1670625,-0.37867498
1692595842245,-1.5640501,1.6390501,7.314,0.0309375,0.275825,-0.4494875
1692595842271,-2.11695,1.57395,7.1350503,0.1155,0.3441625,-0.6323625
1692595842303,-1.61205,1.6560001,6.5550003,0.3267,0.4200625,-1.0132375
1692595842330,0.582,0.6,10.4740505,0.40755,0.474925,-1.1544499
1692595842362,-0.93000007,1.266,10.750951,0.4126375,0.4758875,-1.1122375
1692595842389,-2.3419502,2.0989501,8.25,0.248325,0.319825,-0.642125
1692595842423,-0.79095006,1.44,8.2879505,-0.1181125,-0.0224125,0.3738625
1692595842449,0.18195,1.1050501,9.28905,-0.0972125,-0.0218625,0.347875
1692595842476,0.34305,1.39005,8.949,0.1111,0.07315,-0.067375
1692595842513,-1.0519501,1.9980001,8.875051,0.0605,-0.1291125,0.2168375
1692595842539,-1.4419501,2.55795,9.141001,0.0298375,-0.2462625,0.367125
1692595842568,-0.11805001,1.2940501,11.2570505,0.0589875,-0.2875125,0.348425
1692595842601,-0.31905,0.76305,11.0119505,0.2035,-0.16733749,-0.0108624995
1692595842628,-1.2580501,1.50705,8.647051,0.056649998,-0.1123375,0.10725
1692595842661,-0.82905006,1.5670501,8.23305,-0.086075,-0.105875,0.2883375
1692595842687,0.012,1.27005,9.21,-0.15619999,-0.0570625,0.34553748
1692595842717,0.39795002,1.572,10.395,-0.09295,0.056649998,0.2233
1692595842747,-0.95100003,2.283,8.920051,-0.062975,0.01375,0.216425
1692595842775,-1.014,2.0410502,8.286,-0.026124999,-0.1753125,0.179025
1692595842803,0.17295001,1.1550001,9.705001,0.041525,-0.190575,0.0111375
1692595842833,0.70395005,0.88695,9.61695,0.1276,-0.1491875,-0.2167
1692595842860,0.87900007,1.0879501,8.86095,0.115225,-0.1364,-0.303325
1692595842891,0.54405004,1.3800001,9.13605,0.0015125,-0.21065,-0.0836
1692595842920,-0.18795002,1.5619501,9.708,-0.1441,-0.3738625,0.301125
1692595842949,-0.18495001,1.42095,10.1650505,-0.1310375,-0.396825,0.3139125
1692595842978,0.28305,1.33305,9.391951,-0.0576125,-0.2707375,0.11055
1692595843006,0.108,1.713,8.83905,-0.0372625,-0.1865875,-0.01155
1692595843035,-0.08205,1.96905,8.54205,-0.0119624995,-0.122375,-0.208725
1692595843065,0.27105,1.77795,8.773951,0.0273625,-0.1219625,-0.30085
1692595843094,0.10305001,1.8589501,9.583051,0.148775,-0.1241625,-0.429275
1692595843123,-0.17295001,1.9879501,9.283951,0.1846625,-0.1238875,-0.393525
1692595843152,-0.126,1.725,9.042001,0.183425,-0.104225,-0.25959998
1692595843180,0.11805001,1.5190501,9.32505,0.176275,-0.0793375,-0.27981248
1692595843209,-0.16095,2.2420502,8.590051,0.168025,-0.049225,-0.3202375
1692595843238,0.22995001,2.6539502,8.004001,0.1227875,-0.009625,-0.2259125
1692595843265,0.097950004,3.006,8.0130005,0.13035,-0.020075,-0.210925
1692595843295,-0.025050001,3.6210003,6.9529505,0.3064875,-0.09185,-0.4873
1692595843325,0.88095003,3.4099503,7.2259502,0.4475625,-0.122375,-0.6659125
1692595843354,1.0819501,3.2640002,8.17605,0.597025,-0.1508375,-0.81895
1692595843383,1.2,2.6560502,9.102,0.8041,-0.29095,-0.8776625
1692595843411,-0.29805002,2.9890501,7.6489506,0.686125,-0.4420625,-0.40315
1692595843441,-0.513,2.11995,8.03895,0.5506875,-0.4318875,-0.190025
1692595843475,-0.171,-0.186,9.198001,0.35035,-0.197725,-0.1500125
1692595843504,-1.41795,-1.04295,7.1629505,0.22,-0.011,-0.1172875
1692595843534,-1.2220501,-1.70895,8.776951,-0.0265375,0.1986875,0.10835
1692595843561,0.097950004,-3.01095,10.43595,-0.823075,0.6732,1.1298375
1692595843591,-0.80505,-2.56305,10.91895,-1.65495,0.9774875,2.5592875
1692595843619,-1.2390001,-1.3759501,10.512,-1.9878374,0.922075,3.3229625
1692595843648,-1.143,-1.33305,11.60595,-2.168925,0.7715125,3.8576999
1692595843677,-0.49695003,-1.7689501,13.087951,-1.9247249,0.5396875,3.6650624
1692595843707,-0.08505,-1.8690001,11.821051,-1.627725,0.469425,3.1640124
1692595843736,0.273,-2.0320501,11.38605,-1.3487375,0.375375,2.64825
1692595843764,0.27105,-1.9579501,11.524951,-0.985875,0.100375,1.8893875
1692595843793,0.015000001,-1.8360001,12.702001,-0.7844375,-0.1656875,1.4691875
1692595843824,-0.08505,-1.644,12.658951,-0.6945125,-0.2464,1.286175
1692595843851,-1.00605,-0.69105005,11.668051,-0.4830375,-0.2558875,0.7671125
1692595843877,-1.19505,-0.19395001,11.038951,-0.364925,-0.1989625,0.4929375
1692595843906,-0.303,-0.58905005,11.458051,-0.2327875,-0.10615,0.2605625
1692595843937,-0.39795002,-0.59295005,10.846951,0.0517,0.1225125,-0.11385
1692595843968,0.34995002,-1.23195,13.132951,0.1496,0.192775,-0.2388375
1692595843997,0.19395001,-1.536,15.000001,0.1948375,0.1431375,-0.3507625
1692595844026,-0.38595003,-1.5010501,12.882001,0.16225,0.0488125,-0.3796375
1692595844055,0.33795002,-2.3449502,11.497951,0.0394625,-0.0928125,-0.367675
1692595844085,-0.22605,-3.2770503,14.6629505,-0.0292875,-0.104775,-0.320925
1692595844113,-0.20895001,-3.3460503,14.964001,-0.1071125,-0.1054625,-0.227425
1692595844141,-1.5640501,-1.9530001,13.612051,-0.3218875,-0.138875,0.1824625
1692595844172,-1.45395,-1.6009501,12.424951,-0.43408749,-0.0881375,0.5176875
1692595844201,-0.54195005,-1.9939501,11.73795,-0.37895,0.01595,0.504625
1692595844228,-0.01995,-2.0269501,12.654,-0.28215,0.1376375,0.4079625
1692595844258,-0.89100003,-1.93605,11.53905,-0.1403875,0.2055625,0.17847499
1692595844287,-0.91800004,-2.592,10.996051,-0.1172875,0.136675,0.107525
1692595844316,-1.4680501,-2.73795,11.56305,-0.128425,0.0452375,0.15413749
1692595844344,-1.6500001,-2.60595,12.505951,-0.1672,0.0523875,0.2869625
1692595844375,-1.4640001,-1.7710501,11.34,-0.2506625,0.115637496,0.5146625
1692595844400,-1.7680501,-0.78195006,7.9960504,-0.2473625,0.1736625,0.4882625
1692595844431,-1.248,-0.282,6.663,-0.2008875,0.23375,0.3839
1692595844460,0.795,-0.097950004,8.229,-0.01265,0.3229875,0.1397
1692595844488,0.79305005,1.6699501,8.71905,0.111237496,0.33275,-0.020624999
1692595844520,-0.11805001,2.52495,5.2369504,0.4296875,0.1463,-0.670725
1692595844550,0.36405003,1.9789501,8.20695,0.6609625,-0.0089375,-1.1594
1692595844582,-0.54705,1.8090001,10.351951,1.18085,-0.17655,-2.1668625
1692595844611,-2.06205,2.50305,8.466001,1.3583624,-0.2013,-2.5532374
1692595844640,0.252,1.4950501,4.71,1.4408625,-0.1885125,-2.783275
1692595844671,2.7120001,0.033,8.205,1.310925,0.0402875,-2.710675
1692595844695,2.0370002,0.126,8.016001,1.310925,0.0402875,-2.710675
1692595844728,0.024,0.78900003,8.238,0.819225,-0.4296875,-1.61755
1692595844757,-1.65495,0.96405005,8.04405,0.3034625,-0.7973625,-0.527175
1692595844785,-1.00605,1.16505,9.49995,0.1940125,-0.67375,-0.3730375
1692595844813,1.2019501,0.93000007,10.68,0.163075,-0.0429,-0.4965125
1692595844842,1.29495,1.8780001,9.0379505,0.1722875,0.1815,-0.5445
1692595844873,-0.022950001,2.7850502,8.06295,0.2066625,0.0578875,-0.40205
1692595844901,-0.76005006,2.163,8.820001,0.2910875,-0.140525,-0.3903625
1692595844930,-0.72405005,1.0999501,9.80805,0.5762625,-0.2809125,-0.7363125
1692595844957,-0.24300002,0.57405,10.012051,0.6254875,-0.1739375,-0.86845
1692595844989,-0.43005002,0.60195005,9.43305,0.3433375,0.1189375,-0.5995
1692595845016,-0.48900002,0.69105005,8.985001,0.119075,0.1997875,-0.3113
1692595845047,-0.22395001,0.62205005,9.208051,-0.0682,0.2347125,-0.044
1692595845076,-0.15405001,0.84195006,9.27,-0.25685,0.2459875,0.3172125
1692595845108,0.076950006,1.503,8.643001,-0.2794,0.227975,0.41965
1692595845137,0.71805006,1.677,9.66705,-0.22715,0.1359875,0.4569125
1692595845170,0.56505,1.4430001,10.311001,-0.033275,-0.0218625,0.2685375
1692595845196,-0.70995003,1.6650001,9.946951,-0.033275,-0.0218625,0.2685375
1692595845225,-1.83,1.3279501,10.012051,0.1236125,-0.1962125,0.152075
1692595845253,-1.27695,0.33,10.029,0.1478125,-0.0248875,-0.0517
1692595845284,-1.0690501,0.009000001,10.392,0.108625,0.1835625,-0.144925
1692595845312,-1.107,0.39195,9.765,0.013475,0.3647875,-0.113575
1692595845341,-1.42305,1.5649501,7.66095,-0.275,0.5025625,0.3031875
1692595845371,-0.291,1.6290001,8.418,-0.3254625,0.45113748,0.473
1692595845398,-0.058050003,1.7080501,8.950951,-0.3254625,0.45113748,0.473
1692595845428,-0.50895,2.9650502,8.99895,-6.875E-4,0.287375,-0.02915
1692595845453,-0.28095,2.70705,9.102,0.3498,5.5E-4,-0.510125
1692595845483,0.441,1.6800001,9.993,0.5137,-0.1203125,-0.7271
1692595845519,0.75000006,0.78195006,10.917001,0.6686625,-0.2608375,-0.9090125
1692595845548,0.027,1.15995,9.688951,0.55275,-0.3069,-0.662475
1692595845577,-0.48195,1.7389501,8.84895,0.086625,-0.3312375,0.25753748
1692595845605,-0.29805002,1.8499501,8.406,-0.0803,-0.2919125,0.5625125
1692595845635,-0.42495003,2.1990001,8.27595,-0.0837375,-0.140525,0.4805625
1692595845664,-0.24300002,2.29005,8.87205,0.0086624995,-0.0704,0.2825625
1692595845693,-0.042000003,2.496,9.330001,0.2008875,-0.00825,-0.0672375
1692595845721,-0.34800002,3.10905,7.4050503,0.272525,-0.0116875,-0.1846625
1692595845752,-1.5280501,3.90105,5.6650505,0.3845875,-0.0710875,-0.35145
1692595845781,-1.7509501,3.348,7.4340005,0.4901875,-0.09625,-0.53735
1692595845812,-1.167,2.9940002,8.274,0.6452875,-0.084425,-0.837925
1692595845840,-0.65895003,3.7690501,9.411,0.8757375,0.0397375,-1.3674375
1692595845871,-0.41505003,3.5040002,9.70995,0.8479625,0.091437496,-1.3523124
1692595845900,-0.41295,3.48705,6.9810004,0.63621247,0.077825,-0.87505
1692595845928,-0.07005,3.1710002,5.29605,0.548075,0.028875,-0.6254875
1692595845956,0.51000005,1.5480001,6.70905,0.512875,-0.113437496,-0.4224
1692595845986,-0.60405004,0.07395,11.58705,0.5229125,-0.1923625,-0.3861
1692595846015,-1.7170501,-0.117000006,13.291051,0.1309,-0.12979999,0.22605
1692595846043,-2.0670002,-0.124050006,10.720051,-0.3675375,0.095699996,0.8932
1692595846074,-0.384,-0.81405,11.14605,-0.909425,0.3928375,1.6121875
1692595846103,0.54795,-0.89295006,12.154051,-1.5475625,0.8399875,2.546225
1692595846131,-0.77205,-0.56895,10.363951,-1.6528875,0.8525,2.7999125
1692595846162,-1.5469501,-0.77295005,9.65295,-1.6594875,0.4422,3.0267875
1692595846187,-0.41505003,-1.35405,10.692,-1.5558125,0.2586375,2.90785
1692595846216,-0.10395,-1.2400501,10.98795,-1.2698125,0.2393875,2.456575
1692595846245,-0.666,-0.62700003,10.01895,-1.177,0.23333749,2.2801626
1692595846276,-0.64305,-0.094950005,10.62705,-1.0324875,0.064075,2.0453124
1692595846305,-0.71205,0.045,11.029051,-0.9009,0.00495,1.9036875
1692595846334,-0.25005,0.093,11.458051,-0.526075,-2.75E-4,1.4257375
1692595846365,-0.26700002,0.13605,10.929001,-0.3430625,0.009625,1.1298375
1692595846393,-1.131,0.95205003,10.552951,-0.19525,0.004675,0.8661125
1692595846424,-1.19295,1.28205,11.017051,0.001925,-0.031625,0.4703875
1692595846454,-0.76905006,0.61005,10.95705,0.2085875,0.04015,0.0224125
1692595846486,-0.59505004,0.48495004,11.938951,0.3048375,0.09075,-0.207625
1692595846511,-0.66195005,0.37500003,12.16905,0.350075,0.108625,-0.3774375
1692595846539,-0.777,0.423,10.750951,0.285725,0.062425,-0.481525
1692595846567,-0.42495003,0.48795003,11.898001,0.2288,0.032175,-0.4852375
1692595846595,-0.57600003,0.80595005,12.178051,0.1461625,-9.625E-4,-0.4651625
1692595846624,-0.12105001,0.78900003,11.553,0.1225125,-0.0144375,-0.4093375
1692595846655,-0.24795002,0.74100006,11.22105,0.1139875,-0.03795,-0.3535125
1692595846684,-0.88395005,1.143,11.350051,0.1359875,-0.1126125,-0.4035625
1692595846712,-0.252,0.47595003,12.054001,0.168025,-0.14905,-0.523875
1692595846743,-0.018000001,0.049950004,12.748051,0.1772375,-0.1232,-0.46585
1692595846770,-0.11400001,-0.012,11.692051,0.09405,-0.089237496,-0.1166
1692595846799,0.04605,-0.26805001,12.68595,0.00165,-0.110825,0.0653125
1692595846830,-0.20895001,-0.19395001,13.63605,-0.1551,-0.1469875,0.3163875
1692595846857,-0.58695,-0.11505,12.59895,-0.2050125,-0.1467125,0.4037
1692595846889,-0.93195003,-0.0139500005,11.7640505,-0.2050125,-0.1467125,0.4037
1692595846916,-0.83895004,-0.74895006,12.420001,-0.2366375,-0.0347875,0.42734998
1692595846948,-0.025050001,-1.1869501,11.41695,-0.2121625,0.065175,0.395175
1692595846977,-0.19995001,-1.2559501,10.917001,-0.2358125,0.194975,0.43945
1692595847009,-0.513,-0.99495006,10.012051,-0.303325,0.154825,0.5033875
1692595847031,-0.38205,-1.21305,8.691,-0.42625,0.0089375,0.60665
1692595847063,-1.0020001,-1.1410501,9.267,-0.44701248,-0.0224125,0.64405
1692595847094,-2.33505,-0.079050004,8.128051,-0.43821248,-0.01045,0.664125
1692595847123,-2.7900002,0.492,6.4500003,-0.43821248,-0.01045,0.664125
1692595847153,-0.47505003,0.10005,7.281,-0.34705,0.173525,0.52195
1692595847181,0.094050005,0.52395004,11.371051,-0.0576125,0.5240125,0.0666875
1692595847209,-0.59895,3.28605,11.677951,0.2255,0.4420625,-0.4841375
1692595847236,0.201,3.762,9.0070505,0.36795,0.21573749,-0.8173
1692595847266,0.20400001,2.328,6.9930005,0.6045875,0.0149875,-1.3190374
1692595847297,-0.82695,1.69605,8.54205,1.2188,-0.2259125,-2.5958624
1692595847323,-0.34095,1.00905,9.33705,1.3671625,-0.313225,-2.9407125
1692595847353,-1.2739501,1.09305,7.5079503,1.1528,-0.303875,-2.6159375
1692595847381,-1.75995,1.24905,8.016001,0.9156125,-0.21573749,-2.2235124
1692595847411,-1.866,1.266,8.262,0.5269,0.0077,-1.612325
1692595847441,-2.055,0.99705005,6.4789505,0.428725,0.1379125,-1.4551625
1692595847469,0.06705,0.98100007,8.487,0.3224375,0.347875,-1.2194875
1692595847496,0.69195,1.2940501,10.4740505,0.2728,0.3804625,-1.083225
1692595847527,-1.5139501,2.8140001,8.0779505,0.2146375,0.30965,-0.91574997
1692595847559,-1.59,2.331,8.88195,0.1728375,-0.113025,-0.653125
1692595847593,-1.3630501,1.3590001,10.45695,0.4769875,-0.2717,-1.0690625
1692595847612,-1.107,1.04805,10.869,0.4769875,-0.2717,-1.0690625
1692595847647,0.08400001,0.87495005,8.575951,0.55962497,-0.124575,-1.2500125
1692595847676,0.18705001,1.05495,8.427,0.1434125,-0.0930875,-0.586575
1692595847705,0.23505001,1.14795,8.856,-0.0479875,-0.1566125,-0.1929125
1692595847738,0.076950006,1.04505,9.92805,-0.1596375,-0.2459875,0.1145375
1692595847767,-0.60405004,1.32105,10.215,-0.21807499,-0.376475,0.4538875
1692595847795,-1.0639501,1.38495,9.784051,-0.2112,-0.373175,0.4981625
1692595847822,-1.2720001,1.3369501,9.703051,-0.185075,-0.300575,0.40205
1692595847850,-0.79305005,1.27995,9.17205,-0.143825,-0.1860375,0.2586375
1692595847878,1.0030501,0.531,10.243951,-0.054175,0.0471625,-0.033275
1692595847908,0.07005,1.3369501,10.43595,-0.0680625,0.0430375,0.0254375
1692595847935,-0.74805003,2.21295,8.62605,-0.134475,-0.076175,0.221925
1692595847964,-1.26495,2.80905,8.03205,-0.1725625,-0.19607499,0.3542
1692595847994,-0.75495005,2.628,9.31995,0.0603625,-0.19139999,-0.0213125
1692595848025,0.38805002,2.2110002,9.777,0.28105,-0.0983125,-0.4026
1692595848055,1.1560501,1.8829501,9.430051,0.5434,-0.0367125,-0.7665625
1692595848091,0.84795004,1.6339501,10.1650505,0.5223625,-0.1199,-0.6370375
1692595848118,0.01695,1.5790501,9.65295,0.31913748,-0.3689125,-0.1155
1692595848148,-1.1020501,2.0719502,8.413051,0.20185,-0.4351875,0.1021625
1692595848177,-1.5880501,2.49795,8.226001,0.056375,-0.3205125,0.1254
1692595848205,-1.52295,2.4480002,8.323951,0.0671,-0.165825,-0.091025
1692595848235,-1.4800501,2.02005,8.52105,0.1335125,0.006325,-0.3939375
1692595848265,-1.54305,2.118,8.305051,0.29535,0.2607,-0.913825
1692595848294,-0.93195003,2.4820502,7.6519504,0.2930125,0.369325,-0.918225
1692595848322,-0.384,2.45295,7.32105,0.2688125,0.3799125,-0.80685
1692595848350,-0.01305,2.14395,8.260051,0.274175,0.34759998,-0.710875
1692595848381,-0.762,3.1350002,7.79505,0.3256,0.1505625,-0.522225
1692595848409,-0.99195004,4.06395,6.29895,0.3224375,0.0281875,-0.388025
1692595848435,0.075,3.9130502,6.1750503,0.3289,-0.06215,-0.300575
1692595848468,2.0370002,2.6850002,7.0920005,0.580525,-0.155925,-0.521125
1692595848494,1.077,2.1990001,10.828051,0.8617125,-0.3920125,-0.539825
1692595848522,0.08895,2.424,9.603001,0.7475875,-0.5432625,-0.1357125
1692595848548,-0.09705,1.419,7.5990005,0.464475,-0.6260375,0.380325
1692595848577,-1.7320501,-0.85695004,7.1080503,-0.0968,-0.458975,0.8581375
1692595848606,-1.7389501,-2.2470002,11.40495,-0.2739,-0.2508,0.83393747
1692595848637,0.3,-2.9220002,11.812051,-0.85263747,0.4158,1.1704
1692595848667,-1.1020501,-1.06005,8.26395,-1.3245375,0.7668375,1.7351125
1692595848695,-1.16205,-1.0699501,9.97605,-2.0285375,0.859925,3.0210125
1692595848725,0.29505002,-2.36205,12.135,-2.0387125,0.7057875,3.2302876
1692595848753,-0.51105005,-2.26395,12.5130005,-1.8816875,0.53295,3.1554875
1692595848782,-2.565,-1.3759501,11.57505,-1.5662625,0.2321,2.938925
1692595848813,-2.4499502,-1.16295,11.793,-1.320825,0.1491875,2.5447125
1692595848842,-1.899,-1.35,11.194051,-1.12585,0.2685375,2.1646626
1692595848870,-1.7479501,-1.3930501,10.9480505,-1.12585,0.2685375,2.1646626
1692595848898,-1.7509501,-1.1770501,10.813951,-0.5957875,0.4712125,1.2716
1692595848929,-1.88505,-1.4650501,11.203951,-0.5044875,0.4107125,1.1087999
1692595848956,-1.6890001,-1.1200501,11.533951,-0.375375,0.2778875,0.8160625
1692595848986,-1.07805,-0.66300005,11.182051,-0.3174875,0.2352625,0.654225
1692595849013,-1.04205,-0.08595,11.472,-0.2534125,0.2017125,0.4874375
1692595849043,-0.96300006,0.39705002,11.2879505,-0.0671,0.1101375,0.12265
1692595849070,-0.76695,0.50895,11.125051,0.069025,0.047849998,-0.10065
1692595849100,-0.68595004,0.18405001,11.824051,0.376475,-0.0482625,-0.616
1692595849129,-0.70995003,-0.51900005,12.22395,0.49665,-0.0807125,-0.874775
1692595849157,-0.74805003,-0.91200006,11.692051,0.5435375,-0.1527625,-1.0726374
1692595849187,-0.62295,-1.14405,11.92905,0.4549875,-0.18287499,-0.9436625
1692595849216,-1.09695,-0.80205005,11.623051,0.3166625,-0.2006125,-0.7359
1692595849247,-1.09695,-0.80205005,11.623051,0.3166625,-0.2006125,-0.7359
1692595849276,-1.3770001,-0.46905002,10.632001,-0.043449998,-0.1662375,-0.3213375
1692595849303,-1.9230001,-0.82305,10.71105,-0.0444125,-0.0204875,-0.2387
1692595849328,-1.8199501,-1.21305,11.415001,-0.0270875,0.057475,-0.167475
1692595849365,-0.75705004,-2.2039502,13.5070505,-0.0622875,0.176275,0.0495
1692595849389,-0.96105003,-1.74495,12.73305,-0.12155,0.2013,0.20735
1692595849420,-1.557,-1.0170001,11.89305,-0.307725,0.0903375,0.6048625
1692595849449,-1.3630501,-1.4239501,12.89595,-0.3675375,-0.0034375,0.698225
1692595849478,-0.504,-2.6490002,14.15505,-0.3040125,-0.059675,0.485925
1692595849507,-0.48195,-2.66595,13.066051,-0.2550625,-0.0545875,0.36987498
1692595849536,-1.2409501,-2.118,12.87495,-0.33165,-0.169125,0.4923875
1692595849563,-0.93000007,-2.16405,12.160951,-0.4063125,-0.245575,0.5979875
1692595849593,-0.23805001,-2.5200002,11.922001,-0.43147498,-0.2475,0.61435
1692595849622,-2.148,-1.5340501,12.18,-0.4005375,-0.20899999,0.5748875
1692595849650,-3.0960002,-0.10305001,10.644,-0.370975,-0.182325,0.5457375
1692595849681,-1.42005,-0.37995002,8.11095,-0.2547875,-0.0510125,0.4525125
1692595849709,-1.5139501,-0.22905001,7.1130004,-0.1120625,0.1027125,0.3023625
1692595849737,-0.48000002,0.14805001,7.9750504,0.2068,0.3595625,-0.1106875
1692595849773,1.45305,2.2999501,8.50905,0.3683625,0.3438875,-0.4148375
1692595849799,1.5079501,2.6470501,5.7660003,0.485375,0.23155,-0.686675
1692595849827,0.30705002,1.6030501,4.4040003,0.6879125,0.0356125,-1.1292875
1692595849856,0.90000004,0.63405,8.20695,1.149775,-0.4334,-2.028125
1692595849884,0.59895,0.72495,10.213051,1.2551,-0.5600375,-2.23685
1692595849912,-0.50595003,1.524,5.05695,1.23475,-0.5924875,-2.2782376
1692595849942,0.63000005,1.0330501,5.3179502,0.954525,-0.5223625,-2.02785
1692595849970,1.4290501,0.20505,8.82195,0.8437,-0.4481125,-1.901075
1692595850000,-0.17805001,0.23895001,9.78195,0.727375,-0.3504875,-1.6431249
1692595850034,-1.473,1.0189501,7.728,0.3564,-0.38073748,-0.8861875
1692595850060,0.08895,0.88005006,10.342051,0.1841125,-0.2448875,-0.632225
1692595850087,0.39105,2.2729502,9.990001,0.111237496,-0.0213125,-0.611325
1692595850115,-0.37695003,3.0180001,8.358001,0.1623875,0.132275,-0.8067125
1692595850145,-0.78900003,2.45295,9.27495,0.2706,0.0088,-0.919325
1692595850174,-0.30495003,1.0720501,9.92595,0.641575,-0.1516625,-1.37775
1692595850201,-0.58995,0.81600004,9.208051,0.73356247,-0.1238875,-1.496275
1692595850234,-0.83595,1.0500001,8.616,0.4609,-0.00825,-1.02245
1692595850260,-1.0210501,1.04295,9.46605,0.240625,0.0462,-0.6634375
1692595850291,-0.98205006,0.66495,10.528951,-0.03025,0.1643125,-0.2534125
1692595850319,-0.78405005,0.65505004,10.548,-0.0985875,0.2156,-0.1775125
1692595850348,-0.89595,1.0020001,9.580951,-0.160875,0.249425,-0.115225
1692595850376,-0.53205,1.218,10.198951,-0.2630375,0.256575,0.058575
1692595850408,-1.21695,1.47405,10.371,-0.2574,0.230725,0.1104125
1692595850437,-2.6869502,1.5810001,7.458,-0.137775,0.1450625,0.098037496
1692595850465,-0.83895004,0.63105005,9.27,-0.065725,0.1442375,0.043175
1692595850494,0.57705003,0.042000003,10.91205,0.0100375,0.2211,-0.086625
1692595850522,-0.98205006,0.46800002,8.94705,0.058575,0.391325,-0.211475
1692595850553,-1.09695,0.069000006,8.805,-0.2398,0.15455,0.5050375
1692595850581,-1.04505,-0.060000002,9.411,-0.37454998,0.043725,0.7910375
1692595850607,-1.3729501,0.13605,9.46395,-0.434775,0.0339625,0.858275
1692595850638,-1.00605,1.0000501,8.202001,-0.44233748,0.139975,0.7414
1692595850668,-0.14205001,1.6800001,9.121051,-0.2954875,0.184525,0.50655
