@ HyperIMU - ianovir
@ Date:Mon Aug 21 08:38:01 GMT+03:00 2023, Sampling Rate:25ms

timestamp,bma4xy_accelerometer.x,bma4xy_accelerometer.y,bma4xy_accelerometer.z,oem_pseudo_gyro.x,oem_pseudo_gyro.y,oem_pseudo_gyro.z
1692596281350,-0.38895002,-0.028050002,9.700951,0.20899999,0.1280125,0.16293749
1692596281396,-0.11805001,-0.036000002,9.612,-0.1079375,0.2633125,1.0410125
1692596281419,-0.11400001,-0.11895001,9.918,-0.1079375,0.2633125,1.0410125
1692596281447,-0.14205001,0.0019500001,9.526051,-0.5567375,0.570625,4.0584497
1692596281473,-0.49905002,0.09,9.65295,-0.814825,1.1743875,11.99165
1692596281501,-0.48195,-0.01905,10.024051,-0.857725,1.3990625,15.885238
1692596281527,-0.45795003,-0.109950006,10.275001,-0.8240375,1.3622125,16.510176
1692596281559,-0.41295,-0.13605,10.066951,-0.65835,0.9590625,12.038262
1692596281585,-0.291,-0.19095,10.12695,-0.586025,0.7717875,9.628575
1692596281612,-0.38895002,-0.11895001,9.76095,-0.4811125,0.48014998,6.286225
1692596281644,-0.23805001,-0.22500001,9.768001,-0.4365625,0.369325,4.8890877
1692596281666,-0.23295002,-0.19800001,9.76095,-0.3925625,0.279675,3.8311625
1692596281700,-0.09900001,-0.31605002,9.66705,-0.3147375,0.1533125,2.4459875
1692596281727,-0.010950001,-0.23895001,9.63405,-0.286825,0.1032625,2.02455
1692596281758,-0.22605,-0.072000004,9.62205,-0.238425,0.005775,1.3738999
1692596281784,-0.32205,-0.079050004,10.00905,-0.21175,-0.0317625,1.085975
1692596281813,-0.21900001,-0.20295002,10.066951,-0.1824625,-0.050325,0.83765
1692596281841,-0.09195001,-0.18900001,9.636001,-0.119075,-0.0308,0.4602125
1692596281868,0.028950002,-0.33,9.95205,-0.0889625,-0.016224999,0.33385
1692596281898,-0.216,-0.15495001,10.05,-0.0917125,-0.029424999,0.38541248
1692596281925,-0.42705002,0.057000004,9.717,-0.09845,-0.049225,0.461175
1692596281955,-0.07305,-0.079050004,9.580951,-0.0881375,-0.06215,0.4269375
1692596281984,-0.17805001,-0.049950004,9.552,-0.056925,-0.0429,0.2877875
1692596282015,-0.19695,-0.15300001,9.99705,0.0133375,-0.0050875,0.0037125
1692596282047,-0.147,-0.105000004,9.733951,0.02695,-0.001375,-0.07205
1692596282080,-0.3,-0.036000002,9.63105,0.023375,-0.0056375,-0.122099996
1692596282114,-0.09900001,-0.13395001,9.966001,0.01375,-0.0050875,-0.1626625
1692596282149,-0.13305001,0.010950001,9.504001,0.0122375,8.25E-4,-0.20927499
1692596282182,-0.10605001,-0.24105,10.14795,0.0132,-0.0072875,-0.1837
1692596282202,-0.19305001,-0.07395,9.945001,0.0121,-0.0185625,-0.0941875
1692596282223,-0.109050006,-0.117000006,9.81795,0.0056375,-0.02475,0.0374
1692596282267,-0.010950001,-0.097950004,9.8539505,-0.0048125,-0.024475,0.1494625
1692596282287,-0.010950001,-0.097950004,9.8539505,-0.0048125,-0.024475,0.1494625
1692596282353,-0.087000005,-0.093,9.98295,0.0039875,-0.0143,0.2165625
1692596282362,-0.087000005,-0.093,9.98295,0.0039875,-0.0143,0.2165625
1692596282383,-0.087000005,-0.093,9.98295,0.0039875,-0.0143,0.2165625
1692596282408,-0.12105001,-0.15495001,9.92805,0.022275,-0.0119624995,0.11
1692596282433,-0.12105001,-0.15495001,9.92805,0.022275,-0.0119624995,0.11
1692596282459,-0.12105001,-0.15495001,9.92805,0.022275,-0.0119624995,0.11
1692596282489,-0.12105001,-0.15495001,9.92805,0.022275,-0.0119624995,0.11
1692596282523,-0.12105001,-0.15495001,9.92805,0.022275,-0.0119624995,0.11
1692596282546,-0.12105001,-0.15495001,9.92805,0.022275,-0.0119624995,0.11
1692596282574,-0.20895001,-0.11895001,10.026,0.013475,0.0259875,-0.143
1692596282604,-0.20895001,-0.11895001,10.026,0.013475,0.0259875,-0.143
1692596282635,-0.20895001,-0.11895001,10.026,0.013475,0.0259875,-0.143
1692596282663,-0.34605002,-0.01905,9.95205,0.0055,0.0286,-0.1181125
1692596282699,-0.291,-0.045,9.94995,0.015675,0.0474375,-0.19195
1692596282731,-0.34095,-0.028050002,9.868051,0.0169125,0.0507375,-0.1780625
1692596282767,-0.27405003,-0.021000002,9.58605,0.013612499,0.04895,-0.08085
1692596282791,-0.3,0.0,9.708,0.013062499,0.0441375,-0.0199375
1692596282815,-0.22800002,-0.036000002,9.67695,0.0138875,0.0383625,0.0242
1692596282853,-0.22605,0.010950001,9.80805,0.012925,0.0185625,0.082499996
1692596282884,-0.24300002,-0.009000001,9.693001,0.011825,0.009075,0.138325
1692596282909,-0.33600003,0.09,9.804001,0.0127875,5.5E-4,0.2140875
1692596282932,-0.33600003,0.09,9.804001,0.0127875,5.5E-4,0.2140875
1692596282962,-0.31005,0.102000006,9.92595,0.0273625,0.0012375,0.2657875
1692596282989,-0.37005,0.16905001,9.637951,0.037125,0.00495,0.1802625
1692596283021,-0.17595,0.109050006,9.75105,0.05335,0.0056375,-0.0042625
1692596283048,-0.12105001,-0.031050002,9.93795,0.0482625,0.005225,-0.061325
1692596283072,-0.10605001,-0.043050002,9.934951,0.0347875,-5.5E-4,-0.0279125
1692596283098,-0.25695002,0.07395,9.7890005,0.0215875,-0.0119624995,0.0089375
1692596283127,-0.14895001,0.00405,9.780001,-0.0039875,-0.0331375,-0.01815
1692596283156,-0.22095,-0.00405,9.922951,-0.0056375,-0.0361625,-0.0661375
1692596283184,-0.24300002,0.076050006,9.63105,-0.0034375,-0.0345125,-0.1078
1692596283211,-0.17805001,0.061950002,9.733951,-5.5E-4,-0.0231,-0.1310375
1692596283239,-0.21195,0.03795,9.79905,0.0017875,-0.015262499,-0.091299996
1692596283270,-0.29805002,0.093,9.705001,0.0067375,-0.007975,0.048125
1692596283296,-0.20895001,0.069000006,9.859051,0.008525,-0.00715,0.0532125
1692596283321,-0.21900001,0.08505,9.772051,0.011275,-0.0039875,-0.014712499
1692596283348,-0.20700002,0.102000006,9.708,0.0191125,0.0020625,-0.2239875
1692596283376,-0.18495001,0.10695001,9.715051,0.0229625,-1.375E-4,-0.2850375
1692596283402,-0.264,0.14295001,9.682051,0.02585,-0.0037125,-0.2888875
1692596283432,-0.23595001,0.08805001,9.92805,0.030524999,-0.00385,-0.2261875
1692596283459,-0.25995,0.17205001,9.76305,0.032449998,4.125E-4,-0.225775
1692596283488,-0.28395,0.17205001,9.516001,0.0328625,0.0056375,-0.22453749
1692596283515,-0.31500003,0.042000003,9.684,0.0312125,0.015675,-0.10505
1692596283545,-0.41505003,-0.021000002,9.868051,0.0309375,0.02035,-0.05555
1692596283573,-0.49905002,-0.052050002,9.880051,0.0174625,0.03135,-0.0809875
1692596283603,-0.58005005,-0.0139500005,9.76095,2.75E-4,0.0411125,-0.0809875
1692596283631,-0.63495004,0.069000006,9.732,-0.032175,0.0715,0.018975
1692596283657,-0.58695,0.13800001,9.67395,-0.039049998,0.091025,0.0759
1692596283689,-0.38895002,0.246,9.65505,-0.0281875,0.121,0.0922625
1692596283715,-0.384,0.30600002,9.684,-0.0127875,0.118525,0.0545875
1692596283741,-0.34305,0.36600003,9.564,0.0067375,0.10065,-0.0055
1692596283770,-0.50895,0.45405003,9.684,0.055825,0.045375,-0.1544125
1692596283800,-0.31500003,0.40395,9.72,0.0804375,0.02475,-0.2085875
1692596283828,-0.25005,0.33195,10.012051,0.115637496,0.007975,-0.29315
1692596283856,-0.094050005,0.423,10.048051,0.122237496,-0.002475,-0.3224375
1692596283884,-0.04695,1.0360501,8.599951,0.120175,-0.0226875,-0.3147375
1692596283911,-0.049050003,1.1029501,8.48205,0.13585,-0.0818125,-0.32999998
1692596283939,0.15405001,0.63795,9.44205,0.18315,-0.110275,-0.4483875
1692596283967,0.37905002,0.36600003,10.555051,0.2844875,-0.1544125,-0.6221875
1692596283994,0.40695003,0.38505003,10.519051,0.2717,-0.17545,-0.5446375
1692596284023,0.46695003,0.80100006,9.910951,0.209825,-0.2006125,-0.398475
1692596284050,0.393,1.2030001,9.379951,0.0754875,-0.2501125,-0.1824625
1692596284080,0.08205,1.4670001,9.28695,0.0653125,-0.2662,-0.1931875
1692596284107,0.16800001,1.33305,9.691051,0.175175,-0.2591875,-0.395725
1692596284134,0.34995002,1.3279501,9.3490505,0.251625,-0.2305875,-0.509575
1692596284164,0.21105,1.3609501,8.688001,0.3064875,-0.1948375,-0.59235
1692596284192,0.44595003,1.05495,9.724951,0.3328875,-0.1428625,-0.6105
1692596284220,0.46005002,1.0380001,9.739051,0.3201,-0.126225,-0.5234625
1692596284248,-0.07305,1.6650001,8.764951,0.2468125,-0.104775,-0.2171125
1692596284276,0.177,1.04805,8.241,0.2077625,-0.098037496,-0.1126125
1692596284304,-0.19695,1.24605,8.86305,0.1964875,-0.0878625,-0.1137125
1692596284332,0.132,2.62995,8.932051,0.215875,-0.0471625,-0.28655
1692596284360,0.55605,4.0800004,5.892,0.2083125,-0.0251625,-0.3411375
1692596284388,0.90795004,4.56195,3.042,0.370425,-0.0677875,-0.6037625
1692596284415,1.10595,3.8479502,5.5020003,0.6485875,-0.1783375,-0.92565
1692596284444,2.15505,1.09095,9.92805,1.018875,-0.35021248,-1.2783375
1692596284472,1.314,0.57405,9.556951,1.429725,-0.6578,-1.32165
1692596284501,0.58005005,0.98505,7.0650005,1.1548625,-0.644875,-0.770275
1692596284525,0.80205005,0.897,6.7039504,0.642675,-0.5181,-0.04015
1692596284554,0.36195,-0.186,10.585951,-0.154275,-0.2165625,0.81125
1692596284583,-1.2,-0.87795,11.26095,-0.31625,-0.1122,0.8793125
1692596284612,-1.4760001,-2.4720001,10.88805,-0.6573875,0.20845,1.132175
1692596284638,-1.03695,-3.01095,11.773951,-0.9062625,0.5099875,1.44815
1692596284666,-0.79095006,-2.9920502,12.05595,-1.1631125,0.826375,1.90135
1692596284694,-0.48495004,-3.0589502,12.20205,-1.6093,1.091475,3.1878
1692596284723,-0.20505,-2.7450001,12.130051,-1.7318125,0.982575,3.7767124
1692596284750,-0.432,-2.4049501,12.607051,-1.6779125,0.5451875,4.085125
1692596284779,-0.252,-1.7730001,11.070001,-1.5387625,0.33673748,3.8053124
1692596284807,-0.10605001,-1.299,10.243951,-1.1316249,0.0823625,2.7801125
1692596284837,-0.42195,-1.44105,11.45505,-0.8987,0.027224999,2.2034376
1692596284862,-0.14895001,-2.013,13.243051,-0.67347497,-0.0044,1.6874
1692596284889,-0.01305,-1.59105,12.10095,-0.3295875,-0.0356125,0.95975
1692596284920,-0.11100001,-0.81795,10.464001,-0.2292125,-0.04895,0.7343875
1692596284948,0.35205,-0.591,11.059951,-0.0862125,-0.07315,0.3821125
1692596284976,0.18195,0.0,10.347,0.003025,-0.0716375,0.168025
1692596285005,-0.17805001,0.19095,9.564,0.104225,-0.0704,-0.0592625
1692596285037,0.012,-0.38700002,11.041051,0.2960375,-0.0785125,-0.40507498
1692596285073,0.18705001,-1.029,12.469951,0.36987498,-0.06325,-0.53185
1692596285093,0.73305005,-1.43295,11.34,0.3801875,-0.0297,-0.6043125
1692596285124,0.28305,-0.711,10.73505,0.2993375,-0.0473,-0.4895
1692596285157,-0.26700002,0.03795,9.804001,0.0928125,-0.1252625,-0.24695
1692596285191,-0.18495001,0.40905002,9.19995,0.0429,-0.1375,-0.242275
1692596285217,-0.003,0.52395004,9.394051,0.12595,-0.04675,-0.428175
1692596285249,0.012,0.43500003,10.531051,0.219175,0.01485,-0.55055
1692596285284,0.13695,0.246,10.818001,0.372075,0.0691625,-0.7018
1692596285316,-0.27405003,0.15495001,11.356951,0.4104375,0.051975,-0.6307125
1692596285347,-0.528,-0.21495001,12.571051,0.386925,0.0394625,-0.5407875
1692596285378,-0.79095006,-0.54105,13.291051,0.2952125,0.069025,-0.435875
1692596285410,-0.74100006,-0.54105,12.252001,0.14575,0.1557875,-0.362725
1692596285441,-0.77400005,-0.82095003,12.84105,0.0584375,0.1909875,-0.2072125
1692596285471,-0.54195005,-1.2730501,13.21905,-0.0176,0.2140875,0.0292875
1692596285500,-0.9990001,-1.33305,14.127001,-0.1310375,0.22013749,0.4917
1692596285531,-0.85800004,-1.3090501,13.401001,-0.2578125,0.1903,0.758175
1692596285560,-1.167,-1.2919501,13.684051,-0.3036,0.1755875,0.79461247
1692596285593,-1.2,-1.35,13.98795,-0.3199625,0.163075,0.7679375
1692596285622,-0.50895,-1.8070501,13.222051,-0.304425,0.1420375,0.7022125
1692596285654,-0.31695002,-1.7520001,11.379001,-0.303325,0.1021625,0.7189875
1692596285679,-0.33600003,-1.8829501,10.852051,-0.3240875,0.047575,0.7299875
1692596285716,-0.41805002,-1.5990001,10.08405,-0.37675,-0.078375,0.7470375
1692596285747,-0.69495004,-0.57705003,8.57295,-0.3903625,-0.1128875,0.75075
1692596285775,0.17295001,-0.273,7.24695,-0.3466375,-0.1073875,0.6441875
1692596285807,0.89295006,0.16395001,6.426,-0.2616625,-0.06985,0.471625
1692596285841,0.201,0.79395,5.55,-0.0185625,-0.050049998,-0.0512875
1692596285871,1.13505,0.62205005,7.03905,0.2398,-0.13585,-0.7338375
1692596285903,1.6500001,0.65505004,10.452001,0.3799125,-0.1494625,-1.150325
1692596285933,0.25395,1.2919501,7.3960505,0.501875,-0.1753125,-1.5956875
1692596285965,0.61605,0.97095007,5.5290003,0.365475,-0.1167375,-2.347125
1692596285992,1.1179501,0.30105,6.5550003,0.5465625,-0.251625,-2.6453624
1692596286030,0.043050002,0.35805002,9.342,0.5330875,-0.265925,-2.3434124
1692596286059,0.84795004,-0.031050002,8.602051,0.44288749,-0.2765125,-1.957725
1692596286091,0.71805006,0.528,8.358001,0.2366375,-0.19855,-1.2159125
1692596286121,-0.74805003,1.0210501,6.56295,0.1661,-0.174625,-0.9609875
1692596286149,-0.69000006,1.1080501,8.134951,0.1291125,-0.1771,-0.7832
1692596286180,1.44105,0.49005002,11.983951,0.1672,-0.0488125,-0.6903875
1692596286209,0.77295005,0.98805004,10.866,0.2143625,0.1395625,-0.66715
1692596286240,-0.20505,1.2270001,9.49005,0.18095,0.0919875,-0.535975
1692596286269,0.30405003,0.50205004,9.30105,0.134475,-0.053075,-0.4169
1692596286300,0.19695,0.63405,8.578051,0.1496,-0.0427625,-0.5225
1692596286328,-0.76500005,0.86295,7.3240504,0.1546875,-0.0031625,-0.6249375
1692596286361,-0.74295,0.022950001,8.367001,0.1101375,0.0743875,-0.6048625
1692596286388,0.18705001,-0.933,10.1320505,0.0801625,0.2426875,-0.4640625
1692596286424,0.53895,-1.1530501,10.110001,0.006875,0.3276625,-0.2649625
1692596286456,-0.30495003,-0.43305,9.648001,-0.3524125,0.2838,0.5168625
1692596286480,-0.54195005,0.0139500005,10.038,-0.526075,0.176275,0.8732625
1692596286512,-0.45105,0.43995002,10.65795,-0.5765375,0.0666875,0.9889
1692596286547,-1.03005,0.98100007,9.528001,-0.462,0.0969375,0.8006625
1692596286577,-1.3800001,1.3420501,9.379951,-0.1359875,0.1997875,0.2706
1692596286607,-1.4089501,0.64995,8.590051,0.032175,0.2638625,-0.0273625
1692596286640,-0.54705,0.25800002,10.648951,0.3009875,0.412775,-0.5339125
1692596286674,0.13905,1.09305,9.47805,0.3146,0.46035,-0.5119125
1692596286706,-0.23805001,1.9410001,8.57295,0.241175,0.3905,-0.3007125
1692596286733,0.3,2.0629501,8.83695,0.219175,0.1062875,-0.0573375
1692596286762,0.22500001,1.6870501,10.29705,0.32587498,-0.025024999,-0.1758625
1692596286795,0.034050003,1.1389501,10.95705,0.5504125,-0.2101,-0.5104
1692596286826,-0.45795003,1.11705,10.464001,0.5605875,-0.267025,-0.5245625
1692596286851,-0.77205,1.33305,9.394051,0.3773,-0.257675,-0.2594625
1692596286880,-0.75495005,1.6819501,8.57295,0.26345,-0.1903,-0.124575
1692596286915,-0.89895004,1.725,8.367001,0.1882375,-0.0977625,-0.0583
1692596286939,-0.58305,1.47105,9.45705,0.198,0.076725,-0.1238875
1692596286972,-0.53505003,1.47405,9.64995,0.2756875,0.1612875,-0.2305875
1692596287004,-0.57795,1.86195,9.291,0.2652375,0.1670625,-0.1898875
1692596287035,-0.492,2.21805,8.932051,0.1925,0.1285625,-0.0251625
1692596287063,-0.51795,2.53905,7.8790503,0.1912625,0.098175,-0.02805
1692596287094,-0.40605003,2.9530501,7.431,0.30415,0.019524999,-0.25905
1692596287127,0.37605003,2.283,8.928,0.4098875,-0.0251625,-0.425975
1692596287155,-0.027,2.9239502,8.67405,0.600325,-0.125675,-0.6353875
1692596287186,-0.18495001,3.7050002,8.19495,0.6180625,-0.188375,-0.5797
1692596287218,0.20895001,3.9490502,5.787,0.58547497,-0.27115,-0.33715
1692596287245,0.37905002,3.693,5.6460004,0.6353875,-0.292325,-0.3817
1692596287281,0.67305005,2.2780502,7.39095,0.8732625,-0.41195,-0.7550125
1692596287312,1.10895,1.5769501,9.79905,0.951775,-0.48125,-0.83393747
1692596287342,-0.55200005,0.71505004,7.116,0.6923125,-0.445775,-0.359425
1692596287372,0.06705,0.41805002,9.837001,-6.875E-4,-0.1428625,0.64625
1692596287402,1.9339501,-0.24105,10.990951,-0.3155625,0.0972125,1.0637
1692596287435,0.66105,-0.37095,7.9530005,-0.80808747,0.4761625,1.8162374
1692596287463,-1.12395,0.034950003,9.4470005,-1.0124125,0.451275,2.25115
1692596287495,-0.57105005,-1.50495,13.36305,-1.1889625,0.28861248,2.7157624
1692596287529,-0.59205,-1.93605,12.123,-1.2032624,0.3686375,2.757425
1692596287553,-0.88695,-1.40505,12.184951,-1.3248125,0.6056875,2.9754999
1692596287586,-0.54705,-0.87600005,11.352,-1.3783,0.6084375,3.0465875
1692596287619,-0.58305,-0.59805006,10.342051,-1.249325,0.4807,2.7157624
1692596287650,-0.09900001,-0.933,11.094001,-0.87642497,0.3427875,1.8726125
1692596287686,0.13695,-0.9979501,11.865001,-0.6942375,0.2800875,1.4284875
1692596287711,0.11805001,-0.78705,11.686951,-0.553025,0.210925,1.0591625
1692596287743,-0.513,-0.10695001,10.902,-0.390775,0.0435875,0.61448747
1692596287775,0.16800001,-0.22200002,11.311951,-0.2451625,-0.059675,0.3529625
1692596287807,0.003,0.076050006,11.376,-0.1461625,-0.061325,0.21835
1692596287839,-0.432,0.17595,11.0460005,0.032449998,-0.044,-0.0391875
1692596287868,-0.72195005,0.162,11.094001,0.1450625,-0.0323125,-0.2102375
1692596287898,-0.53505003,0.22005,11.343,0.1835625,1.375E-4,-0.2341625
1692596287927,-0.45600003,0.22695,11.509951,0.20735,0.0501875,-0.2355375
1692596287953,-0.35805002,0.54,10.89,0.2226125,0.126775,-0.277475
1692596287982,-0.19695,0.804,10.246051,0.2248125,0.128975,-0.3221625
1692596288010,-0.078,1.1839501,10.024051,0.2327875,0.1126125,-0.3817
1692596288039,0.09105001,1.218,9.724951,0.2921875,0.0506,-0.604725
1692596288068,-0.597,1.1149501,10.92105,0.4027375,-0.0325875,-0.9109375
1692596288096,0.39795002,0.88005006,11.604,0.4448125,-0.062975,-1.0055375
1692596288125,0.33495003,0.48795003,10.239,0.4591125,-0.0716375,-1.0296
1692596288152,0.84795004,0.33405003,11.20905,0.386375,-0.084425,-0.8754625
1692596288183,1.1230501,0.39405003,12.307051,0.3023625,-0.133925,-0.7079875
1692596288210,1.06095,0.17595,12.23805,0.11385,-0.2795375,-0.31501248
1692596288240,-0.264,-0.18900001,11.58705,0.039325,-0.34155,-0.1469875
1692596288270,0.192,-1.761,14.7630005,-0.087175,-0.3498,0.11935
1692596288299,-0.13005,-2.2399502,16.35495,-0.170225,-0.269225,0.2677125
1692596288327,-0.57600003,-1.4599501,14.313001,-0.296175,-0.1628,0.4852375
1692596288357,-1.3369501,-0.51000005,12.160951,-0.5944125,0.01375,1.002925
1692596288387,-0.094050005,-1.1560501,11.995951,-0.645425,0.09405,1.1165
1692596288416,0.99600005,-2.16405,11.43795,-0.493625,0.24915,0.9862875
1692596288445,0.80505,-2.2090502,12.937051,-0.41195,0.2539625,0.8916875
1692596288473,-0.16905001,-1.47405,12.303,-0.433125,0.0369875,0.82225
1692596288504,-0.40800002,-0.78000003,11.079,-0.4761625,-0.090475,0.8025875
1692596288532,0.50100005,-0.112050004,8.68305,-0.41181248,-0.14465,0.69465
1692596288560,0.37395,0.48000002,7.42395,-0.3020875,-0.0974875,0.578325
1692596288589,-0.89895004,1.7560501,6.49095,-0.1694,-0.0598125,0.391325
1692596288620,-1.2409501,2.76195,7.7140503,0.1475375,-0.006325,-0.230725
1692596288648,-0.99405,3.0630002,10.34895,0.60995,0.2168375,-1.0784125
1692596288676,1.233,2.5099502,9.84405,0.88275,0.34141248,-1.5910125
1692596288704,1.8700501,1.6030501,5.88,1.12475,0.3843125,-2.1393626
1692596288733,-0.16905001,2.292,4.66695,1.3034999,0.0059125,-2.80555
1692596288763,-1.03995,2.48895,5.7660003,1.235025,-0.32065,-2.7314374
1692596288792,-0.28605002,1.3450501,5.7990003,1.0663126,-0.5522,-2.3188
1692596288821,0.075,0.69105005,5.754,1.0241,-0.403425,-2.2257125
1692596288849,-0.68295,0.55905,7.8360004,0.807125,-0.1073875,-1.9097375
1692596288880,-0.777,1.19895,8.248051,0.570625,-0.0429,-1.4949
1692596288908,-0.07305,1.4470501,7.8600006,0.302225,0.02145,-0.98395
1692596288941,-0.73095006,2.66295,6.56295,-0.053625,0.1793,-0.2319625
1692596288969,-1.593,2.9509501,6.94605,0.059675,0.124437496,-0.308
1692596288997,-1.1689501,1.7080501,12.325951,0.2721125,0.071225,-0.644875
1692596289027,-0.28095,1.1530501,12.54405,0.5647125,0.1353,-1.2486374
1692596289061,-0.054,1.6560001,9.483001,0.4104375,0.19855,-1.068375
1692596289088,-0.010950001,1.9050001,8.614051,0.117837496,0.198,-0.63195
1692596289117,-0.42000002,1.9090501,9.724951,-0.2179375,-0.011825,-0.159775
1692596289144,-1.57095,1.8210001,9.04695,-0.1931875,-0.1265,-0.2222
1692596289172,-1.9950001,1.8379501,8.937,-0.0636625,-0.2003375,-0.425975
1692596289201,-0.13305001,1.0330501,10.95495,-0.0160875,-0.1291125,-0.554675
1692596289233,0.34305,1.00695,9.62895,0.0033,0.0724625,-0.7310875
1692596289262,0.15795001,1.04295,10.43595,-0.0721875,0.0765875,-0.5548125
1692596289292,0.73995006,0.648,11.7619505,-0.2893,-0.0968,0.0809875
1692596289317,0.55995005,1.35405,9.769951,-0.353925,-0.1846625,0.2858625
1692596289348,-0.058050003,2.0359502,7.9800005,-0.3832125,-0.2517625,0.41635
1692596289378,0.043050002,2.1030002,9.064051,-0.2924625,-0.3276625,0.41635
1692596289406,0.73800004,1.8970501,9.898951,-0.15235,-0.3216125,0.1969
1692596289436,1.3789501,2.11305,9.418051,0.13859999,-0.2655125,-0.2583625
1692596289465,0.92700005,2.2450502,9.424951,0.2057,-0.2696375,-0.2644125
1692596289493,0.79995006,2.1319501,9.259951,0.23485,-0.3898125,-0.07205
1692596289526,0.48600003,2.1700501,8.587951,0.2437875,-0.4481125,-0.0719125
1692596289553,0.59400004,2.05995,9.109051,0.250525,-0.4362875,-0.202675
1692596289581,0.49095002,2.08395,8.986951,0.2443375,-0.380325,-0.2476375
1692596289612,0.651,2.1030002,8.343,0.2151875,-0.2492875,-0.260425
1692596289640,0.50295,2.151,8.04195,0.1945625,-0.199925,-0.233475
1692596289668,0.25905,2.21295,7.9009504,0.179575,-0.1703625,-0.2102375
1692596289699,0.546,2.08395,7.97205,0.1819125,-0.14739999,-0.23375
1692596289727,0.70395005,2.8980002,7.965,0.2057,-0.102575,-0.2866875
1692596289756,0.75405,3.51795,7.5370502,0.22013749,-0.088825,-0.2913625
1692596289784,0.14400001,4.4490004,6.6510005,0.25795,-0.1079375,-0.31955
1692596289814,0.49800003,4.617,5.5189505,0.4994,-0.2481875,-0.659725
1692596289839,1.1520001,4.36095,6.3739505,0.698225,-0.330825,-0.9692375
1692596289865,1.2859501,4.191,7.28805,0.9046125,-0.4081,-1.266375
1692596289897,1.0009501,4.15905,8.39595,1.1496375,-0.5806625,-1.457225
1692596289925,1.389,3.216,7.9600506,1.1136125,-0.646525,-1.320825
1692596289953,0.81900007,2.25195,8.832001,0.7789375,-0.6004625,-0.8353125
1692596289983,0.462,0.49005002,10.431001,0.55027497,-0.48839998,-0.5190625
1692596290014,1.29795,-0.84195006,8.595,0.2619375,-0.18865,0.2673
1692596290041,0.75405,-2.0059502,9.088051,0.4615875,-0.1431375,0.7561125
1692596290076,1.06605,-3.58995,13.9800005,0.860475,-0.0952875,2.08175
1692596290106,0.49305,-3.62805,13.732051,1.101375,-0.0864875,2.9129374
1692596290135,-1.0350001,-2.15205,11.472,0.8130375,0.0715,4.6024
1692596290163,-0.786,-1.26405,11.500951,-0.1181125,0.3004375,5.089425
1692596290194,-1.1839501,-0.51405,11.0119505,-0.8102875,0.510125,4.8604875
1692596290222,-1.014,-0.684,11.58705,-0.792825,0.5676,4.34445
1692596290247,0.0049500004,-1.21605,12.427051,-0.522775,0.5949625,3.0982876
1692596290280,-0.079950005,-1.0030501,12.280951,-0.388575,0.5707625,2.5707
1692596290307,-0.20205002,-0.48600003,11.580001,-0.2985125,0.5042125,2.1542125
1692596290338,-0.32895002,-0.06705,10.869,-0.2110625,0.2849,1.436325
1692596290366,-0.528,0.52395004,11.014951,-0.152625,0.20019999,1.0802
1692596290397,-0.46305,0.72,10.64595,0.0433125,0.138325,0.432575
1692596290425,0.028950002,0.42795002,11.137051,0.1593625,0.143275,0.119625
1692596290453,0.38295,0.50205004,12.09405,0.3438875,0.149325,-0.4219875
1692596290481,-0.07005,0.84405005,10.40205,0.3826625,0.1155,-0.60101247
1692596290512,0.112950005,1.00905,12.328951,0.3804625,-0.0,-0.865425
1692596290540,0.49095002,0.72705,12.9199505,0.3829375,-0.0430375,-0.968
1692596290570,0.33495003,0.37995002,12.087001,0.407275,-0.095425,-1.013925
1692596290598,0.48900002,-0.73200005,14.81595,0.3848625,-0.121,-0.93225
1692596290629,0.77595,-1.7539501,15.034051,0.2149125,-0.1555125,-0.583825
1692596290657,-0.48495004,-1.299,13.911,0.061049998,-0.16335,-0.33385
1692596290686,-0.06795,-1.194,14.41905,-0.12045,-0.1643125,-0.0556875
1692596290713,-0.97005004,0.12105001,12.7570505,-0.3876125,-0.1051875,0.4112625
1692596290743,-1.16205,0.69600004,11.07495,-0.4148375,-0.042625,0.52305
1692596290769,-0.84795004,0.65805006,11.39805,-0.364925,0.035475,0.5110875
1692596290799,-0.13005,-0.16995001,12.208951,-0.1012,0.2168375,0.131175
1692596290829,0.18900001,-0.55695003,10.864051,0.1005125,0.26221249,-0.147125
1692596290859,-0.33900002,-0.72495,10.339951,0.0983125,0.1989625,-0.0710875
1692596290887,-0.753,-1.1010001,10.55805,0.046475,0.1128875,0.083325
1692596290916,0.043050002,-2.841,13.542001,-0.0963875,0.0163625,0.3922875
1692596290944,0.54405004,-2.1679502,12.444,-0.19167499,0.020624999,0.5528875
1692596290974,-0.72405005,0.33705002,8.04705,-0.4613125,-0.0386375,0.840675
1692596291003,-0.64305,0.57405,6.6559505,-0.5374875,-0.1067,0.807675
1692596291030,-0.52305,0.28695002,6.8280005,-0.488675,-0.1263625,0.6127
1692596291062,0.26805001,1.3969501,9.4800005,-0.1126125,0.021175,0.0493625
1692596291089,0.87900007,2.661,10.684051,0.2525875,0.131175,-0.5781875
1692596291119,0.78300005,2.53695,8.608951,0.4439875,0.0906125,-1.0657625
1692596291148,0.78795004,1.6390501,9.33705,0.8647375,-0.16445,-2.276175
1692596291176,0.27105,2.33295,11.415001,0.963325,-0.3058,-2.6596625
1692596291207,0.16995001,1.7200501,6.3349504,0.9491625,-0.4063125,-2.7682874
1692596291236,0.18,1.0309501,3.8580003,0.7899375,-0.4236375,-2.5293124
1692596291264,0.49305,0.50205004,8.596951,0.7203625,-0.368775,-2.3637624
1692596291293,1.36695,-0.177,9.48495,0.5473875,-0.2805,-1.9276125
1692596291322,0.54405004,0.73695004,8.35095,0.38334998,-0.2638625,-1.547425
1692596291358,0.55995005,0.92595005,8.281051,0.0034375,-0.2706,-0.70042497
1692596291383,0.28005,1.251,8.925,-0.0903375,-0.2673,-0.491425
1692596291409,0.18195,1.33305,9.082951,-0.0903375,-0.2673,-0.491425
1692596291437,1.092,0.68895006,7.9819503,-0.0061875,-0.160875,-0.56155
1692596291467,1.1329501,0.64095,8.169001,0.04675,-0.1329625,-0.5737875
1692596291501,0.80895007,0.55905,8.80305,0.06765,-0.150425,-0.271975
1692596291530,0.11505,0.61695004,8.62395,0.028875,-0.18727499,-0.039049998
1692596291557,-0.24000001,0.65805006,9.375,-0.0658625,-0.1843875,0.1969
1692596291585,0.060000002,0.41805002,9.625951,-0.0972125,-0.103675,0.1973125
1692596291610,0.094050005,0.54,10.225051,-0.132275,0.1434125,0.1243
1692596291650,-0.492,0.74895006,9.28905,-0.1447875,0.22935,0.103125
1692596291675,-0.80805004,0.507,8.647051,-0.15345,0.2792625,0.1012
1692596291701,-0.84795004,0.33,8.10705,-0.1406625,0.3040125,0.0873125
1692596291731,1.1659501,-0.45900002,10.665001,-0.1164625,0.40039998,0.0554125
1692596291764,0.69705003,0.12900001,10.207951,-0.139425,0.4038375,0.113299996
1692596291792,-1.116,0.88695,9.354,-0.2684,0.159775,0.43353748
1692596291820,-1.2,0.68100005,8.592,-0.2990625,0.0187,0.5025625
1692596291851,0.27105,-0.423,9.945001,-0.1654125,0.07645,0.157025
1692596291881,0.20400001,-0.12705001,10.062,-0.087037496,0.195525,-0.0493625
1692596291907,-0.64695,0.55905,9.604951,-0.117699996,0.2259125,-0.0378125
1692596291938,-0.77205,0.63795,9.660001,-0.15895,0.1632125,0.0537625
1692596291969,-0.09195001,0.303,9.19095,-0.0983125,0.14355,-0.0180125
1692596291998,0.462,0.38700002,9.660001,-0.03575,0.1747625,-0.139425
1692596292026,0.38805002,0.57600003,9.904051,0.005225,0.1733875,-0.22715
1692596292058,-0.42195,1.4310001,9.17205,0.0246125,0.0155375,-0.1832875
1692596292089,0.12705001,1.28505,9.97395,0.0963875,-0.1233375,-0.154825
1692596292114,0.49095002,1.0309501,10.390051,0.177925,-0.124575,-0.2690875
1692596292138,0.46905002,0.693,10.504951,0.257125,-0.1142625,-0.3971
1692596292165,-0.10605001,1.0720501,9.591001,0.2946625,-0.1208625,-0.438075
1692596292191,-0.36705002,1.263,9.232051,0.2303125,-0.160325,-0.2707375
1692596292223,0.22500001,0.744,9.97095,0.1909875,-0.1518,-0.232925
1692596292246,0.20400001,0.78000003,9.828,0.1755875,-0.0834625,-0.32505
1692596292278,-0.53205,1.3560001,9.315001,0.15785,-0.065175,-0.3235375
1692596292313,-0.69495004,1.6459501,8.899051,0.1076625,-0.0452375,-0.2937
1692596292336,-0.39105,1.5289501,8.99205,0.1326875,0.0066,-0.4059
1692596292362,-0.015000001,1.3249501,8.82705,0.193875,0.0763125,-0.605275
1692596292390,0.031050002,1.23405,9.49005,0.2968625,0.110275,-0.95205
1692596292418,-0.38595003,1.4140501,8.253,0.293425,0.05555,-0.9625
1692596292448,-0.123,1.8349501,7.8600006,0.231,-0.0526625,-0.785675
1692596292473,0.28005,2.1100502,8.262,0.22825,-0.07095,-0.7607875
1692596292505,0.24000001,2.42895,9.31995,0.2586375,-0.0826375,-0.7907625
1692596292531,-0.80295,3.14505,8.37705,0.374825,-0.155925,-0.82115
1692596292560,-0.91305006,3.59205,6.87405,0.4389,-0.1978625,-0.8212875
1692596292588,-0.22605,3.01095,6.3520503,0.6367625,-0.1992375,-1.155825
1692596292618,-0.01305,2.57505,6.5820003,0.7803125,-0.1808125,-1.4564
1692596292647,0.795,1.3060501,7.4670005,0.91368747,-0.18259999,-1.5470124
1692596292676,0.43395,1.01205,6.333,0.8094625,-0.1915375,-1.230625
1692596292705,0.20595,0.63795,7.2019506,0.5979875,-0.195525,-0.7640875
1692596292733,0.72300005,-0.55305004,9.271951,0.0584375,-0.1461625,0.211475
1692596292764,0.14895001,-2.09205,10.93305,-0.1903,-0.07425,0.629475
1692596292786,-0.35295,-2.4439502,10.14795,-0.454575,0.0196625,1.111
1692596292820,1.2070501,-2.50305,11.65095,-1.144825,0.23265,2.5136375
1692596292848,1.056,-2.19195,11.637,-1.68905,0.307725,3.7422
1692596292876,-0.59505004,-1.5460501,9.816001,-1.7617875,0.1918125,3.9375875
1692596292903,-0.72405005,-1.90005,11.479051,-1.7015625,0.0242,3.8335
1692596292930,-0.78105,-2.19195,13.468051,-1.333475,-0.05555,3.1120374
1692596292956,-0.73095006,-2.5819502,12.046051,-1.1316249,0.0614625,2.6938999
1692596292987,0.003,-2.2039502,12.3,-0.85882497,0.2453,2.0425625
1692596293016,-0.42495003,-1.7350501,11.887951,-0.7808625,0.2492875,1.8275125
1692596293043,-0.37005,-1.6990501,11.974951,-0.708125,0.210375,1.629375
1692596293073,0.33795002,-1.3950001,11.40705,-0.4921125,0.120175,1.0954624
1692596293101,0.04605,-1.2199501,11.701951,-0.3685,0.100237496,0.7976375
1692596293130,-0.52995,-1.1530501,11.6320505,-0.1639,0.04235,0.3510375
1692596293157,-0.36495003,-1.3620001,10.65795,-0.07535,0.015125,0.22659999
1692596293184,-0.13005,-1.4599501,11.335951,-5.5E-4,0.0160875,0.1607375
1692596293211,0.072000004,-1.6489501,12.09195,0.0605,0.063525,0.095699996
1692596293244,-0.35295,-0.92595005,10.56,0.0528,0.068475,0.039325
1692596293275,-0.44400004,-0.49500003,9.45405,0.0363,0.0455125,-0.11165
1692596293304,-0.19305001,-1.098,10.041,0.0545875,0.0507375,-0.18095
1692596293332,1.6540501,-1.9740001,12.468,0.11935,0.1005125,-0.286275
1692596293360,1.2090001,-1.8690001,11.611051,0.1170125,0.08635,-0.3067625
1692596293389,-0.11400001,-1.17495,11.005051,-4.125E-4,-0.1606,-0.232925
1692596293419,0.23505001,-1.6560001,13.1640005,-0.0598125,-0.2872375,-0.1507
1692596293446,0.43395,-2.367,13.24995,-0.0605,-0.2633125,-0.0055
1692596293474,0.42900002,-2.5819502,13.440001,-0.043449998,-0.194975,0.058575
1692596293502,0.30195,-2.4750001,13.32495,-0.0595375,-0.1563375,0.1417625
1692596293532,0.69195,-2.14905,12.43395,-0.170775,-0.1368125,0.2784375
1692596293563,-0.18105,-1.4430001,12.228001,-0.2118875,-0.126225,0.2718375
1692596293592,-0.72405005,-1.39995,12.03705,-0.1940125,-0.109725,0.1788875
1692596293621,-0.822,-1.8550501,11.89305,-0.136125,-0.0682,0.09185
1692596293647,0.177,-2.5150502,10.876051,-0.011825,0.136125,-0.15785
1692596293680,0.58005005,-3.2980502,11.974951,-1.375E-4,0.2217875,-0.2184875
1692596293709,0.41700003,-3.3439503,10.842001,-0.041249998,0.232925,-0.1859
1692596293737,-0.054,-3.4249501,10.45905,-0.2393875,0.050049998,0.083325
1692596293764,-0.01305,-3.561,12.85095,-0.3454,-0.0567875,0.26427498
1692596293794,-0.93705004,-2.50605,11.391001,-0.4774,-0.16499999,0.6450125
1692596293824,-0.50895,-2.5129502,9.79395,-0.49005,-0.16445,0.7533625
1692596293851,0.024,-2.86695,10.099951,-0.3821125,-0.0295625,0.6105
1692596293882,0.24705002,-1.4790001,9.89505,-0.3004375,0.0482625,0.4668125
1692596293908,-0.95400006,0.59505004,6.9259505,-0.2352625,0.075075,0.3614875
1692596293942,-0.43695003,1.62495,7.3429503,-0.0572,0.054449998,0.096525
1692596293968,-0.10605001,1.7869501,9.516001,0.427625,0.2743125,-0.6771875
1692596293998,0.85200006,3.1729503,7.6450505,0.75185,0.4147,-1.2793
1692596294023,1.44105,2.97195,6.189,1.056825,0.4717625,-1.9316
1692596294051,0.65595,1.7950501,7.0600505,1.5191,0.2701875,-3.01675
1692596294082,0.63705003,1.014,7.5940504,1.6539875,0.0578875,-3.274425
1692596294113,0.85005003,0.86100006,5.682,1.5587,-0.295625,-2.8587625
1692596294142,-1.2030001,0.77505004,5.45205,1.3347125,-0.35805,-2.3304875
1692596294173,-1.65495,0.86100006,6.4090505,0.85153747,-0.3042875,-1.5197875
1692596294200,1.8700501,-0.34005,11.84805,0.681175,-0.115225,-1.435775
1692596294232,-0.19500001,0.46605003,10.49505,0.390225,0.3507625,-1.2984124
1692596294260,-2.46195,1.84695,6.19395,0.192225,0.351725,-0.85153747
1692596294289,-1.2430501,1.368,7.12305,0.016224999,0.25135,-0.34485
1692596294317,0.68700004,-0.26805001,10.38,0.0385,0.3408625,-0.3163875
1692596294349,0.34995002,-0.47595003,9.31305,0.156475,0.44935,-0.597575
1692596294378,-1.3969501,-0.17400001,8.7310505,0.0378125,0.28435,-0.3161125
1692596294404,-1.4640001,-0.30795002,9.406051,-0.17325,0.11495,0.1428625
1692596294434,0.23295002,-1.2730501,11.200951,-0.4565,0.0785125,0.6595875
1692596294464,0.24195,-0.75105006,9.76305,-0.515625,0.17325,0.7357625
1692596294492,-0.58305,-0.055050004,9.768001,-0.6287875,0.12155,0.9964625
1692596294520,-0.573,0.11400001,10.78005,-0.6411625,-0.0086624995,1.05655
1692596294554,-0.47700003,0.25305,10.902,-0.4373875,-0.08855,0.653125
1692596294580,-1.0180501,0.62595004,9.571051,-0.27981248,-0.0427625,0.3199625
1692596294607,-1.3579501,1.05495,8.7310505,-0.0196625,0.0452375,-0.2534125
1692596294637,0.34500003,0.39405003,10.371,0.0903375,0.0977625,-0.5000875
1692596294667,1.06605,-0.0139500005,11.527051,0.1953875,0.1546875,-0.7145875
1692596294694,0.08400001,0.22905001,10.01895,0.2838,0.080025,-0.776325
1692596294731,0.321,0.21495001,9.234,0.150425,-0.2167,-0.3900875
1692596294760,0.94095004,0.10005,9.904051,0.09185,-0.2842125,-0.27115
1692596294787,0.42900002,0.6,9.30105,0.050049998,-0.290125,-0.1412125
1692596294819,-0.53505003,0.97095007,8.18805,0.0380875,-0.30415,-0.036575
1692596294846,-0.573,0.71505004,8.590051,0.080025,-0.2880625,-0.0023375
1692596294881,0.32295,0.018000001,9.555,0.14025,-0.19855,-0.1296625
1692596294908,0.864,-0.09105001,10.503,0.1903,-0.07975,-0.2660625
1692596294938,0.71400005,0.73200005,9.847051,0.128975,0.0039875,-0.2041875
1692596294968,0.16995001,1.419,9.660001,-0.01925,-0.1706375,0.1335125
1692596294996,-0.36195,1.605,9.966001,-0.00275,-0.2380125,0.13585
1692596295024,-0.26700002,1.27995,9.397051,0.0834625,-0.2435125,-0.0251625
1692596295054,0.44805002,0.77205,9.49005,0.3036,-0.1098625,-0.5665
1692596295082,0.55305004,0.78195006,8.887051,0.3546125,-0.0380875,-0.7294375
1692596295111,0.19695,1.0720501,8.63805,0.28765,-0.029975,-0.6193
1692596295141,-0.26895002,1.404,8.46105,0.22715,-0.07535,-0.498025
1692596295170,-0.34095,1.4070001,8.346001,0.192225,-0.105325,-0.432025
1692596295199,0.25395,1.1080501,8.24505,0.2179375,-0.0400125,-0.4346375
1692596295226,0.28800002,1.524,8.241,0.2468125,0.0226875,-0.452375
1692596295255,0.22800002,1.9600501,7.8190503,0.2457125,0.047575,-0.36135
1692596295284,-0.19305001,2.5099502,7.80705,0.24447499,0.0099,-0.25753748
1692596295315,-0.43695003,2.7829502,7.7140503,0.3645125,-0.051425,-0.20693749
1692596295344,0.33795002,2.2999501,8.217,0.4791875,-0.048675,-0.33825
1692596295373,0.39795002,3.1279502,8.028001,0.689975,-0.0160875,-0.7434625
1692596295401,0.59895,2.8140001,8.134951,0.73755,-0.0374,-0.8320125
1692596295429,-0.087000005,1.8970501,8.28405,0.72325,-0.1595,-0.6645375
1692596295460,-0.75000006,0.53505003,8.04195,0.66605,-0.1940125,-0.4984375
1692596295486,-0.48705003,-1.70595,9.53295,0.55233747,-0.1639,-0.3139125
1692596295517,-1.69095,-1.9740001,9.828,0.0341,0.1318625,0.1885125
1692596295545,-1.296,-1.8600001,9.897,-0.410025,0.356675,0.6499625
1692596295575,0.23700002,-2.7280502,9.768001,-1.3135375,0.7436,1.9152375
1692596295605,0.44595003,-2.8860002,11.235001,-1.5824875,0.8094625,2.46565
1692596295634,-0.47700003,-2.32605,11.292001,-1.8352125,0.51205,3.303025
1692596295662,-1.3750501,-1.5340501,10.12395,-1.86285,0.237325,3.5407624
1692596295696,-1.1209501,-1.9620001,10.134001,-1.7865375,0.0275,3.5366375
1692596295720,-1.1209501,-1.9620001,10.134001,-1.7865375,0.0275,3.5366375
1692596295758,-0.70995003,-2.4079502,12.781051,-1.0351,0.0270875,2.3399749
1692596295783,-0.62100005,-2.0650501,12.68595,-0.96305,-0.0317625,2.1118624
1692596295811,-0.30495003,-1.1149501,11.494051,-0.7673875,-0.1236125,1.565025
1692596295838,-0.61395,-0.69600004,11.503051,-0.5993625,-0.1144,1.215775
1692596295865,-0.91095006,-0.79200006,11.721001,-0.4041125,-0.0897875,0.8705125
1692596295896,0.42900002,-1.7209501,12.829051,-0.0210375,-0.0209,0.2693625
1692596295925,0.25395,-1.6540501,12.145051,0.116875,0.0174625,0.01045
1692596295953,-0.85305005,-1.6300501,12.195001,0.1882375,-0.0193875,-0.308825
1692596295983,-0.73395,-1.18005,12.439051,0.15125,-0.082225,-0.3433375
1692596296010,-0.55395,-1.59105,11.824051,0.08855,-0.095425,-0.28215
1692596296040,-0.55200005,-2.18505,11.994,0.080575,-0.0455125,-0.245025
1692596296069,-0.43905002,-2.53005,12.163951,0.0347875,0.0254375,-0.1304875
1692596296099,-0.23595001,-2.6209502,12.420001,0.0347875,0.0254375,-0.1304875
1692596296131,0.37095,-3.0970502,14.067,-0.1903,-0.0273625,0.29095
1692596296159,-0.95400006,-2.7,13.878,-0.2539625,-0.0727375,0.34595
1692596296187,-1.8559501,-2.13,13.984951,-0.30635,-0.1271875,0.2776125
1692596296216,-1.332,-1.9410001,13.305,-0.28545,-0.0793375,0.2195875
1692596296245,-0.030000001,-2.7480001,11.824051,-0.2277,0.0308,0.1577125
1692596296273,0.17505,-2.9869502,12.456,-0.0895125,0.22935,0.0028875
1692596296303,-0.84405005,-2.45805,12.172951,-0.0851125,0.18933749,-0.029424999
1692596296332,-0.98205006,-2.5780501,11.412001,-0.130075,0.0699875,0.01485
1692596296360,-0.58305,-3.4750502,8.710051,-0.206525,-0.082499996,0.239525
1692596296390,-0.126,-3.5779502,9.1380005,-0.247775,-0.0356125,0.4899125
1692596296418,-0.441,-3.219,9.828,-0.3312375,-0.049225,0.6419875
1692596296446,-1.7050501,-1.93095,7.8619504,-0.4409625,-0.10065,0.78113747
1692596296476,0.65895003,-2.5800002,6.603,-0.5055875,-0.1500125,0.7750875
1692596296506,1.365,-2.1010501,8.784,-0.4252875,-0.0886875,0.5908375
1692596296535,0.18705001,0.69600004,10.2300005,-0.2448875,-0.00715,0.056649998
1692596296562,-1.50705,3.5160003,8.913,-0.1384625,-0.0482625,-0.3045625
1692596296593,-0.03195,1.7730001,9.0400505,0.4758875,0.0551375,-1.660175
1692596296621,0.034050003,0.684,5.82495,0.984225,0.3212,-2.5785375
1692596296652,2.08305,-0.62700003,6.8380504,1.5822124,0.5226375,-3.6106124
1692596296681,4.11705,-2.08695,9.516001,1.524325,0.407,-3.4123375
1692596296710,0.89595,-0.76305,8.96595,0.9257875,-0.216425,-2.0537
1692596296739,-0.549,0.83505005,8.71395,0.5517875,-0.65587497,-1.2412125
1692596296767,0.32595003,0.82500005,9.64995,0.2685375,-0.91781247,-0.6543625
1692596296797,-0.147,1.4140501,10.696051,0.195525,-0.58795,-0.4877125
1692596296825,-0.47505003,1.67505,8.7960005,0.328075,-0.300025,-0.7084
1692596296856,0.039,1.3470001,8.37705,0.5911125,0.060225,-1.251525
1692596296888,0.32295,0.813,8.454,0.67595,0.18425,-1.495725
1692596296917,0.04605,-0.354,8.145,0.709225,0.2695,-1.5146999
1692596296943,-0.31500003,0.21705002,7.005,0.6164125,0.22659999,-1.189375
1692596296971,2.0710502,-0.55005,9.02805,0.2924625,0.1368125,-0.337425
1692596296998,2.08305,-0.043050002,9.247951,0.142725,0.098725,0.004675
1692596297027,0.95505005,0.56700003,9.279,0.0089375,0.001375,0.3213375
1692596297056,0.50295,0.32700002,9.934951,-0.1648625,-0.3507625,0.7632625
1692596297086,0.075,-0.17205001,10.443001,-0.1502875,-0.4313375,0.710325
1692596297116,-0.72195005,-0.10695001,9.993,-0.056925,-0.2520375,0.32175
1692596297141,-0.37005,-0.261,9.717,-0.0647625,-0.0820875,0.2162875
1692596297173,-0.41505003,0.31500003,9.418051,-0.1357125,0.264,0.2149125
1692596297201,0.14205001,0.46605003,9.47295,-0.15015,0.37895,0.238425
1692596297239,0.35895002,0.57405,10.251,-0.0858,0.407275,0.1775125
1692596297265,0.22500001,0.76995003,10.179001,-0.0191125,0.341825,0.069575
1692596297294,-2.079,0.39405003,7.9579506,0.092125,0.1533125,-0.1315875
1692596297322,-0.22095,-0.44295,9.354,0.1265,0.10505,-0.180125
1692596297350,2.20005,-1.572,12.978001,0.13475,0.2349875,-0.18315
1692596297378,0.25605002,-0.41595003,9.885,0.061049998,0.287925,-0.0226875
1692596297406,-0.69000006,0.47805002,8.122951,-0.0831875,0.2085875,0.3157
1692596297435,-0.70695,-0.15795001,9.564,-0.3029125,-0.0627,0.8127625
1692596297465,-0.96300006,-0.117000006,10.687051,-0.26895,-0.039049998,0.703725
1692596297492,-1.4760001,0.94995004,9.65295,-0.11715,0.18535,0.3179
1692596297522,-0.77205,1.65795,8.632951,-0.0600875,0.28215,0.1837
1692596297551,-0.15900001,1.2610501,9.540001,0.160875,0.417175,-0.2564375
1692596297581,-0.28605002,1.1389501,10.323001,0.323125,0.4140125,-0.531025
1692596297607,-0.52305,1.07595,10.573951,0.5218125,0.2239875,-0.821975
1692596297636,-0.079950005,0.88305,9.909,0.5154875,0.113437496,-0.7830625
1692596297665,0.027,1.014,9.684,0.4643375,0.0408375,-0.6590375
1692596297695,-0.43905002,1.1580001,9.078,0.3317875,-0.0374,-0.361625
1692596297721,-0.72900003,1.368,8.34105,0.280775,-0.0732875,-0.2674375
1692596297751,-0.85305005,1.5000001,8.46105,0.24695,-0.0814,-0.28435
1692596297781,-0.87000006,1.4809501,8.53995,0.2673,-0.0374,-0.38279998
1692596297808,-0.54,1.3230001,9.568951,0.3036,0.0166375,-0.509025
1692596297838,-0.67800003,1.53795,8.7310505,0.353925,0.0867625,-0.6892875
1692596297868,-0.46500003,1.7850001,8.817,0.2992,0.0735625,-0.5515125
1692596297897,-0.35295,1.8210001,8.89605,0.2992,0.0735625,-0.5515125
1692596297924,-0.351,2.0389502,8.443951,0.2737625,0.03025,-0.3584625
1692596297954,-0.40995002,2.23305,8.28405,0.3323375,-0.051425,-0.385
1692596297986,-0.62100005,2.364,7.077,0.4015,-0.127875,-0.498575
1692596298008,-0.60195005,2.292,7.5820503,0.44275,-0.131725,-0.5278625
1692596298042,-0.3,2.2470002,8.32905,0.4895,-0.1199,-0.5550875
1692596298068,-0.67605,2.1780002,8.101951,0.5446375,-0.0977625,-0.634975
1692596298100,-0.46800002,2.25405,7.8240004,0.520575,-0.094325,-0.63635
1692596298128,0.24405001,1.491,7.9819503,0.4701125,-0.091025,-0.611325
1692596298156,-0.11595,0.034950003,8.691,0.3403125,-0.0886875,-0.4530625
1692596298185,0.93900007,-1.6369501,9.8560505,0.211475,-0.0760375,-0.192225
1692596298217,-0.11100001,-2.2350001,9.44505,-0.359975,0.014712499,0.9068125
1692596298250,-0.43395,-2.3790002,12.175951,-1.184425,0.097625,2.3442376
1692596298279,0.81705004,-2.7139502,12.82005,-1.5064499,0.14093749,2.87375
1692596298308,0.048,-1.6900501,10.869,-1.6966125,0.1722875,3.172675
1692596298335,-1.107,-1.43295,8.929951,-1.6902875,0.01595,3.1449
1692596298367,-0.58995,-2.049,10.6390505,-1.535875,-0.089925,2.8942375
1692596298395,-0.36195,-2.25495,11.52,-1.1358875,-0.018975,2.321275
1692596298423,-1.4130001,-1.89495,9.76305,-0.9851875,0.0570625,2.12135
1692596298453,-1.0519501,-1.7020501,10.500001,-0.8012125,0.1016125,1.79465
1692596298481,-0.513,-1.7230501,10.996051,-0.718575,0.13585,1.6358374
1692596298510,-0.33900002,-1.7020501,11.556001,-0.6263125,0.1815,1.4873375
1692596298539,-0.49695003,-1.161,11.235001,-0.429,0.1640375,1.0690625
1692596298569,-1.011,-0.98100007,11.27805,-0.225225,0.053075,0.4560875
1692596298596,-0.96105003,-0.99495006,11.56095,-0.117837496,0.02695,0.20845
1692596298625,-0.48900002,-0.873,11.41695,-0.0143,0.0319,0.026124999
1692596298655,-0.95100003,-0.864,11.57205,0.1434125,0.08855,-0.24035
1692596298683,-1.23405,-0.62205005,11.446051,0.191125,0.10395,-0.35021248
1692596298713,-1.31805,-0.62205005,11.19705,0.242275,0.1238875,-0.52195
1692596298741,-1.164,-0.80205005,10.668,0.2586375,0.15235,-0.57145
1692596298771,-1.0879501,-1.09095,11.367001,0.2706,0.2151875,-0.600325
1692596298800,-0.32205,-0.74700004,11.161051,0.2508,0.219175,-0.5913875
1692596298829,0.27795002,-1.029,12.835951,0.2171125,0.19635,-0.5605875
1692596298857,-0.042000003,-0.34905002,11.13195,0.1618375,0.062975,-0.4640625
1692596298887,-0.79800004,-0.44505003,10.522051,0.1439625,-0.1676125,-0.3700125
1692596298917,-0.015000001,-2.21595,14.545051,0.1519375,-0.2327875,-0.3306875
1692596298945,0.22995001,-2.73105,15.036,0.1577125,-0.2314125,-0.276375
1692596298973,0.036000002,-2.3410501,12.637951,0.0015125,-0.2047375,0.0922625
1692596299002,0.13695,-2.5560002,12.975,-0.1535875,-0.2413125,0.3521375
1692596299031,-0.43695003,-2.48895,13.087951,-0.36795,-0.30415,0.6004625
1692596299060,-0.76695,-2.5510502,12.86295,-0.4103,-0.30305,0.6367625
1692596299091,-1.179,-2.70495,12.37905,-0.428175,-0.279125,0.6777375
1692596299120,0.034050003,-3.08295,12.15705,-0.423775,-0.1390125,0.695475
1692596299148,-0.11400001,-2.7600002,10.684051,-0.40865,0.0028875,0.6318125
1692596299178,-0.58500004,-2.9299502,9.61695,-0.4035625,5.5E-4,0.61765
1692596299204,-1.416,-3.5830503,10.15995,-0.404525,-0.041525,0.601425
1692596299234,-1.4970001,-3.9160502,12.286051,-0.4439875,-0.08525,0.60885
1692596299264,-1.23105,-3.0730503,10.74195,-0.488675,-0.043175,0.6873625
1692596299295,-1.5880501,-1.0819501,7.7119503,-0.5361125,0.0221375,0.7819625
1692596299324,-0.22800002,0.27195,6.1870503,-0.5105375,0.1436875,0.7544625
1692596299352,0.15795001,0.65805006,8.83395,-0.165275,0.27101249,0.3757875
1692596299381,-0.492,1.266,9.727051,0.106975,0.31405,0.0320375
1692596299409,-0.55905,2.43105,8.655001,0.411125,0.3122625,-0.45993748
1692596299439,0.74205005,3.2280002,5.81295,1.0342749,0.24365,-1.66815
1692596299466,-0.90795004,2.3089502,7.431,1.3371875,0.226325,-2.25885
1692596299505,-2.5860002,1.31295,10.840051,1.833425,0.102437496,-3.2687874
1692596299527,-1.81305,0.96405005,7.9099503,1.9217,0.0515625,-3.5123
1692596299555,-0.54195005,0.555,7.22805,1.6248375,0.263725,-3.3034375
1692596299583,-0.18300001,0.31995,7.9249506,1.33705,0.3889875,-2.9566624
1692596299610,-1.45605,0.804,6.35895,0.76669997,0.3023625,-1.947
1692596299638,-0.35805002,0.95205003,8.647051,0.525525,0.16115,-1.4051125
1692596299671,0.85695004,1.04805,11.494051,0.2688125,0.0279125,-0.70785
1692596299700,-2.055,2.5489502,9.16395,0.231,-0.0433125,-0.4739625
1692596299728,-2.08395,2.0629501,8.87205,0.27307498,-0.2385625,-0.2187625
1692596299758,-0.42705002,0.75105006,9.14505,0.404525,-0.1527625,-0.4346375
1692596299785,0.25905,-0.19605,8.73795,0.5504125,0.027224999,-0.762025
1692596299815,-0.042000003,-0.057000004,7.55805,0.4197875,0.141075,-0.6028
1692596299845,-0.15195,0.25995,7.7910004,0.130075,0.0345125,-0.0650375
1692596299873,0.47895002,0.10005,9.315001,-0.34347498,-0.165275,0.7979125
1692596299904,0.34695002,0.22005,10.158001,-0.4258375,-0.2024,0.9519125
1692596299932,-0.74505,0.93795,9.87495,-0.4351875,-0.270875,0.9535625
1692596299960,-0.83205,0.89895004,9.696,-0.3991625,-0.301675,0.8578625
1692596299992,-0.98700005,0.68895006,8.566051,-0.224125,-0.194975,0.4555375
1692596300026,0.49800003,0.57900006,11.142,-0.1266375,-0.0801625,0.2226125
1692596300050,1.2930001,0.15495001,11.812051,-0.021175,0.061875,-0.054175
1692596300078,0.060000002,0.96195006,10.416,-0.0191125,0.017324999,-0.044275
1692596300109,-0.726,1.16505,8.76,-0.042075,-0.2101,0.072875
1692596300140,-0.99000007,1.14795,8.84595,-0.0133375,-0.2519,0.02805
1692596300168,0.120000005,1.0380001,9.880051,0.0468875,-0.2057,-0.0933625
1692596300196,0.55605,1.55295,9.10005,0.163625,-0.0264,-0.3576375
1692596300224,0.61995006,1.9240501,8.511001,0.1909875,-0.007975,-0.41415
1692596300253,0.031050002,2.01495,9.01395,0.2660625,-0.1590875,-0.4225375
1692596300284,-0.42000002,1.5000001,9.262951,0.3422375,-0.242275,-0.45815
1692596300314,-1.0570501,1.5139501,9.391951,0.4456375,-0.25547498,-0.5566
1692596300339,-1.4089501,1.6990501,8.98305,0.415525,-0.17765,-0.54285
1692596300371,-0.95400006,1.50495,8.688001,0.2822875,0.0702625,-0.4846875
1692596300398,-0.549,1.218,9.00195,0.2410375,0.1868625,-0.5168625
1692596300429,-0.34095,1.041,8.856,0.1896125,0.274725,-0.57035
1692596300457,-0.53505003,1.2220501,8.736,0.141075,0.23567499,-0.5193375
1692596300487,0.063,1.5120001,8.398951,0.0790625,0.1684375,-0.444125
1692596300515,0.46005002,1.6489501,8.113951,0.00715,0.034649998,-0.368225
1692596300544,-0.27405003,2.2780502,8.962951,0.02475,-0.03575,-0.3477375
1692596300575,0.15105,2.52705,8.0779505,0.1354375,-0.199925,-0.257675
1692596300609,0.13395001,3.0250502,8.073,0.3207875,-0.27885,-0.2864125
1692596300627,-0.12795001,3.2359502,7.6710005,0.3207875,-0.27885,-0.2864125
1692596300663,-0.384,3.73305,5.7180004,0.54202497,-0.3174875,-0.46915
1692596300692,0.75405,2.187,9.222,0.7814125,-0.33495,-0.78113747
1692596300720,0.453,1.0020001,10.39995,0.8787625,-0.3260125,-0.8969125
1692596300746,0.055050004,0.73695004,8.37195,0.858,-0.3168,-0.8349
1692596300777,-0.68100005,-0.54795,7.5390005,0.28435,-0.2088625,-0.106837496
1692596300807,-1.6810501,-0.88095003,7.52505,-0.087037496,-0.095975,0.2963125
1692596300835,-2.088,-2.1990001,10.744051,-0.6516125,0.2222,0.817575
1692596300866,-0.68295,-3.4819503,12.8220005,-0.933625,0.4679125,1.0839125
1692596300894,1.3960501,-3.6160502,10.668,-1.6594875,0.8872875,2.1483
1692596300923,-0.64305,-2.6260502,10.809001,-2.0164375,0.80465,2.91005
1692596300953,-2.6239502,-2.0629501,10.552951,-2.2801626,0.1098625,3.80985
1692596300979,-1.58595,-2.733,10.681951,-2.1252,-0.1236125,3.69545
1692596301010,-0.75000006,-3.0349503,11.75895,-1.558425,0.0515625,2.9984624
1692596301041,-1.5499501,-1.8690001,11.178,-1.3189,0.18645,2.6912875
1692596301069,-1.5949501,-1.4500501,10.486051,-0.9807875,0.1511125,2.0862875
1692596301097,-1.08105,-1.39005,10.837951,-0.79585,0.1164625,1.7122875
1692596301127,-0.33405003,-1.65795,11.521951,-0.589875,0.1255375,1.3404875
1692596301156,-0.89400005,-1.5480001,12.051001,-0.23045,0.1266375,0.7500625
1692596301185,-1.128,-1.52205,12.661951,-0.106975,0.0757625,0.491425
1692596301214,-0.94395006,-1.3039501,12.05805,0.0488125,-0.0177375,0.0730125
1692596301243,-1.2240001,-1.0720501,11.458051,0.0974875,-0.0273625,-0.0358875
1692596301271,-1.21695,-1.3260001,11.28495,0.1783375,0.0089375,-0.2398
1692596301298,-1.3369501,-1.491,11.649,0.2079,0.044275,-0.3573625
1692596301327,-1.0710001,-1.89795,11.773951,0.199925,0.1095875,-0.434775
1692596301353,-1.3969501,-1.6129501,11.02005,0.1634875,0.1252625,-0.412775
1692596301379,-2.1409502,-1.35,10.18395,0.11825,0.128425,-0.3903625
1692596301407,-1.1839501,-1.6150501,12.484051,0.0336875,0.1494625,-0.3273875
1692596301437,-1.31505,-1.5990001,12.0730505,0.010725,0.17875,-0.2833875
1692596301465,-1.1880001,-1.8240001,11.10105,0.0088,0.1907125,-0.2512125
1692596301494,-1.0849501,-2.049,10.864051,0.0191125,0.122925,-0.171875
1692596301523,-0.62595004,-2.8189502,14.335051,-0.0033,0.079475,-0.100237496
1692596301553,-1.4320501,-2.6140501,13.85805,-0.113575,-0.0242,0.1076625
1692596301582,-1.96395,-2.061,13.645051,-0.1852125,-0.094875,0.2409
1692596301608,-1.2070501,-2.3100002,12.328951,-0.25465,-0.1436875,0.32587498
1692596301635,0.41205,-3.1189501,11.745001,-0.223575,-0.0891,0.2498375
1692596301663,0.72105,-3.5419502,12.633,-0.183975,-0.0408375,0.18205
1692596301691,-1.2,-3.114,13.203001,-0.2396625,-0.1830125,0.257125
1692596301718,-1.9519501,-2.55795,11.958,-0.3139125,-0.3265625,0.342375
1692596301745,-1.3560001,-2.5819502,11.629951,-0.3595625,-0.3991625,0.397375
1692596301774,-0.025050001,-2.9890501,12.0730505,-0.31185,-0.216425,0.3975125
1692596301802,-1.26495,-1.65795,11.364,-0.257675,-0.0925375,0.3526875
1692596301830,-1.7700001,-0.82800007,9.35595,-0.169675,-0.059125,0.188375
1692596301858,-1.4250001,-0.52905005,6.8239503,-0.099275,-0.05335,0.0771375
1692596301885,-0.94695,-0.294,7.6210504,0.0144375,0.0290125,-0.0614625
1692596301914,-1.31805,1.0380001,7.9579506,0.2690875,0.2919125,-0.386925
1692596301942,-0.55200005,2.19705,6.25395,0.3793625,0.36685,-0.5454625
1692596301968,-0.16605,2.45295,5.9089503,0.779625,0.4376625,-1.1529375
1692596301997,0.064950004,1.7710501,7.53,1.0951875,0.4390375,-1.708575
1692596302026,-0.36195,1.1770501,6.366,1.4048375,0.3779875,-2.2946
1692596302051,-1.0849501,1.2580501,4.87995,1.6918,0.1104125,-2.7960625
1692596302080,0.453,0.64995,7.12305,1.6237375,-0.001375,-2.6437125
1692596302110,0.82905006,0.52395004,7.6249504,1.2761375,-0.1155,-2.0469625
1692596302143,0.441,0.624,8.286,1.0608125,-0.2047375,-1.6608624
1692596302171,-0.19500001,0.43995002,10.43595,0.6128375,-0.4907375,-0.8086375
1692596302197,-0.67095006,0.54300004,8.734051,0.4384875,-0.5669125,-0.5077875
1692596302226,-0.528,1.11,7.5199504,0.304975,-0.541475,-0.32395
1692596302255,1.1710501,1.005,9.63105,0.143825,-0.2949375,-0.1871375
1692596302282,1.6060501,1.27995,10.774951,0.1332375,-0.18259999,-0.195525
1692596302311,-0.102000006,2.01195,9.519,0.1942875,-0.2585,-0.20405
1692596302340,-0.786,1.84695,9.05895,0.23485,-0.3894,-0.2171125
1692596302368,-0.58995,1.24905,9.14805,0.2926,-0.4387625,-0.3092375
1692596302403,-0.48705003,0.89895004,9.613951,0.405625,-0.195525,-0.64405
1692596302430,-0.42495003,1.098,9.234,0.3865125,-0.0303875,-0.7079875
1692596302459,-0.61605,1.2559501,9.00405,0.3042875,0.088275,-0.6378625
1692596302487,-0.01995,1.098,9.61905,0.1126125,0.1827375,-0.324225
1692596302513,-0.27405003,0.897,9.67695,0.056649998,0.159775,-0.1555125
1692596302541,-0.55395,0.85395,9.574051,0.045649998,0.1225125,-0.1161875
1692596302572,-0.54195005,0.57105005,9.94995,-0.0306625,0.0625625,0.0298375
1692596302600,-0.31500003,0.21195,10.728001,-0.0796125,0.07095,0.1233375
1692596302629,-0.18495001,-0.043050002,11.103001,-0.1293875,0.0966625,0.2030875
1692596302657,-0.82695,0.35805002,10.452001,-0.2721125,0.11275,0.39325
1692596302688,-0.57600003,0.53295004,10.231951,-0.401775,0.091299996,0.5963375
1692596302716,-0.58500004,0.63405,10.28505,-0.401775,0.091299996,0.5963375
1692596302751,-0.89895004,1.0020001,9.49695,-0.27225,0.1376375,0.418275
1692596302779,-0.60195005,0.61695004,9.693001,-0.181225,0.1412125,0.2424125
1692596302807,-0.34800002,0.564,9.291,-0.018424999,0.1423125,-0.1131625
1692596302838,-0.171,0.55695003,8.88,0.010725,0.13035,-0.1582625
1692596302867,-0.07005,0.43695003,8.99895,0.0053625,0.101475,-0.113299996
1692596302895,-0.058050003,0.411,8.877001,-0.0270875,0.0045375,0.033275
1692596302925,-0.39795002,0.69795,8.458051,-0.0427625,-0.0435875,0.13145
1692596302954,-0.37695003,0.62595004,9.373051,-0.065725,-0.0922625,0.344575
1692596302983,-0.18300001,0.79200006,9.658051,-0.0540375,-0.083875,0.3672625
1692596303012,-0.24300002,1.194,9.28695,-0.0297,-0.0605,0.339625
1692596303040,-0.29505002,1.7080501,9.2029505,0.0198,-0.0325875,0.2677125
1692596303070,-0.70500004,2.1100502,9.394051,0.149325,-0.0517,-0.014712499
1692596303097,-0.58005005,1.93095,9.63105,0.2594625,-0.0576125,-0.262075
1692596303126,0.01695,1.3420501,9.64995,0.3741375,-0.0518375,-0.517
1692596303157,0.087000005,1.09605,8.68095,0.4967875,-0.0352,-0.8056125
1692596303187,-0.18105,1.2559501,8.53005,0.36245,-0.0928125,-0.5916625
1692596303214,-0.49395,1.4790001,9.220051,0.2585,-0.1271875,-0.4048
1692596303243,-0.34095,1.7350501,9.32505,0.1816375,-0.1359875,-0.253825
1692596303272,-0.58695,2.02395,9.19305,0.137775,-0.0724625,-0.138875
1692596303302,-0.60705,2.15595,8.434051,0.15785,-0.0347875,-0.168025
1692596303330,-0.37005,1.9860001,7.9680004,0.2586375,-0.0023375,-0.372625
1692596303362,0.30900002,1.419,8.146951,0.320375,0.005225,-0.497475
1692596303390,0.028950002,1.608,7.4790006,0.3557125,-0.0231,-0.5105375
1692596303419,-0.91095006,2.0320501,7.491,0.3056625,-0.0719125,-0.366575
1692596303447,-0.62805,1.8330001,8.937,0.2454375,-0.1166,-0.2184875
1692596303476,-0.21195,1.8210001,9.871051,0.2228875,-0.0840125,-0.205975
1692596303504,-1.5979501,1.8400501,7.3759503,0.2231625,-0.01925,-0.2431
1692596303535,-1.9879501,1.5289501,6.8160005,0.136125,0.094325,-0.119625
1692596303562,-0.37905002,0.39195,8.128051,0.1137125,0.169125,-0.1034
1692596303589,0.97005004,-0.079050004,9.588,0.054725,0.3562625,-0.0732875
1692596303617,0.41205,-0.57195,9.556951,-0.117699996,0.3608,0.2721125
1692596303644,-0.11805001,-0.744,9.03495,-0.379775,0.2644125,0.86955
1692596303672,0.42405003,-1.194,11.067,-0.8437,0.001375,1.9899
1692596303701,0.82395005,-1.4310001,11.647051,-0.985875,-0.0510125,2.325675
1692596303732,0.22995001,-1.00695,10.290001,-1.150325,-0.1035375,2.7361126
1692596303769,-0.666,-0.76605004,11.25195,-1.1136125,-0.193325,2.5873375
1692596303781,-1.023,-0.48105,11.494051,-1.1136125,-0.193325,2.5873375
1692596303824,-0.69495004,-0.47400004,10.479,-0.88165,-0.1016125,1.9699625
1692596303851,-0.09705,-0.93600005,10.663051,-0.567325,0.14575,1.4212
1692596303879,-0.025050001,-0.90195006,10.74705,-0.4346375,0.2234375,1.2109625
1692596303908,-0.633,-0.69900006,11.280001,-0.3202375,0.167475,0.9359625
1692596303937,-0.30705002,-0.97905004,11.629951,-0.300025,0.1057375,0.8107
1692596303967,-0.18795002,-1.3879501,11.524951,-0.27445,0.072875,0.6622
1692596303996,0.20400001,-1.6560001,12.372001,-0.247225,0.0653125,0.5160375
1692596304026,-0.46095002,-0.924,12.147,-0.2459875,0.0353375,0.34705
1692596304054,-0.88905007,-0.71805006,11.11095,-0.2674375,-0.0317625,0.2160125
1692596304084,-0.58995,-1.2610501,12.1039505,-0.2338875,-0.02255,0.13145
1692596304112,-0.26700002,-1.6819501,12.349951,-0.174625,0.0276375,0.062975
1692596304142,0.14595,-1.764,12.123,-0.098175,0.121275,-0.0166375
1692596304171,-0.31005,-1.5340501,11.376,-0.1706375,0.0515625,-0.035475
1692596304200,-0.60705,-1.9410001,12.436951,-0.2173875,-0.011825,-0.00935
1692596304229,0.043050002,-1.881,12.10095,-0.2470875,-0.0650375,0.0848375
1692596304256,-0.46500003,-1.575,12.633,-0.245575,-0.0526625,0.1181125
1692596304290,-1.02795,-1.6489501,11.92395,-0.2429625,-0.0427625,0.116875
1692596304318,-1.0330501,-2.295,12.385951,-0.212025,-0.0254375,0.050325
1692596304348,-0.33600003,-2.8960502,13.107,-0.18727499,0.0198,0.0438625
1692596304375,-0.528,-2.83605,13.795951,-0.2124375,0.1034,0.2239875
1692596304405,-0.79800004,-1.8910501,12.0730505,-0.27307498,0.081675,0.3887125
1692596304433,-0.55605,-1.4650501,11.68305,-0.3537875,-0.010725,0.5588
1692596304463,-0.55200005,-1.14405,11.20905,-0.3169375,-0.0204875,0.4907375
1692596304492,-0.432,-1.3590001,11.079,-0.23265,-0.0042625,0.35021248
1692596304522,0.22305001,-2.56995,12.931951,-0.039325,0.0303875,0.0776875
1692596304551,-0.15195,-2.403,12.216001,0.0264,-0.0088,0.0268125
1692596304581,-0.40995002,-2.19195,10.215,-0.0133375,-0.0589875,0.0688875
1692596304611,-0.57795,-2.46,9.30105,-0.0721875,-0.106837496,0.11385
1692596304639,-0.21405001,-2.9530501,9.978001,-0.1507,-0.121,0.1703625
1692596304669,-0.87000006,-1.5649501,10.00695,-0.1904375,-0.095837496,0.2292125
1692596304699,-3.11295,0.89895004,7.2060003,-0.3031875,-0.050325,0.39325
1692596304731,-3.11295,0.89895004,7.2060003,-0.3031875,-0.050325,0.39325
1692596304758,-0.24300002,1.7710501,8.34105,0.16995,0.407825,-0.131725
1692596304784,1.4940001,1.5979501,9.708,0.5493125,0.682,-0.636075
1692596304815,1.317,1.28205,7.9530005,1.2705,0.71775,-2.00585
1692596304843,-1.0210501,1.59105,6.2179503,1.4504875,0.3744125,-2.53165
1692596304870,-1.21695,1.31295,6.8040004,1.4788125,-0.0334125,-2.76375
1692596304899,0.13905,0.33195,7.4479504,1.304325,-0.359425,-2.6874375
1692596304930,-0.13005,0.22905001,7.4080505,1.032625,-0.1241625,-2.33145
1692596304954,-0.83895004,0.49500003,8.602051,0.8325625,-0.0790625,-1.9575875
1692596304986,-0.57795,0.36105,9.045,0.613525,-0.0933625,-1.515525
1692596305014,-0.573,0.55200005,8.0779505,0.28187498,-0.0515625,-0.8476875
1692596305046,-0.42705002,0.33900002,8.784,0.18425,0.00385,-0.6425375
1692596305074,-0.39795002,-0.13395001,9.351001,0.07975,0.0556875,-0.3199625
1692596305105,-1.3609501,-0.40905002,7.491,0.04235,0.054449998,-0.1799875
1692596305133,-0.40095,0.16695,7.0459504,-0.103675,0.0576125,0.1351625
1692596305162,1.36995,0.21495001,10.2300005,-0.1887875,0.0935,0.2880625
1692596305192,-0.64695,1.0170001,9.16005,-0.22275,0.031625,0.4299625
1692596305221,-2.39205,1.6290001,8.4199505,-0.1643125,-0.131175,0.40974998
1692596305250,-1.2270001,0.588,10.549951,0.0858,-0.164175,0.0108624995
1692596305278,-0.22395001,-0.016050002,11.3550005,0.2360875,0.0449625,-0.32725
1692596305309,-0.86505,0.47295,9.72,0.27115,0.270875,-0.54202497
1692596305337,-0.9990001,0.63405,9.550051,0.1480875,0.2008875,-0.34595
1692596305366,-1.014,0.231,9.399,0.03575,0.1122,-0.1573
1692596305396,-0.47295,0.33,10.290001,-0.02145,0.0738375,-0.1280125
1692596305424,-0.14205001,0.32505003,10.512,-0.017324999,0.0922625,-0.18205
1692596305452,-0.46800002,0.41595003,10.024051,-0.033,0.064625,-0.1749
1692596305483,-0.80100006,0.57405,9.595051,-0.0466125,0.0031625,-0.10725
1692596305512,-0.70500004,0.44505003,9.94005,-0.0397375,-0.077825,-0.0144375
1692596305540,-0.36195,0.38700002,9.828,-0.016775,-0.061875,-0.0259875
1692596305570,0.087000005,0.33405003,9.64995,0.004125,-0.0345125,-0.043725
1692596305597,-0.666,1.0530001,9.094951,0.0026125,-0.061049998,0.0193875
1692596305629,-0.822,1.3450501,8.7619505,0.013475,-0.153175,0.04015
1692596305657,-0.573,1.0500001,8.86995,0.0765875,-0.141625,-0.0820875
1692596305687,-0.40095,0.61905,9.460951,0.1716,-0.0924,-0.252175
1692596305715,-0.28095,0.54705,9.094951,0.2926,-0.0114124995,-0.4024625
1692596305745,-0.126,0.69600004,8.3890505,0.2563,-0.0097624995,-0.3166625
1692596305774,0.34500003,0.55695003,9.01395,0.100925,-0.060225,-0.122237496
1692596305802,0.23295002,0.648,9.34395,0.0545875,-0.095699996,-0.0801625
1692596305832,-0.15900001,0.71505004,9.354,0.0165,-0.18535,0.007975
1692596305861,-0.44895002,0.79395,9.68595,0.0103124995,-0.21945,0.0086624995
1692596305889,-0.39105,0.94005007,9.700951,0.0210375,-0.194975,-0.1359875
1692596305921,-0.030000001,0.94005007,9.535951,0.0314875,-0.1469875,-0.2154625
1692596305955,-0.16095,1.12395,9.030001,0.065175,-0.0710875,-0.35694999
1692596305983,-0.0010500001,1.1220001,8.67105,0.08965,-0.0716375,-0.446875
1692596306014,0.27105,0.78705,9.607051,0.1417625,-0.1095875,-0.54614997
1692596306041,0.063,0.78195006,9.208051,0.1566125,-0.1269125,-0.511775
1692596306069,-0.06795,0.81105006,9.14295,0.1485,-0.1461625,-0.4274875
1692596306097,-0.31695002,1.1890501,9.14505,0.078375,-0.1684375,-0.2509375
1692596306128,0.10605001,1.5810001,8.14995,0.054175,-0.116875,-0.292325
1692596306157,0.13005,1.9960501,8.128051,0.0853875,-0.0829125,-0.36313748
1692596306184,-0.123,2.50305,8.42205,0.14685,-0.067925,-0.420475
1692596306214,-0.23295002,2.84805,8.367001,0.2369125,-0.0765875,-0.46873748
1692596306241,0.17295001,3.85995,7.5390005,0.483175,-0.1166,-0.6512
1692596306270,0.79005,4.96605,3.4699502,0.6197125,-0.1332375,-0.776875
1692596306301,1.659,3.9580503,7.15605,0.9420125,-0.2497,-1.0118625
1692596306330,2.33205,1.70595,12.003,1.36125,-0.574475,-1.21
1692596306358,1.67595,0.39195,11.283001,1.3673,-0.72833747,-1.0476125
1692596306387,-0.55905,-0.79395,8.98995,1.0638375,-0.7689,-0.5852
1692596306414,-1.3440001,-1.8049501,7.6710005,-0.0499125,-0.455675,0.6551875
1692596306444,-1.06605,-3.6360002,10.596001,-0.5333625,-0.1595,1.0586125
1692596306474,-0.37005,-4.69605,11.034,-1.26665,0.53845,1.6204375
1692596306499,-0.71205,-4.7970004,11.517,-1.6229125,0.79365,2.18075
1692596306531,-0.89895004,-3.9760501,10.774951,-2.245925,0.785675,3.7994
1692596306560,-0.231,-3.8130002,11.56095,-2.3695376,0.597025,4.322175
1692596306588,-0.79605,-3.834,12.02505,-2.1531124,0.2151875,4.2537
1692596306617,-0.53205,-3.7770002,12.417001,-1.91455,0.05555,3.90445
1692596306645,0.50505,-3.588,11.661,-1.65825,-0.0628375,3.4986875
1692596306674,0.14595,-2.57505,12.10095,-1.190475,-0.18493749,2.6618624
1692596306709,-1.023,-1.3980001,10.476001,-0.784575,-0.2913625,1.6951
1692596306730,-1.248,-1.28295,10.749001,-0.557975,-0.2644125,1.1485375
1692596306760,-0.87705004,-1.539,11.125051,-0.31033748,-0.1494625,0.648725
1692596306791,0.04605,-1.6510501,12.682951,0.1106875,0.152625,0.02805
1692596306819,-0.65895003,-0.88995004,11.362051,0.236225,0.236225,-0.1573
1692596306848,-1.62195,-0.124050006,10.689,0.318175,0.2519,-0.3542
1692596306878,-1.1550001,-0.58605003,10.404,0.38115,0.23265,-0.573375
1692596306906,-0.20505,-1.7830501,12.39105,0.501325,0.2644125,-0.9086
1692596306935,-1.2,-1.9650002,12.1060505,0.520575,0.27719998,-0.9301875
1692596306963,-0.91305006,-1.86705,12.054001,0.4527875,0.21807499,-0.8463125
1692596306994,-0.52500004,-2.661,13.404,0.23705,0.1617,-0.6004625
1692596307021,-0.64500004,-3.08505,12.975,0.138875,0.1714625,-0.474925
1692596307050,-0.88695,-3.1999502,13.036951,0.048125,0.159775,-0.3394875
1692596307082,-1.176,-3.0949502,13.708051,-0.1618375,0.0534875,0.022
1692596307111,-1.47105,-3.05205,14.536051,-0.3180375,-0.014025,0.4063125
1692596307139,-1.50195,-2.9970002,13.609051,-0.33673748,-0.0050875,0.5515125
1692596307166,-1.3060501,-2.673,11.544001,-0.2781625,0.0644875,0.5605875
1692596307195,-1.677,-2.94105,12.657001,-0.2418625,0.101475,0.45925
1692596307232,-0.528,-3.24495,11.932051,-0.21725,0.1431375,0.33275
1692596307262,0.058050003,-2.87205,10.479,-0.220275,0.1337875,0.33935
1692596307289,-0.37005,-2.5150502,11.521951,-0.2453,-0.013612499,0.3685
1692596307319,-0.77400005,-2.214,10.749001,-0.2541,-0.128975,0.368225
1692596307347,-0.30705002,-2.295,10.47105,-0.2402125,-0.21779999,0.3680875
1692596307378,-1.75995,-1.3590001,11.055,-0.141075,-0.2239875,0.31625
1692596307407,-1.143,-0.38295,7.6590004,-0.077,-0.1651375,0.240625
1692596307435,0.381,0.126,6.73005,0.109037496,0.021724999,-0.0138875
1692596307464,0.42900002,0.36600003,9.672001,0.2402125,0.117699996,-0.1934625
1692596307492,0.32595003,1.6840501,9.97605,0.5289625,0.131175,-0.69519997
1692596307522,-0.123,2.97195,6.3810005,0.7022125,0.0570625,-1.0649375
1692596307552,0.01905,3.2740502,6.8190002,0.912175,-0.0050875,-1.5365624
1692596307578,-0.39105,3.7530003,7.93695,1.4009875,-0.016775,-2.6796
1692596307609,-0.657,2.77095,2.742,1.8544625,-0.0287375,-3.571975
1692596307637,-0.26205,1.78005,4.2769504,2.0024126,-0.0583,-3.74935
1692596307668,0.74205005,0.08505,7.3690505,2.064975,-0.0793375,-3.71965
1692596307697,0.22800002,0.15,8.533051,1.815275,-0.0963875,-2.9462125
1692596307725,-1.5949501,0.60495,9.21,1.4048375,-0.1293875,-2.1302874
1692596307753,-1.713,0.87795,10.017,0.376475,-0.1167375,-0.5071
1692596307783,-0.57795,1.3110001,9.406051,0.0446875,0.034925,-0.155925
1692596307809,0.23700002,1.7830501,10.15095,-0.19525,0.3727625,-0.0479875
1692596307839,0.48105,2.4169502,9.571051,-0.1827375,0.3718,-0.0297
1692596307866,0.62700003,1.8259501,9.399,-0.1095875,0.2388375,-0.002475
1692596307897,0.381,1.7539501,8.644951,0.1194875,-0.159775,0.0015125
1692596307925,0.20895001,1.9570501,8.394,0.2035,-0.29741248,0.004125
1692596307950,0.052950002,1.7179501,9.28695,0.2550625,-0.36781248,0.1175625
1692596307979,0.31605002,1.4640001,9.43305,0.25355,-0.32793748,0.1830125
1692596308006,0.11805001,1.6369501,8.916,0.2387,-0.2732125,0.2030875
1692596308031,0.16095,1.69605,8.14005,0.15015,-0.197175,0.1518
1692596308059,0.30405003,1.45905,9.2029505,0.1073875,-0.17435,0.1296625
1692596308089,0.78300005,0.78000003,10.61295,0.0807125,-0.1343375,0.12155
1692596308115,0.60405004,0.42105,11.20905,0.045649998,-0.1194875,0.209825
1692596308146,-0.61605,0.79605,9.98295,-0.041525,-0.1098625,0.3903625
1692596308172,-0.86295,0.873,10.246051,-0.2864125,-0.0669625,0.711425
1692596308199,-0.72195005,1.0860001,10.00695,-0.3576375,0.0127875,0.6941
1692596308225,-1.212,1.43505,10.11705,-0.37345,0.1296625,0.578325
1692596308257,-1.32,1.77495,9.792001,-0.28875,0.3271125,0.26345
1692596308286,-0.78405005,1.5259501,9.424951,-0.20405,0.381425,0.0895125
1692596308315,-0.27405003,1.19895,9.09,-0.005225,0.4219875,-0.2701875
1692596308344,-0.39600003,1.26795,9.196051,0.067925,0.39105,-0.3771625
1692596308374,-0.441,0.72705,9.44505,0.1142625,0.237325,-0.32505
1692596308404,-0.62805,0.63105005,9.945001,0.0933625,0.1593625,-0.2223375
1692596308431,-0.55605,0.45195,9.913951,0.0449625,0.104775,-0.1115125
1692596308461,-0.67395,0.423,9.430051,-0.1137125,0.06435,0.113025
1692596308489,-1.38195,0.60195005,8.97795,-0.2629,0.0702625,0.2825625
1692596308518,-1.4950501,0.91800004,8.272051,-0.3003,0.0889625,0.2871
1692596308547,-0.83205,0.75105006,8.916,-0.2657875,0.199925,0.0955625
1692596308577,-0.087000005,0.94695,9.945001,-0.2066625,0.26221249,-0.0323125
1692596308605,0.012,1.62705,10.174951,-0.1442375,0.276925,-0.1115125
1692596308636,-1.00395,2.5800002,9.612,-0.045649998,0.0906125,-0.0708125
1692596308662,-1.8750001,2.8570502,9.8539505,0.0345125,-0.046475,-0.053625
1692596308689,-1.6980001,2.3809502,9.61905,0.34814999,-0.127875,-0.3573625
1692596308721,-0.51600003,1.95,8.439,0.51713747,-0.0449625,-0.647075
1692596308751,0.24405001,1.54305,7.37895,0.648175,0.1194875,-0.9890375
1692596308778,-0.18105,1.6680001,7.8100505,0.5988125,0.0922625,-0.8930625
1692596308804,-0.73095006,2.05995,7.6900506,0.5104,-0.0034375,-0.6546375
1692596308836,-1.1190001,2.163,7.7449503,0.3559875,-0.191125,-0.2605625
1692596308863,-0.72195005,2.1700501,8.083051,0.336325,-0.21133749,-0.3084125
1692596308890,0.0,1.9450501,8.547,0.3771625,-0.13475,-0.654775
1692596308918,-0.09705,2.6490002,7.5130506,0.3777125,-0.108625,-0.700975
1692596308946,-0.41505003,2.874,7.1200504,0.3394875,-0.1841125,-0.4816625
1692596308980,-0.513,2.86695,7.8889503,0.36987498,-0.2432375,-0.41965
1692596308996,-0.60405004,2.7829502,8.20905,0.44233748,-0.2803625,-0.4613125
1692596309030,-0.384,2.5489502,8.78895,0.5548125,-0.2888875,-0.6623375
1692596309058,-0.36705002,2.6160002,8.33895,0.5374875,-0.2734875,-0.7167875
1692596309086,-0.77400005,1.86195,6.9979506,0.474375,-0.252725,-0.7073
1692596309115,-1.2600001,0.27195,7.8859506,0.3007125,-0.19855,-0.5346
1692596309143,0.72105,-1.10595,10.64595,0.1975875,-0.1359875,-0.410575
1692596309174,0.771,-2.19,8.059051,-0.3091,0.1060125,0.2264625
1692596309201,-1.284,-2.7240002,10.842001,-0.759825,0.2046,0.9568625
1692596309228,-0.72405005,-3.8580003,15.418951,-1.6682875,0.2349875,2.84735
1692596309254,-0.87000006,-3.2310002,12.4129505,-2.005575,0.2629,3.630275
1692596309285,-0.64500004,-2.55795,9.63105,-2.2352,0.30525,4.16185
1692596309312,0.762,-3.0610502,11.178,-2.2232375,0.2388375,4.192375
1692596309338,0.47400004,-2.42205,11.824051,-2.0229,0.13255,3.7943125
1692596309368,-1.251,-0.97395,8.97105,-1.5422,-0.16885,2.8012874
1692596309398,-0.35805002,-1.6489501,10.33695,-1.2766875,-0.2682625,2.305325
1692596309427,0.984,-2.046,12.736051,-0.7084,-0.1552375,1.467675
1692596309454,-0.30495003,-1.062,11.90295,-0.5093,-0.095699996,1.16545
1692596309483,-0.63795,-1.16505,11.314051,-0.3834875,-0.1145375,0.902
1692596309514,0.43095002,-1.8070501,13.2960005,-0.1563375,-0.13695,0.41965
1692596309545,0.06705,-1.848,12.765,-0.045375,-0.077,0.2387
1692596309568,-0.46800002,-1.848,11.92695,0.0336875,-0.0386375,0.027224999
1692596309600,0.051000003,-1.2400501,11.91495,0.0171875,-0.0666875,-0.005225
1692596309628,-0.52005005,-0.73005,10.516951,-0.0081124995,-0.0671,0.0257125
1692596309655,-0.46305,-1.0030501,10.825951,0.020624999,-0.0358875,4.125E-4
1692596309684,0.38295,-1.62705,12.86295,0.0763125,0.0034375,-0.08415
1692596309713,0.201,-1.2349501,11.62005,0.1568875,0.042625,-0.269225
1692596309744,-0.18795002,-1.14405,11.512951,0.145475,0.0138875,-0.276375
1692596309771,-0.006,-1.7299501,12.589951,0.1010625,-0.059675,-0.173525
1692596309798,0.273,-2.3790002,12.39105,0.09075,-0.06435,-0.1233375
1692596309826,0.12705001,-2.9179502,13.315051,0.0661375,-0.061325,-0.0702625
1692596309854,0.010050001,-2.637,14.742001,-0.083325,-0.0924,0.100925
1692596309881,-0.291,-2.226,13.971001,-0.1813625,-0.116325,0.21285
1692596309909,-0.81705004,-2.1060002,12.23805,-0.271425,-0.1120625,0.35021248
1692596309940,-0.23805001,-2.70705,12.754951,-0.245025,-0.0664125,0.3267
1692596309966,1.3740001,-3.9060001,13.717051,-0.2014375,5.5E-4,0.2783
1692596309993,0.69900006,-3.9160502,13.576051,-0.1975875,0.047575,0.3034625
1692596310021,-1.164,-2.8980002,12.456,-0.269775,-0.0526625,0.3812875
1692596310050,-1.00905,-3.009,10.761001,-0.4129125,-0.257675,0.4736875
1692596310080,-0.40095,-3.2650502,10.222051,-0.4136,-0.1989625,0.4844125
1692596310109,-1.32,-1.8090001,7.6759505,-0.3686375,0.034925,0.5225
1692596310136,-1.7560501,-0.57405,5.6530504,-0.365475,0.07975,0.534325
1692596310166,-0.147,-0.42795002,7.2420006,-0.3444375,0.1057375,0.52965
1692596310195,-0.17295001,0.91395,9.556951,-0.133375,0.2393875,0.402875
1692596310226,-2.1340501,3.3769503,7.55805,0.058849998,0.2993375,0.165275
1692596310250,-0.88695,4.2169504,8.125951,0.6534,0.389675,-0.8914125
1692596310280,0.34695002,2.6590502,6.90495,1.0967,0.5115,-1.7147624
1692596310308,-1.6650001,1.65795,6.32595,2.0075,0.6048625,-3.6656125
1692596310337,-1.7770501,0.84405005,8.028001,2.20495,0.434225,-4.273775
1692596310367,0.13905,-0.20595,7.7310004,2.14555,0.2600125,-4.353525
1692596310398,0.45000002,-0.27705002,7.7070003,1.513875,0.2215125,-3.32805
1692596310422,-0.78900003,0.58305,8.379001,1.0679625,0.197175,-2.4451625
1692596310456,-1.31805,1.335,9.18105,0.2787125,-0.039875,-0.77082497
1692596310485,-0.57105005,1.12695,10.323001,0.1043625,-0.1035375,-0.4005375
1692596310510,-1.1380501,0.90195006,9.436951,0.1771,-0.0166375,-0.587125
1692596310540,-3.2920501,0.43500003,5.51205,0.25795,0.0336875,-0.76395
1692596310573,-0.022950001,-0.12705001,6.1650004,0.2849,0.0840125,-0.8344875
1692596310602,5.1610503,-2.463,12.484051,0.1909875,0.3304125,-0.7484125
1692596310630,0.027,0.52605003,9.990001,-0.2946625,-0.0413875,0.389675
1692596310657,-2.1000001,1.9930501,8.146951,-0.6307125,-0.640475,1.2373625
1692596310683,-0.84405005,1.0639501,9.14505,-0.74635,-1.040875,1.5571874
1692596310716,-0.70695,0.708,10.182,-0.2118875,-0.54505,0.42955
1692596310745,-0.16905001,0.51405,8.865001,0.09405,-0.149325,-0.230725
1692596310774,-0.05595,0.555,7.9750504,0.2407625,0.069575,-0.5366625
1692596310801,-0.14895001,0.351,8.889001,0.2091375,0.1329625,-0.423225
1692596310829,-0.48705003,0.21000001,9.459001,0.15619999,0.08965,-0.2644125
1692596310860,-0.693,0.09705,9.87495,0.045649998,0.0037125,0.0686125
1692596310888,-0.564,0.19800001,9.715051,-0.0132,0.0042625,0.17613749
1692596310917,-0.15900001,0.14505,11.002951,-0.1093125,0.0782375,0.1782
1692596310947,-0.37395,0.38700002,10.629001,-0.148225,0.081125,0.047025
1692596310976,-0.54405004,0.62895006,9.804001,-0.149875,0.038775,0.00935
1692596311004,-0.087000005,0.43305,9.80595,-0.131725,-6.875E-4,-0.048675
1692596311035,0.15105,0.08805001,10.97595,-0.036575,-0.0243375,-0.2558875
1692596311064,-0.13005,0.45600003,10.500001,-0.0048125,-0.0394625,-0.2729375
1692596311092,-0.14895001,0.67905,9.342,-0.033275,-0.109725,-0.1577125
1692596311121,-0.28605002,0.684,8.691,-0.0356125,-0.1313125,-0.193875
1692596311149,-0.025050001,0.53505003,10.23705,-0.0044,-0.1299375,-0.2781625
1692596311179,0.034050003,0.75795,10.002001,0.0776875,-0.090475,-0.3295875
1692596311207,0.15105,0.71505004,9.744,0.09515,-0.0771375,-0.2904
1692596311237,-0.231,0.75795,9.579,0.1073875,-0.089237496,-0.18865
1692596311266,-0.49695003,0.72195005,9.85095,0.1123375,-0.100925,-0.1552375
1692596311293,0.076950006,0.423,10.086,0.1123375,-0.069025,-0.181775
1692596311322,0.11505,0.49995002,9.63405,0.102575,-0.0298375,-0.2591875
1692596311351,-0.20505,0.86100006,9.448951,0.0820875,-0.008525,-0.336875
1692596311380,-0.34095,1.0860001,9.62205,0.0320375,-0.043449998,-0.2985125
1692596311410,-0.20205002,1.1200501,9.02595,0.0759,-0.0457875,-0.2712875
1692596311442,0.11505,1.0189501,8.487,0.1310375,-0.0273625,-0.3564
1692596311468,0.13005,1.01205,8.36505,0.180675,-0.0133375,-0.4244625
1692596311502,-0.15900001,1.2940501,8.52105,0.2303125,-0.0237875,-0.3843125
1692596311536,-0.26895002,1.36395,9.01095,0.247775,-0.0682,-0.3339875
1692596311563,-0.14505,1.51005,6.7159505,0.26221249,-0.06325,-0.3700125
1692596311597,0.08895,1.55295,7.17495,0.296725,-0.015262499,-0.4879875
1692596311625,0.177,1.86405,9.102,0.3185875,-0.017324999,-0.53061247
1692596311653,-0.15900001,2.7900002,7.8460503,0.3485625,-0.044825,-0.560175
1692596311680,-0.62100005,3.7020001,4.5540004,0.4310625,-0.120037496,-0.626175
1692596311710,1.21605,2.80905,6.8209505,0.52854997,-0.14905,-0.745525
1692596311740,2.3410501,1.69395,11.023951,0.89045,-0.2189,-1.085425
1692596311768,0.66795003,1.7899501,8.80305,0.8199125,-0.44701248,-0.4895
1692596311797,0.273,0.82800007,9.01095,0.543125,-0.56045,0.0705375
1692596311826,-1.2360001,-1.7520001,9.495001,0.054175,-0.46585,0.6336
1692596311854,-2.19105,-2.604,9.816001,-0.1923625,-0.2475,0.764775
1692596311891,-0.38895002,-3.66195,11.56305,-0.9420125,0.4063125,1.314775
1692596311915,0.201,-3.35595,10.64595,-1.3469499,0.7244875,1.782275
1692596311943,-1.15995,-2.3100002,8.608951,-1.68025,0.883575,2.390575
1692596311972,0.16800001,-3.4680002,11.862,-1.9415,0.63827497,3.3946
1692596311999,1.3050001,-4.122,13.564051,-1.8585875,0.433675,3.50735
1692596312027,-0.98505,-2.5780501,11.938951,-1.5989875,0.02585,3.3235126
1692596312059,-1.6669501,-2.11605,10.062,-1.472625,-0.1859,3.0569
1692596312087,-1.2550501,-2.43405,10.62705,-1.296075,-0.2836625,2.6445374
1692596312115,-1.57605,-2.427,10.91895,-0.826925,-0.03355,1.7925875
1692596312143,-1.84695,-2.3050501,10.552951,-0.6424,0.116325,1.539725
1692596312174,-0.74295,-2.28795,10.392,-0.446325,0.2187625,1.3132625
1692596312203,0.34500003,-2.2069502,10.06005,-0.3804625,0.233475,1.2145375
1692596312231,-1.18605,-0.94995004,12.477,-0.3179,0.210925,1.0888625
1692596312260,-1.131,-0.21795002,12.042001,-0.1593625,0.021175,0.6369
1692596312290,-1.3969501,0.40905002,10.693951,0.2187625,0.046475,-0.1683
1692596312319,-0.98205006,-0.08295,11.034,0.4500375,0.157025,-0.5806625
1692596312347,-0.50100005,-1.113,12.183001,0.6402,0.252725,-0.9108
1692596312376,-0.09705,-1.7020501,11.677951,0.7876,0.29479998,-1.1837375
1692596312412,-0.37905002,-1.4260501,10.773001,0.54408747,0.098725,-0.8507125
1692596312440,-0.55200005,-1.2349501,11.476951,0.353925,-0.02145,-0.575575
1692596312471,-0.054,-1.302,11.656051,0.0928125,-0.1508375,-0.20487499
1692596312501,0.003,-1.45305,11.722951,0.0455125,-0.1621125,-0.1445125
1692596312529,-1.8349501,-0.58395004,11.350051,0.0319,-0.15345,-0.074525
1692596312559,-0.68805003,-1.43595,12.130051,0.0339625,-0.131175,-0.0067375
1692596312586,-0.31695002,-1.70895,12.85095,0.0473,-0.0609125,0.0297
1692596312614,-0.81195,-1.51005,12.487051,0.06545,0.1027125,-0.03355
1692596312644,-1.33395,-1.1080501,12.343051,0.032175,0.08745,-0.037675
1692596312674,-1.0570501,-1.2199501,11.886001,-0.0317625,0.014712499,-0.0023375
1692596312702,-1.6620001,-1.5150001,12.219001,-0.02585,0.0369875,-0.01045
1692596312729,-1.3219501,-2.0080502,11.674951,-0.013062499,0.0757625,-0.0182875
1692596312761,-0.95100003,-2.637,11.446051,-0.031625,0.13035,0.0262625
1692596312791,-0.83895004,-2.80005,11.359051,-0.1771,0.110275,0.2754125
1692596312820,-0.82395005,-2.7210002,11.44305,-0.291225,0.0598125,0.4712125
1692596312849,-1.4059501,-2.3719501,10.917001,-0.3949,0.00275,0.620125
1692596312877,-1.7080501,-2.3449502,11.316001,-0.486475,-0.059675,0.6843375
1692596312905,-1.07295,-2.7640502,10.783051,-0.4739625,-0.0528,0.68145
1692596312934,-0.65505004,-2.8219502,9.19995,-0.409475,0.0056375,0.7011125
1692596312962,-1.4640001,-2.56995,11.379001,-0.3972375,0.0099,0.7205
1692596312993,-1.4640001,-1.3930501,9.283951,-0.400125,-0.036575,0.7051
1692596313023,0.36195,-1.11,7.65705,-0.3606625,-0.0155375,0.6158625
1692596313051,1.3909501,-0.28695002,7.6800003,-0.1310375,0.096525,0.18865
1692596313085,1.0489501,1.47105,8.48205,0.01815,0.061325,-0.16335
1692596313119,0.38805002,1.9260001,6.6580505,0.3931125,-0.2168375,-1.109075
1692596313145,0.60405004,1.7010001,8.28405,0.6642625,-0.311575,-1.668425
1692596313172,0.14595,1.7010001,11.23005,1.18855,-0.2899875,-2.5933876
1692596313201,-1.011,2.0389502,8.841001,1.3371875,-0.2547875,-2.8204
1692596313230,-1.08105,1.8900001,5.3160005,1.390675,-0.224675,-2.8920374
1692596313259,2.0680501,0.17595,6.5200505,1.3096875,-0.050325,-2.78355
1692596313287,2.33205,-0.47805002,9.267,1.242175,0.059125,-2.688125
1692596313317,-0.21900001,0.82305,8.547,0.9158875,-0.1442375,-1.9240375
1692596313342,-0.82005006,0.74595004,8.70495,0.6149,-0.423775,-1.192125
1692596313382,-0.92295,0.82305,8.367001,0.1881,-0.4860625,-0.2861375
1692596313407,0.70905006,0.90405005,9.531,0.1304875,-0.2343,-0.2600125
1692596313433,2.1330001,1.11705,10.32495,0.13213749,0.1758625,-0.388025
1692596313461,2.049,1.2199501,10.1320505,0.13213749,0.1758625,-0.388025
1692596313489,-0.46095002,2.0719502,8.128051,0.2371875,-0.249425,-0.27307498
1692596313520,-0.44895002,1.1080501,9.28905,0.3029125,-0.407825,-0.305525
1692596313549,0.38595003,0.38700002,10.68,0.42061248,-0.269775,-0.5787375
1692596313578,0.063,0.88500005,10.15995,0.38225,-0.10615,-0.6095375
1692596313608,0.201,1.0530001,9.3820505,0.1073875,0.07205,-0.2509375
1692596313634,-0.094050005,1.00695,9.45405,0.00275,0.087175,-0.0682
1692596313662,-0.31695002,0.99000007,8.96595,-0.032725,0.0862125,0.014162499
1692596313692,0.18900001,0.54300004,9.342,-0.0193875,0.10945,0.0182875
1692596313721,0.23700002,0.24795002,10.054951,-0.021724999,0.1381875,0.0342375
1692596313752,0.06705,0.43695003,9.7560005,-0.0946,0.1458875,0.2228875
1692596313781,-0.76500005,0.64095,9.222,-0.15785,0.117975,0.36465
1692596313816,-1.0690501,0.25800002,9.391951,-0.2242625,0.1084875,0.4560875
1692596313845,-0.18795002,-0.35205,9.934951,-0.2121625,0.165275,0.3628625
1692596313874,-0.03195,-0.186,9.4800005,-0.2035,0.335225,0.252175
1692596313904,-0.79095006,0.804,7.7239504,-0.2517625,0.35915,0.3873375
1692596313930,-1.2859501,1.2100501,7.5319505,-0.3235375,0.263175,0.66055
1692596313959,-0.79605,0.897,8.63805,-0.252175,0.2380125,0.55055
1692596313990,0.064950004,1.11195,9.27705,0.0254375,0.296175,0.0275
1692596314021,0.00795,2.01195,9.073951,0.1205875,0.293975,-0.0966625
1692596314050,-0.60405004,2.14395,9.93,0.2294875,0.1208625,-0.106975
1692596314077,-0.34800002,1.43805,11.127001,0.3328875,0.0127875,-0.2688125
1692596314105,0.49605003,0.31005,11.806951,0.45595,-0.0584375,-0.529925
1692596314137,-0.03705,0.80595005,10.024051,0.444675,-0.1101375,-0.63414997
1692596314165,-0.24300002,1.0360501,9.0070505,0.2677125,-0.1343375,-0.350625
1692596314193,-0.042000003,1.0860001,9.31305,-0.0317625,-0.15345,0.204325
1692596314223,-0.13305001,1.503,9.519,-0.0561,-0.12773749,0.27665
1692596314252,-0.26700002,1.7350501,9.373051,0.016224999,-0.091575,0.16733749
1692596314282,-0.49695003,1.8589501,8.6640005,0.0754875,-0.0930875,0.033275
1692596314310,-0.22095,1.761,8.511001,0.21573749,-0.07645,-0.3042875
1692596314338,0.076950006,1.5649501,7.623,0.273625,-0.057475,-0.45155
1692596314369,0.22095,1.4500501,7.4700003,0.330275,-0.049775,-0.58753747
1692596314398,-0.60195005,1.96695,7.83405,0.32793748,-0.071225,-0.54285
1692596314429,-0.36,2.3040001,8.68305,0.3091,-0.10835,-0.412775
1692596314462,-0.22800002,2.4070501,7.49595,0.327525,-0.0961125,-0.4398625
1692596314493,0.21795002,1.8930001,6.9600005,0.3686375,-0.0732875,-0.523875
1692596314518,-0.25695002,0.97095007,6.7900505,0.4477,-0.07425,-0.6204
1692596314548,0.16305001,-0.162,9.84,0.35915,-0.1093125,-0.3147375
1692596314577,0.711,-1.0189501,10.555051,0.18933749,-0.082225,0.013612499
1692596314608,-0.453,-1.5820501,8.535001,-0.0774125,-0.015675,0.46145
1692596314638,-0.83205,-1.4449501,10.01895,-0.7568,0.116325,1.60105
1692596314668,1.1920501,-2.6950502,12.87495,-1.034825,0.1716,2.1011374
1692596314696,-0.36705002,-1.5769501,10.218,-1.3333375,0.24653749,2.746975
1692596314724,-1.4830501,-0.99105006,9.19095,-1.39095,0.1791625,2.9198124
1692596314752,-1.176,-1.4479501,11.137051,-1.378575,0.07205,2.93095
1692596314780,-0.22800002,-1.6009501,11.61795,-1.1240625,0.0842875,2.4941125
1692596314813,-0.46095002,-1.2229501,11.359051,-0.9548,0.18315,2.2127874
1692596314840,-1.0350001,-0.90000004,11.379001,-0.6958875,0.19745,1.74845
1692596314867,-0.89400005,-0.76605004,11.170051,-0.5806625,0.143,1.521025
1692596314897,-0.36195,-1.09095,11.857051,-0.3271125,0.1285625,1.0132375
1692596314927,-0.25500003,-1.6510501,12.669001,-0.122237496,0.1648625,0.4827625
1692596314955,-0.82005006,-1.16295,12.127951,-0.073425,0.1376375,0.273625
1692596314983,-0.29505002,-1.35405,11.73795,-0.0620125,0.0847,0.1450625
1692596315015,-0.19005,-1.6320001,12.118051,-0.0853875,0.022,0.095975
1692596315044,-0.55605,-1.26405,11.776051,-0.0991375,0.00935,0.1232
1692596315073,-0.21900001,-1.2400501,11.61795,-0.1155,-0.016775,0.1491875
1692596315102,-0.34305,-1.149,11.27805,-0.1269125,-0.0721875,0.122925
1692596315130,-0.92295,-0.82605004,11.079,-0.0851125,-0.0944625,0.1343375
1692596315160,-0.77895004,-1.06005,11.3209505,-0.05995,-0.0878625,0.1837
1692596315189,-0.09705,-1.62705,11.038951,-0.0331375,-0.0551375,0.2281125
1692596315218,-0.564,-1.5510001,11.347051,-0.0088,0.0199375,0.249425
1692596315246,-0.97800004,-1.6200001,12.135,-0.0391875,0.0180125,0.249975
1692596315276,0.34995002,-2.049,11.721001,-0.126225,0.01375,0.327525
1692596315304,0.84105,-1.74495,12.592051,-0.149875,0.025575,0.3749625
1692596315333,-0.564,-0.72300005,13.096951,-0.18205,-0.0815375,0.3251875
1692596315364,-0.52305,-1.161,13.564051,-0.1654125,-0.1802625,0.1896125
1692596315389,-0.44895002,-1.728,14.239051,-0.097625,-0.225775,0.0072875
1692596315426,-0.38895002,-2.18505,11.7640505,0.10175,-0.0270875,-0.365475
1692596315450,-0.28800002,-2.3359501,11.649,0.054175,0.0182875,-0.35805
1692596315479,0.12495001,-2.76195,11.698951,-0.032449998,0.0339625,-0.2767875
1692596315508,0.56805,-2.8510501,10.522051,-0.127875,0.0273625,-0.1359875
1692596315536,-0.19995001,-2.26395,9.385051,-0.2965875,-0.0600875,0.228525
1692596315564,-1.64295,-1.3810501,9.9210005,-0.36519998,-0.1420375,0.394625
1692596315595,-0.43005002,-2.02005,10.045051,-0.39421248,-0.2074875,0.5990875
1692596315625,0.22095,-1.51995,9.291,-0.33467498,-0.12595,0.634425
1692596315658,-1.5160501,0.093,7.9510503,-0.18425,0.0441375,0.500775
1692596315683,-1.4470501,1.368,8.14005,-0.113437496,0.056649998,0.3317875
1692596315710,-1.4110501,2.1750002,7.45305,0.160875,0.16665,-0.060225
1692596315740,0.58005005,2.6749501,7.15605,0.4167625,0.3212,-0.3647875
1692596315772,1.79595,1.9189501,8.458051,0.74387497,0.483175,-0.864875
1692596315799,-1.3060501,2.1460502,7.2019506,1.4018124,0.4420625,-2.3722875
1692596315828,-2.42805,2.4720001,6.46005,1.5745125,0.1750375,-2.9676626
1692596315851,0.08205,0.87795,7.2499504,1.5585625,-0.1401125,-3.2767625
1692596315877,0.73305005,-0.0139500005,7.3050003,1.494625,-0.0323125,-3.2593
1692596315905,-1.3219501,-0.36105,7.1130004,1.375825,0.07315,-3.1035125
1692596315934,-0.32895002,0.25305,7.1730003,0.7528125,-0.0308,-1.8748125
1692596315962,3.0330002,0.51405,9.72,0.368225,-0.061325,-1.0989
1692596315994,-0.01305,2.53905,9.693001,-0.0666875,-0.114675,-0.048125
1692596316022,-2.8950002,3.59205,10.02105,-0.082775,-0.3345375,0.138875
1692596316048,-2.397,2.5870502,10.740001,0.2569875,-0.53955,-0.612975
1692596316077,0.56505,0.56700003,10.45005,0.51645,-0.2817375,-1.3498375
1692596316106,0.89100003,0.34905002,9.459001,0.7035875,0.0463375,-1.9349
1692596316132,-0.97005004,1.3420501,8.226001,0.51975,0.2091375,-1.5587
1692596316163,-0.17295001,0.80595005,8.293051,0.24419999,0.059125,-0.8270625
1692596316194,0.49095002,0.162,9.571051,-0.0334125,-0.0748,-0.0570625
1692596316222,-0.03195,0.60195005,9.50205,-0.058025,-0.0452375,0.0264
1692596316248,-0.26895002,0.96900004,8.892,-0.20899999,-0.1032625,0.317625
1692596316285,-0.42195,1.0360501,9.258,-0.275825,-0.145475,0.4126375
1692596316309,-0.40800002,0.82500005,10.33695,-0.274725,-0.144375,0.396825
1692596316339,-0.54705,0.54300004,10.564951,-0.1442375,-0.054725,0.202675
1692596316366,-0.53505003,1.0999501,9.637951,-0.100099996,-0.0031625,0.1489125
1692596316394,0.19905001,0.87495005,9.519,-0.097075,0.0738375,0.108899996
1692596316423,0.20595,0.87495005,9.283951,-0.091575,0.0831875,0.0603625
1692596316454,0.076950006,0.75105006,9.724951,-0.0501875,0.0028875,0.0814
1692596316488,0.333,0.54495,11.094001,-0.037125,-0.0666875,0.1166
1692596316515,-0.50895,1.08405,9.504001,-0.062425,-0.16665,0.060775
1692596316548,-1.1380501,1.4830501,8.679001,-0.0858,-0.1428625,0.03795
1692596316573,-0.06105,0.98505,9.40905,-0.036025,-0.055275,-0.0380875
1692596316601,1.02195,0.684,10.404,0.041249998,0.05335,-0.1623875
1692596316632,0.38805002,1.7179501,9.69795,0.11,0.07095,-0.2116125
1692596316662,-0.15195,2.0650501,9.126,0.091299996,-0.045649998,-0.110825
1692596316689,-0.83595,2.022,8.73795,0.1552375,-0.21285,-0.1155
1692596316721,-0.90795004,1.8040501,8.767051,0.2514875,-0.1815,-0.267025
1692596316755,-0.42495003,1.5340501,9.10005,0.3961375,0.015675,-0.5984
1692596316781,0.075,1.35405,7.9080005,0.4008125,0.1057375,-0.661925
1692596316809,-0.00795,1.43505,7.6399503,0.2982375,0.1475375,-0.454025
1692596316841,-0.28605002,1.608,8.535001,0.2380125,0.095837496,-0.3001625
1692596316867,-0.68295,2.082,8.48205,0.1958,0.0276375,-0.2061125
1692596316898,-0.44895002,2.5129502,7.7830505,0.16775,-0.0430375,-0.219175
1692596316925,-0.44895002,2.838,7.5319505,0.19607499,-0.0391875,-0.311575
1692596316953,-0.17595,3.3979502,8.089951,0.38775,-0.033275,-0.63525
1692596316981,-0.372,3.9300003,7.2420006,0.53405,-0.053075,-0.79461247
1692596317009,-0.504,4.2000003,6.1369505,0.68076247,-0.0845625,-0.90695
1692596317039,0.67800003,3.0919502,6.9310503,0.939125,-0.1676125,-1.08735
1692596317069,0.89295006,2.57205,8.6310005,1.0605375,-0.231825,-1.2007875
1692596317099,-0.59205,1.9069501,8.614051,1.046925,-0.3953125,-1.0082875
1692596317128,-0.37005,0.94500005,10.189051,0.4816625,-0.308825,-0.1656875
1692596317156,-0.13695,-0.10305001,10.15995,0.4816625,-0.308825,-0.1656875
1692596317183,-2.7439501,-0.91200006,8.17605,-0.18865,0.106425,0.462
1692596317214,-0.966,-3.6330001,13.1640005,-0.9153375,0.5702125,1.116225
1692596317238,0.86700004,-4.78905,12.633,-1.29635,0.814,1.5428874
1692596317268,-0.18495001,-4.06605,11.316001,-1.7279625,1.005125,2.2050874
1692596317298,-1.11405,-2.733,11.59395,-2.6140125,0.780175,4.129675
1692596317328,-0.78405005,-2.01495,10.705951,-2.7891874,0.4434375,4.6792626
1692596317358,-1.7389501,-1.4119501,10.479,-2.3868625,0.024475,4.3261623
1692596317385,-1.8079501,-1.4929501,10.996051,-1.9848125,-0.0231,3.7246
1692596317420,-1.38195,-1.67295,11.323951,-1.1840125,0.0842875,2.4088626
1692596317443,-1.3770001,-1.7400001,10.608001,-0.8771125,0.1683,1.911525
1692596317475,-1.215,-1.9650002,11.488951,-0.50215,0.2138125,1.219625
1692596317505,-0.73095006,-2.0029502,12.561001,-0.4008125,0.1890625,0.963325
1692596317532,-0.37005,-1.3399501,11.58405,-0.2949375,0.0991375,0.6281
1692596317560,-1.3969501,-0.54105,11.517,-0.2558875,0.02695,0.5014625
1692596317592,-1.6810501,-0.35895002,11.494051,-0.084425,-0.0856625,0.108899996
1692596317621,-0.75705004,-0.92100006,11.53695,0.0587125,-0.0565125,-0.1403875
1692596317650,-1.0690501,-0.9979501,11.070001,0.306075,0.1054625,-0.4808375
1692596317692,-0.11100001,-1.89795,13.273951,0.29741248,0.0968,-0.4142875
1692596317731,-0.83400005,-1.0309501,11.545951,0.1423125,-0.0713625,-0.235125
1692596317766,-1.21905,-1.43595,12.312,0.070675,-0.151525,-0.1827375
1692596317804,-1.42305,-2.53005,14.734051,0.02585,-0.18535,-0.1445125
1692596317885,-2.493,-1.5769501,13.144951,-0.259325,-0.03025,0.198825
1692596317898,-2.2699502,-1.6510501,12.583051,-0.2985125,-0.004125,0.236225
1692596317919,-0.79305005,-2.214,11.673,-0.2699125,0.068475,0.22453749
1692596317943,-1.3060501,-2.14395,12.56805,-0.2068,0.15619999,0.210375
1692596317972,-1.3410001,-2.2069502,11.436001,-0.1423125,0.192775,0.2919125
1692596318000,-1.2390001,-2.3140502,11.034,-0.1555125,0.139975,0.359975
1692596318025,-1.3410001,-2.6160002,10.732051,-0.1782,0.08195,0.410575
1692596318062,-0.87495005,-3.255,11.982,-0.239525,0.00495,0.495825
1692596318083,-1.6170001,-2.4100502,10.761001,-0.287925,-0.02585,0.56815
1692596318114,-1.3300501,-2.4120002,10.420951,-0.383075,-0.0823625,0.710875
1692596318150,-0.702,-1.9219501,10.653001,-0.3906375,-0.083875,0.711425
1692596318181,-0.15705001,-0.65805006,6.9259505,-0.30305,-0.0510125,0.5292375
1692596318207,0.312,0.24300002,6.3850503,-0.2187625,-0.053625,0.3526875
1692596318235,-0.58500004,2.3140502,7.8529506,0.035475,-0.0820875,-0.13653749
1692596318261,0.04095,2.8240502,6.0810003,0.2300375,-0.079475,-0.4833125
1692596318290,0.087000005,3.1879501,7.1850004,0.5212625,-0.0361625,-0.9794125
1692596318317,-0.46095002,3.86295,9.066,1.3514875,0.0924,-2.4145
1692596318347,-0.70995003,2.93895,8.48505,1.73745,0.066825,-3.1378875
1692596318378,0.41700003,1.1149501,5.74905,2.17745,-0.1018875,-4.0588627
1692596318407,1.9770001,0.042000003,6.3570004,1.9647375,-0.12045,-4.101075
1692596318437,0.87900007,0.55200005,7.6540504,1.2027125,-0.16885,-3.0569
1692596318467,-1.1550001,1.299,7.9249506,0.548075,-0.55605,-1.3297625
1692596318493,-1.389,1.4470501,8.202001,0.307175,-0.60513747,-0.77385
1692596318522,1.1179501,0.46395,11.059951,0.1804,-0.4750625,-0.5363875
1692596318550,1.6570501,0.94500005,9.83205,0.11275,-0.0719125,-0.4818
1692596318582,0.69000006,2.505,8.22105,0.054449998,-0.0628375,-0.330275
1692596318609,-0.57105005,2.6130002,7.93905,-0.0099,-0.3771625,0.013062499
1692596318638,-0.66405004,1.3920001,8.929951,0.1060125,-0.4764375,-0.1040875
1692596318667,-0.21195,0.30795002,10.239,0.2816,-0.442475,-0.3884375
1692596318693,0.12195001,0.22695,9.98295,0.3870625,-0.1029875,-0.6897
1692596318724,-0.47505003,0.82800007,9.495001,0.22055,0.0606375,-0.4621375
1692596318751,-0.96795005,1.20105,9.27,-0.19635,0.180675,0.2267375
1692596318780,-0.26205,0.87795,9.934951,-0.276925,0.192775,0.35035
1692596318809,0.57195,0.48000002,10.837951,-0.2039125,0.270325,0.20693749
1692596318836,-0.087000005,1.0500001,10.479,-0.1676125,0.2726625,0.19965
1692596318865,-0.28800002,1.1719501,10.099951,-0.1739375,0.208175,0.2712875
1692596318893,-0.61905,0.87105006,9.688951,-0.1802625,0.02805,0.1973125
1692596318921,-0.372,0.60195005,9.727051,-0.1375,0.004675,0.034375
1692596318952,0.14895001,0.51195,9.688951,-0.0803,0.0782375,-0.1007875
1692596318979,-0.36495003,0.69795,8.844001,-0.0955625,0.108625,-0.055825
1692596319006,-0.80100006,0.61005,8.608951,-0.1219625,0.1007875,0.018975
1692596319035,-0.66195005,0.10695001,9.49995,-0.144925,0.055825,0.1623875
1692596319063,-0.61605,-0.13905,9.768001,-0.1441,0.083325,0.1942875
1692596319092,-0.90795004,0.10005,8.772,-0.2039125,0.185075,0.2858625
1692596319119,-0.87195003,0.67905,7.9630504,-0.26235,0.213125,0.380875
1692596319150,-0.025050001,0.66495,9.61005,-0.289575,0.2457125,0.4492125
1692596319179,-0.22800002,1.263,9.52095,-0.2288,0.241175,0.359425
1692596319203,-0.513,1.8760501,8.937,-0.141075,0.1923625,0.2327875
1692596319236,-1.095,2.352,9.64605,0.0702625,0.0226875,-0.02255
1692596319265,-0.94695,1.8259501,10.30395,0.2215125,-0.0163625,-0.231825
1692596319292,-0.28800002,0.75105006,10.93095,0.5383125,0.0286,-0.77825
1692596319323,-0.21900001,0.64995,9.732,0.5814875,0.0572,-0.856075
1692596319354,-0.81495005,1.2919501,8.50605,0.3056625,0.036575,-0.3058
1692596319383,-1.06605,1.6800001,8.293051,0.1241625,0.002475,0.009625
1692596319414,-1.3560001,2.115,8.62395,0.0389125,0.0031625,0.016224999
1692596319447,-1.1550001,2.4120002,8.56095,0.120175,0.0451,-0.2074875
1692596319473,-0.33105,2.32095,8.608951,0.3460875,0.124437496,-0.6730625
1692596319505,-0.64305,2.7160501,7.9459505,0.452375,0.12485,-0.8314625
1692596319531,-0.609,2.7880502,7.905,0.5995,-0.0039875,-0.9233125
1692596319565,-0.21900001,2.6110501,7.3429503,0.6469375,-0.0845625,-0.9112125
1692596319594,0.66795003,2.1780002,7.3740005,0.7046875,-0.18095,-0.86185
1692596319622,-0.28800002,2.26095,9.81105,0.6909375,-0.23045,-0.75295
1692596319649,-1.5949501,2.592,9.892051,0.6329125,-0.2844875,-0.5410625
1692596319678,-2.8140001,1.7869501,8.679001,0.38747498,-0.245025,0.064075
1692596319707,-1.09305,0.38205,8.54895,0.251625,-0.0878625,0.2407625
1692596319737,0.47400004,-1.43805,9.648001,0.029975,0.339625,0.2277
1692596319763,-1.5619501,-1.1370001,9.15705,-0.174625,0.4862,0.4136
1692596319793,-2.29695,-1.8259501,10.716001,-0.9323875,0.528,1.650825
1692596319823,-1.1329501,-2.676,11.40495,-1.2991,0.53735,2.2708125
1692596319850,-1.08105,-2.3070002,10.246051,-1.7593125,0.6725125,3.037375
1692596319878,-1.00395,-1.8070501,9.40905,-1.9036875,0.6304375,3.3116875
1692596319905,-0.61095005,-1.3260001,10.687051,-1.9702375,0.48455,3.439425
1692596319936,-1.7050501,-0.72705,9.868051,-1.7545,0.147675,3.12785
1692596319968,-1.9300501,-0.354,8.73795,-1.226775,-0.0372625,2.4519
1692596319998,-1.023,-1.029,10.52595,-0.94159997,-0.0119624995,2.0959125
1692596320026,0.051000003,-1.6990501,12.06795,-0.6868125,0.0710875,1.7887375
1692596320052,-0.94395006,-0.74205005,10.59105,-0.40425,0.0807125,1.3704625
1692596320087,-1.7580001,-0.17895001,9.94005,-0.3634125,-0.0405625,1.187725
1692596320112,-0.9990001,-0.53595,10.825951,-0.31955,-0.1483625,0.9846375
1692596320144,0.18,-1.09095,11.967001,-0.1155,-0.1115125,0.591525
1692596320172,-0.010950001,-1.07895,11.7949505,0.0290125,-0.0856625,0.3268375
1692596320200,-0.64005005,-1.0890001,11.821051,0.025024999,-0.191125,0.1881
1692596320228,-0.31500003,-0.78705,12.331051,-0.0254375,-0.3614875,-0.0889625
1692596320257,-0.62295,-0.402,11.983951,-0.041249998,-0.349525,-0.14973749
1692596320284,-0.62295,-0.402,11.983951,-0.041249998,-0.349525,-0.14973749
1692596320314,-1.62405,-0.49305,12.23595,0.059125,-0.18315,-0.335775
1692596320339,-0.97005004,-0.10305001,10.92405,0.117975,-0.111237496,-0.417725
1692596320372,0.40695003,-0.71295005,12.7570505,0.176825,0.0556875,-0.46035
1692596320399,-0.31905,-1.07895,13.52595,0.176825,0.0556875,-0.46035
1692596320431,-2.21295,-0.18195,10.407001,0.1148125,-0.0562375,-0.4332625
1692596320458,-1.389,-0.648,11.26095,0.070675,-0.088275,-0.375375
1692596320488,0.84300005,-2.7640502,14.578951,0.0319,-0.0323125,-0.28105
1692596320514,0.53400004,-2.295,13.617001,-0.086625,0.055825,-0.0576125
1692596320543,0.14400001,-1.46895,13.01805,-0.202675,-0.0606375,0.0562375
1692596320572,0.72795004,-1.52205,12.228001,-0.377575,-0.337425,0.21505
1692596320602,0.076950006,-1.6489501,12.678,-0.3568125,-0.36987498,0.1887875
1692596320630,0.156,-2.11995,12.274051,-0.2910875,-0.3612125,0.0911625
1692596320658,0.52005005,-2.5780501,11.476951,-0.2283875,-0.34347498,-0.01815
1692596320689,1.695,-2.8150501,10.68,-0.256025,-0.2849,0.0741125
1692596320721,0.47205,-2.59905,9.43305,-0.33495,-0.3323375,0.1973125
1692596320749,-1.84905,-1.33305,9.106951,-0.4772625,-0.4797375,0.3169375
1692596320780,-1.30095,-1.6470001,8.335951,-0.4885375,-0.4395875,0.3315125
1692596320806,1.06095,-2.59695,10.12395,-0.4390375,-0.270875,0.3469125
1692596320834,1.57305,-0.90705,11.60805,-0.2616625,0.1362625,0.3796375
1692596320862,-0.13695,1.8180001,9.44205,-0.2008875,0.147675,0.2836625
1692596320890,-0.74805003,3.0030003,8.99505,0.041525,-0.0438625,-0.4461875
1692596320919,0.57705003,2.424,10.357051,0.344575,0.0165,-1.05215
1692596320947,0.26595002,1.6990501,8.16405,0.72655,0.182325,-1.7457
1692596320979,-0.37905002,1.21305,7.7640004,1.2667875,0.3345375,-2.9242125
1692596321007,0.156,0.76305,7.3639503,1.3099625,0.2627625,-3.1585126
1692596321035,-0.22605,0.46800002,6.1920004,1.1092125,0.150425,-2.9055126
1692596321064,-0.91995007,0.65295005,6.7369504,0.939675,0.1216875,-2.5436125
1692596321091,-1.0900501,0.84900004,7.7140503,0.5929,0.0933625,-1.737175
1692596321123,-0.69495004,0.89505005,6.9859505,0.469975,0.1549625,-1.4265625
1692596321151,-0.57105005,1.4670001,5.88,0.35035,0.35433748,-1.073875
1692596321180,-0.11100001,2.1660001,7.0270505,0.348425,0.389125,-1.038125
1692596321214,-0.20505,2.11995,9.238951,0.49774998,0.274725,-1.23585
1692596321238,-1.5979501,2.0629501,9.705001,0.6268625,0.1516625,-1.367025
1692596321266,-2.052,1.8210001,8.877001,0.7236625,0.0292875,-1.4026375
1692596321295,-1.0330501,0.61200005,8.202001,0.6985,0.043175,-1.3239875
1692596321323,0.04605,-0.0139500005,9.0379505,0.611875,0.1736625,-1.3498375
1692596321350,0.30900002,-0.10305001,10.111951,0.252175,0.29645,-0.95411247
1692596321382,-0.609,0.53505003,7.93695,-0.0325875,0.22453749,-0.3768875
1692596321411,-1.38495,0.72495,8.27595,-0.45787498,-0.019524999,0.5627875
1692596321440,-0.71895003,0.45600003,8.712001,-0.4772625,-0.06765,0.5504125
1692596321468,1.69305,-0.77505004,12.099001,-0.31033748,0.0331375,-0.0290125
1692596321498,1.3620001,-1.029,11.60595,-0.2915,0.0356125,-0.0925375
1692596321524,0.13005,-0.27,10.213051,-0.3840375,-0.0856625,0.227975
1692596321554,-0.22800002,0.59505004,10.27995,-0.6666,-0.4684625,1.1978999
1692596321584,0.43395,0.73395,11.25405,-0.6741625,-0.51535,1.27105
1692596321612,0.78300005,0.75105006,10.77105,-0.379225,-0.3432,0.6873625
1692596321644,0.16095,1.14795,10.1959505,-0.2057,-0.2836625,0.379775
1692596321672,0.012,1.1890501,10.05,-0.073975,-0.2773375,0.151525
1692596321703,0.156,0.53805,9.556951,0.09625,-0.2787125,-0.1984125
1692596321730,-0.010950001,0.20295002,9.391951,0.167475,-0.1841125,-0.37125
1692596321756,-0.19695,0.094950005,9.234,0.1414875,-0.1291125,-0.323125
1692596321790,-0.42195,0.12900001,9.021001,0.011,-0.0273625,-0.0944625
1692596321808,-0.28605002,0.32205,8.679001,-0.05335,0.031625,0.0015125
1692596321840,-0.39600003,0.82800007,8.722051,-0.09845,0.092125,0.072875
1692596321868,-0.44595003,0.92100006,8.335951,-0.1137125,0.1398375,0.111375
1692596321898,-0.03705,0.86295,8.02995,-0.0306625,0.1733875,-0.015125
1692596321928,0.177,0.906,7.7500505,0.0479875,0.1670625,-0.1687125
1692596321958,0.42195,0.65505004,8.305051,0.1705,0.09515,-0.374275
1692596321987,0.80700004,0.70995003,9.00195,0.1964875,0.02805,-0.3694625
1692596322017,0.54405004,1.28205,8.66205,0.180125,-0.1225125,-0.2387
1692596322045,0.10305001,1.7850001,9.375,0.156475,-0.1898875,-0.154275
1692596322076,-0.14505,2.0029502,10.000051,0.1931875,-0.2638625,-0.0820875
1692596322099,-0.027,1.95,9.0070505,0.26633748,-0.24805,-0.1843875
1692596322132,0.109950006,1.641,8.86305,0.348975,-0.2003375,-0.379775
1692596322160,-0.40605003,2.05995,8.647051,0.4544375,-0.0974875,-0.767525
1692596322190,-0.13005,2.33295,8.736,0.4565,-0.0515625,-0.9048875
1692596322218,1.161,1.6800001,9.45195,0.45787498,-0.02915,-0.932525
1692596322250,0.23700002,1.9050001,10.387951,0.46928748,-0.0158125,-0.931975
1692596322277,-1.38495,2.3860502,9.064051,0.414425,-0.102575,-0.6824125
1692596322304,-1.28205,1.8970501,7.73295,0.340725,-0.1373625,-0.5187875
1692596322335,0.84300005,0.093,8.535001,0.264825,0.046475,-0.5322625
1692596322366,-0.69795,-0.64095,7.3450503,0.227975,0.1698125,-0.5418875
1692596322391,-2.151,-0.84195006,8.113951,-0.1384625,0.22055,0.1434125
1692596322420,-0.030000001,-1.62705,9.736951,-0.42295,0.25685,0.625625
1692596322448,0.855,-2.53005,9.48495,-0.8927875,0.5020125,1.322475
1692596322475,-0.19005,-2.33295,7.872,-1.1092125,0.512875,1.827925
1692596322510,0.34995002,-2.90805,9.98295,-1.501775,0.171325,3.0349
1692596322539,0.74505,-3.1020002,11.644051,-1.5928,-0.0059125,3.35555
1692596322567,-0.72900003,-3.07095,11.173051,-1.5846875,-0.2501125,3.4557874
1692596322599,-1.1329501,-3.01605,10.906951,-1.5158,-0.3364625,3.3094876
1692596322625,-0.18795002,-3.48495,13.156951,-1.4081374,-0.34925,3.042325
1692596322651,0.192,-3.5350502,13.82505,-1.2769625,-0.2756875,2.7237375
1692596322683,-0.786,-1.96695,11.628,-1.0124125,-0.1054625,2.1274
1692596322710,-0.17595,-1.9429501,11.73795,-0.7198125,-0.102437496,1.4807374
1692596322742,0.087000005,-2.187,12.015,-0.532125,-0.09075,1.1103125
1692596322770,0.81705004,-2.9340003,13.059001,-0.186175,-0.0430375,0.4090625
1692596322798,0.028950002,-2.70705,13.317,-0.093225,-0.054175,0.146575
1692596322828,-0.73605,-2.118,11.934001,-0.05775,-0.0878625,-0.0592625
1692596322856,-0.61095005,-1.9390501,11.460001,-0.047849998,-0.07865,-0.375925
1692596322891,0.273,-2.93895,12.87705,0.013612499,0.0853875,-0.472725
1692596322919,0.112950005,-3.37995,14.31105,0.0394625,0.1307625,-0.4131875
1692596322947,-0.82905006,-3.04905,12.54405,0.0391875,0.11715,-0.313775
1692596322974,-0.33600003,-3.2959502,11.091001,-0.0462,0.019524999,-0.0760375
1692596323004,0.69195,-3.6000001,13.135951,-0.0968,0.004675,0.0658625
1692596323035,0.09105001,-3.5449502,14.395051,-0.198275,-0.01045,0.3378375
1692596323064,0.15105,-3.5640001,13.108951,-0.2415875,-0.061875,0.3804625
1692596323091,-0.135,-3.25305,13.942051,-0.2514875,-0.15785,0.2998875
1692596323122,-0.69495004,-2.973,13.222051,-0.22453749,-0.1665125,0.2679875
1692596323146,-0.73095006,-3.006,12.19005,-0.1846625,-0.154,0.26015
1692596323174,-0.034950003,-3.5040002,11.37405,-0.08525,-0.06875,0.28985
1692596323203,0.28005,-3.6000001,11.776051,-0.0572,-0.0182875,0.32285
1692596323236,-0.71205,-2.7190502,11.6629505,-0.1034,-0.01925,0.3672625
1692596323256,-0.81705004,-2.25495,11.035951,-0.1423125,-0.0644875,0.360525
1692596323291,-0.38895002,-1.62495,9.30795,-0.146575,-0.0840125,0.345125
1692596323321,-0.34095,-2.0629501,8.841001,-0.0198,0.0209,0.2484625
1692596323348,-0.07005,-1.7539501,9.363001,0.0605,0.0848375,0.1401125
1692596323374,-0.20205002,0.37695003,7.9410005,0.1351625,0.1079375,-0.0697125
1692596323403,0.34305,1.8970501,5.3899503,0.16005,0.0851125,-0.1403875
1692596323432,1.6110001,2.02395,4.70295,0.2457125,0.0796125,-0.27307498
1692596323468,0.028950002,1.8499501,8.58495,0.98395,0.1188,-1.71325
1692596323498,-1.62405,2.2780502,9.109051,1.2104125,-0.00605,-2.304225
1692596323526,-2.742,1.6650001,5.88495,1.3558875,-0.1192125,-2.7682874
1692596323555,-0.14205001,-0.20295002,7.326,1.4755125,0.2234375,-3.56015
1692596323584,2.14695,-1.161,8.69295,1.4546125,0.571725,-3.8751624
1692596323612,0.93105006,-0.53595,8.743051,0.9838125,0.6644,-3.1211126
1692596323650,0.85995007,-0.39705002,9.825001,0.1799875,-0.048125,-1.0055375
1692596323676,0.513,-0.07395,9.064051,-0.053625,-0.3194125,-0.2908125
1692596323704,0.26805001,0.67395,8.33895,-0.154825,-0.4417875,0.10395
1692596323731,0.25905,0.717,8.04405,-0.1111,-0.4057625,0.2454375
1692596323759,0.08895,0.90405005,6.80205,-0.013475,-0.330825,0.098725
1692596323786,0.77295005,0.44700003,9.17205,0.1021625,-0.2550625,-0.108625
1692596323812,1.9920001,-0.177,11.806951,0.2717,-0.1628,-0.4140125
1692596323846,0.984,0.117000006,9.4470005,0.2811875,-0.18053749,-0.40425
1692596323870,-0.351,0.504,8.583,0.132825,-0.37867498,-0.0042625
1692596323897,-0.56805,0.010950001,9.68595,0.054449998,-0.4250125,0.169675
1692596323925,-0.67095006,-0.045,10.030951,0.0160875,-0.341,0.1975875
1692596323955,-0.09,-0.11895001,9.67905,-0.0103124995,0.07645,0.025575
1692596323985,0.34305,-0.17205001,10.036051,-0.0369875,0.253,-0.022275
1692596324017,0.61800003,-0.055050004,10.39995,-0.0691625,0.3419625,-0.0224125
1692596324048,0.13005,0.16695,10.40205,-0.1128875,0.266475,0.00935
1692596324072,-0.351,0.27495003,10.18395,-0.1013375,0.088,-0.02805
1692596324102,-0.36,0.15705001,10.078951,-0.071775,0.0504625,-0.0631125
1692596324126,0.048,-0.036000002,9.969001,-0.03795,0.058025,-0.100099996
1692596324155,0.33495003,-0.20295002,10.203,0.0015125,0.131175,-0.187
1692596324188,-0.31695002,-0.069000006,9.27705,-0.0308,0.109175,-0.1601875
1692596324217,-0.73605,-0.13395001,8.974951,-0.0583,0.0710875,-0.1093125
1692596324244,-0.58995,-0.31800002,9.471001,-0.0759,0.059675,-0.0625625
1692596324273,-0.126,-0.31605002,9.10005,-0.086625,0.149325,0.028875
1692596324302,-0.41295,0.094950005,8.06805,-0.0977625,0.1991,0.1040875
1692596324330,-0.68805003,0.504,7.9270506,-0.1120625,0.19635,0.3199625
1692596324363,-0.16095,0.55200005,9.1380005,-0.078375,0.177375,0.3482875
1692596324399,-0.094050005,1.3800001,9.736951,0.078375,0.1626625,0.1258125
1692596324414,-0.27405003,1.6680001,9.49005,0.078375,0.1626625,0.1258125
1692596324450,-0.44595003,0.98505,10.366051,0.3799125,0.032175,-0.4312
1692596324478,-0.11595,0.44700003,11.155951,0.4928,0.0297,-0.67141247
1692596324514,-0.109050006,0.23895001,9.448951,0.4983,0.066825,-0.7060625
1692596324540,-0.42000002,0.67005,8.773951,0.3518625,0.0490875,-0.4225375
1692596324568,-0.68805003,0.92595005,8.575951,0.1835625,0.013475,-0.119625
1692596324595,-0.58695,0.76995003,8.929951,0.0405625,0.0050875,0.0501875
1692596324621,-0.33900002,0.717,9.14295,0.0650375,0.044,-0.0430375
1692596324653,-0.88005006,1.1910001,9.109051,0.1161875,0.0999625,-0.194975
1692596324681,-1.0570501,1.43805,8.7310505,0.1189375,0.095425,-0.1997875
1692596324711,-0.55905,1.42095,8.0779505,0.168025,0.11825,-0.2572625
1692596324738,-0.573,1.42095,7.8700504,0.23333749,0.1511125,-0.3672625
1692596324769,-1.18605,1.713,8.193001,0.36245,0.149325,-0.55605
1692596324796,-1.02795,1.881,8.904,0.396825,0.1287,-0.5770875
1692596324825,-0.96105003,1.9810501,8.590051,0.4197875,0.12705,-0.5864375
1692596324854,-0.96795005,1.86405,7.872,0.4637875,0.14739999,-0.6639875
1692596324882,-0.37395,1.6390501,8.937,0.4841375,0.1329625,-0.7249
1692596324909,-0.504,1.728,8.50395,0.492525,0.102025,-0.762575
1692596324939,-1.57605,0.77205,6.558,0.424875,0.0325875,-0.605825
1692596324966,-0.17295001,-0.53295004,8.254951,0.3515875,0.0196625,-0.44715
1692596324995,0.56505,-1.7850001,8.99205,0.1007875,0.14025,-0.104225
1692596325026,-0.252,-2.26395,10.404,-0.1672,0.21395,0.33275
1692596325054,-0.41505003,-2.16405,10.816051,-1.00595,0.13653749,2.04765
1692596325083,0.010050001,-2.14695,11.0460005,-1.3946625,0.0380875,2.908675
1692596325111,0.003,-2.1349502,10.357051,-1.7149,-0.106837496,3.588475
1692596325139,0.052950002,-2.6950502,10.167001,-1.660725,-0.175725,3.4170125
1692596325170,-0.20895001,-3.1210501,11.512951,-1.407725,-0.3073125,2.7410624
1692596325200,-0.78105,-2.1780002,11.814,-1.3024,-0.3460875,2.4558876
1692596325227,-1.4800501,-1.36395,10.500001,-1.113475,-0.33495,2.0736375
1692596325257,-1.23405,-1.65795,10.2300005,-0.955625,-0.258775,1.867525
1692596325281,-0.64005005,-2.058,10.744051,-0.748275,-0.1342,1.61425
1692596325313,-0.279,-2.40105,11.920051,-0.3892625,0.088275,1.1072875
1692596325345,-0.85305005,-1.7350501,11.508,-0.3128125,0.0979,0.9097
1692596325375,-0.89895004,-1.55595,11.68305,-0.25575,0.0033,0.60445
1692596325405,-0.67605,-1.74195,12.147,-0.2044625,-0.0105875,0.4712125
1692596325434,-0.84795004,-1.6870501,11.6970005,-0.0512875,0.028875,0.1984125
1692596325463,-0.48495004,-1.6489501,12.15705,0.0103124995,0.043725,0.064625
1692596325494,-0.64995,-1.5150001,12.013051,0.0661375,0.0460625,-0.1698125
1692596325523,-1.78005,-1.4070001,10.08405,0.077275,0.036575,-0.25905
1692596325557,0.81195,-1.797,12.307051,0.0895125,0.013612499,-0.3122625
1692596325575,0.17505,-1.4430001,11.994,0.087037496,-0.0028875,-0.2806375
1692596325613,-1.36995,-1.35405,10.79895,0.08965,-0.1101375,-0.2828375
1692596325637,-0.82005006,-2.19495,12.814951,0.113437496,-0.1335125,-0.331375
1692596325667,-0.70695,-3.5779502,14.280001,0.1302125,-0.0012375,-0.31515
1692596325693,0.273,-4.18905,15.27795,0.052525,0.049225,-0.1604625
1692596325721,-0.43005002,-3.006,12.322051,-0.08855,0.03355,0.078099996
1692596325748,-0.28395,-2.496,10.725,-0.246125,-0.0391875,0.3078625
1692596325779,-0.504,-2.25495,12.592051,-0.4184125,-0.1841125,0.45787498
1692596325805,-0.74100006,-2.5540502,12.111001,-0.39833748,-0.18493749,0.3641
1692596325831,0.034050003,-3.5040002,11.910001,-0.2457125,-0.082775,0.0286
1692596325865,0.060000002,-3.4660501,11.698951,-0.18975,-0.043175,-0.0251625
1692596325889,0.058050003,-3.55905,11.568001,-0.1874125,-0.0477125,0.079475
1692596325917,-0.18495001,-3.79605,12.559051,-0.301125,-0.166375,0.434775
1692596325944,-1.43505,-2.532,11.199,-0.3542,-0.22,0.513975
1692596325973,-2.1430502,-1.2559501,9.708,-0.3779875,-0.2398,0.52305
1692596326004,-0.312,-0.79200006,7.7830505,-0.3012625,-0.106425,0.4068625
1692596326034,0.58905005,-0.08595,7.5130506,-0.0067375,0.2039125,0.05555
1692596326060,-0.19695,1.3609501,8.113951,0.1599125,0.2806375,-0.183975
1692596326086,-0.975,1.9290001,7.0290003,0.3091,0.2635875,-0.44275
1692596326114,0.28005,0.88305,6.72795,0.7112875,0.21065,-1.187175
1692596326140,1.7839501,0.44205,9.69795,0.9626375,0.26015,-1.668425
1692596326171,-1.58595,0.90405005,8.89395,1.20725,0.2101,-2.31605
1692596326202,-5.0539503,1.96695,6.6319504,1.1611875,0.047849998,-2.3214126
1692596326229,-2.7490501,1.1700001,6.747,1.076075,-0.0389125,-2.1932626
1692596326259,0.57195,-0.19605,8.413051,1.0099375,0.471625,-2.1159875
1692596326295,-0.966,0.27495003,6.8380504,0.933075,0.867625,-2.0549376
1692596326323,-1.8750001,0.61695004,7.8480005,0.7442875,0.6661875,-1.65605
1692596326359,-1.212,0.54300004,9.174001,0.37565,0.242825,-0.850025
1692596326383,-2.05995,1.0999501,7.2400503,0.31913748,0.236775,-0.711975
1692596326410,-2.706,1.23705,5.47095,0.3144625,0.28105,-0.67485
1692596326442,0.312,0.064050004,9.981001,0.3752375,0.3408625,-0.76175
1692596326475,-0.68295,0.42495003,12.649951,0.4475625,0.3784,-0.9255125
1692596326502,-2.5480502,1.6009501,8.917951,0.3383875,0.220275,-0.680075
1692596326530,-1.8319501,1.2750001,7.2349505,0.1672,-0.0319,-0.291225
1692596326561,0.21105,-0.34695002,9.99495,0.1139875,-0.18933749,-0.1915375
1692596326589,-0.22095,-0.45900002,10.062,0.224675,-0.0352,-0.5138375
1692596326618,-0.72405005,-0.105000004,9.222,0.0803,-0.106425,-0.250525
1692596326647,-0.52995,0.30105,9.339001,-0.3069,-0.297275,0.5086125
1692596326674,-0.573,0.39195,10.012051,-0.3526875,-0.2930125,0.59785
1692596326702,-0.25005,-0.024,10.227,-0.3102,-0.2523125,0.522775
1692596326733,-0.49695003,-0.00405,9.946951,-0.1852125,-0.209825,0.3180375
1692596326760,-0.60705,0.33405003,9.44505,-0.163625,-0.212025,0.2820125
1692596326789,-0.049050003,0.13095,9.61695,-0.1524875,-0.1920875,0.2814625
1692596326817,0.27795002,0.00405,10.864051,-0.127875,-0.1640375,0.2707375
1692596326846,0.0,0.37500003,9.780001,-0.098175,-0.155375,0.2646875
1692596326879,-0.44895002,0.55200005,8.889001,-0.0672375,-0.2398,0.3029125
1692596326909,-0.20205002,0.49695003,9.708,-0.0077,-0.270325,0.1918125
1692596326936,0.16995001,0.38700002,10.087951,0.040425,-0.2327875,0.06545
1692596326964,0.26805001,0.49005002,9.889951,0.0814,-0.1901625,-0.054449998
1692596326992,-0.75000006,1.215,8.877001,0.10395,-0.1753125,-0.1087625
1692596327024,-0.42000002,1.04295,9.30795,0.109037496,-0.186175,-0.0765875
1692596327051,0.34305,0.44700003,10.09605,0.1945625,-0.117975,-0.22013749
1692596327080,0.39495003,0.54705,9.76095,0.24213749,-0.0686125,-0.374
1692596327110,-0.063,1.02405,9.17895,0.2085875,-0.1035375,-0.4602125
1692596327140,-0.087000005,0.85095006,9.77505,0.1606,-0.1579875,-0.3927
1692596327169,0.20595,0.63405,10.323001,0.1463,-0.1788875,-0.3397625
1692596327195,-0.19305001,1.1389501,9.613951,0.15619999,-0.1519375,-0.38445
1692596327225,-0.56805,1.572,8.78895,0.1529,-0.126225,-0.4450875
1692596327293,-0.066,1.416,8.346001,0.3034625,0.0174625,-0.8955375
1692596327321,-0.33600003,1.5840001,7.9750504,0.3584625,0.0457875,-0.929775
1692596327357,-0.39405003,1.5139501,7.7910004,0.38279998,0.044825,-0.8657
1692596327383,-0.39405003,1.5139501,7.7910004,0.38279998,0.044825,-0.8657
1692596327409,-0.39405003,1.5139501,7.7910004,0.38279998,0.044825,-0.8657
1692596327436,0.043050002,2.02905,6.4549503,0.3089625,0.0391875,-0.4268
1692596327467,-0.47700003,2.4769502,7.2949505,0.2671625,0.0187,-0.283525
1692596327496,-0.71895003,3.8029501,6.50505,0.33673748,-0.064625,-0.239525
1692596327525,1.29495,3.8790002,7.1299505,0.487025,-0.06985,-0.440825
1692596327553,1.28295,3.3409503,9.94995,0.911075,-0.0897875,-0.94985
1692596327581,0.771,2.082,10.42395,1.0828125,-0.220825,-0.9827125
1692596327611,-0.30705002,0.363,10.596001,0.967725,-0.5127375,-0.434225
1692596327638,-1.30305,-1.1220001,9.693001,0.6389625,-0.47905,-0.07315
1692596327669,-2.526,-1.9390501,7.3669505,0.2003375,-0.3007125,0.259875
1692596327697,-0.90300006,-4.14795,13.2619505,-0.7310875,0.2921875,0.94269997
1692596327726,-0.58305,-4.3560004,12.001051,-1.63735,0.843425,2.0246875
1692596327754,-1.12605,-3.729,10.6699505,-2.091925,0.8916875,2.8807626
1692596327785,-0.50100005,-3.2980502,10.846951,-2.43265,0.7387875,3.724325
1692596327815,-0.29505002,-2.8819501,11.28495,-2.4781625,0.2646875,4.427225
1692596327843,-1.914,-2.1730502,11.403001,-2.2526624,0.081675,4.283125
1692596327872,-1.15995,-2.6490002,12.468,-1.6281375,-0.1161875,3.4362624
1692596327902,-1.2270001,-2.319,11.083951,-1.3135375,-0.108625,2.949925
1692596327928,-1.30305,-1.9650002,9.732,-1.0423875,-0.0708125,2.5361874
1692596327959,-0.573,-2.6809502,10.99995,-0.656975,-0.0248875,1.864225
1692596327986,0.50805,-3.1900501,13.465951,-0.51919997,0.003025,1.5285875
1692596328015,-0.65205,-1.8330001,12.384001,-0.3447125,0.011275,0.8760125
1692596328044,-0.9799501,-1.3260001,11.166,-0.28435,-0.0506,0.573375
1692596328075,-1.1740501,-1.3399501,13.045051,-0.0743875,-0.0979,0.0213125
1692596328105,-1.0159501,-1.7730001,12.978001,0.055275,-0.0474375,-0.1452
1692596328133,-1.29795,-2.1709502,12.477,0.1661,0.006325,-0.2275625
1692596328160,-0.20895001,-3.31995,13.903951,0.2740375,0.05995,-0.2402125
1692596328191,-1.1380501,-2.7520502,12.942,0.1511125,0.0166375,-0.1027125
1692596328220,-1.5190501,-2.76705,12.53505,0.037125,-0.0385,-0.042625
1692596328247,-1.15695,-3.2929502,14.050051,-0.0622875,-0.0716375,0.008525
1692596328276,-2.22195,-2.736,13.609051,-0.1637625,-0.010725,0.1375
1692596328304,-2.2729502,-2.3860502,12.21195,-0.17655,0.042075,0.174625
1692596328336,-1.866,-2.4169502,11.710951,-0.1428625,0.1639,0.145475
1692596328364,-0.35805002,-3.2569501,11.845051,-0.109037496,0.2404875,0.1095875
1692596328393,-1.1209501,-2.84295,12.451051,-0.0804375,0.2869625,0.054449998
1692596328422,-1.8700501,-2.226,9.92595,-0.108625,0.2066625,0.0298375
1692596328451,-0.537,-3.4300501,9.934951,-0.1755875,0.0105875,0.0336875
1692596328486,-1.7149501,-3.86805,12.829051,-0.1945625,-0.0243375,0.122375
1692596328504,-3.3450003,-2.5849502,12.172951,-0.2338875,-0.04455,0.2677125
1692596328538,-1.8229501,-2.283,8.84895,-0.372625,-0.08305,0.5522
1692596328565,0.651,-3.42705,8.611951,-0.3683625,0.0045375,0.5918
1692596328594,0.52005005,-2.73105,9.604951,-0.239525,0.2459875,0.4695625
1692596328622,0.795,-0.39705002,7.4359503,-0.2237125,0.1764125,0.3188625
1692596328652,0.67305005,1.4280001,7.0960503,-0.1595,-0.20693749,-0.233475
1692596328681,-0.123,2.352,6.3949504,0.025024999,-0.2998875,-0.6485875
1692596328711,0.13005,1.8060001,7.2640505,0.75515,-0.18205,-1.787775
1692596328748,2.6520002,1.4089501,9.922951,1.461625,0.032175,-2.8331876
1692596328775,0.19905001,2.22105,5.6940002,1.6168625,0.0089375,-3.0997999
1692596328807,-0.34800002,1.2220501,5.979,1.6424375,-0.13695,-3.1614
1692596328835,1.59,-0.43500003,9.250951,1.6014625,-0.3084125,-3.0988374
1692596328864,0.95295006,-0.42795002,10.225051,1.404425,-0.3480125,-2.83415
1692596328893,-0.72195005,1.00905,8.892,0.7755,-0.3966875,-1.711875
1692596328922,-0.11595,1.4640001,9.234,0.43725,-0.4519625,-1.0773125
1692596328951,0.312,1.7200501,8.81505,0.24419999,-0.20625,-0.815375
1692596328979,0.83595,1.4760001,9.129001,0.3356375,-0.0449625,-0.975975
1692596329009,0.86895007,0.99300003,9.073951,0.520025,6.875E-4,-1.0569625
1692596329037,0.28995,0.51900005,9.01395,0.538725,-0.0743875,-0.9612625
1692596329077,0.11505,0.094950005,9.48795,0.4962375,-0.1563375,-0.837375
1692596329112,0.30705002,-0.29895002,9.99705,0.109037496,-0.1208625,-0.384175
1692596329123,0.19905001,-0.057000004,9.625951,0.109037496,-0.1208625,-0.384175
1692596329153,-0.39600003,0.23400001,9.18795,-0.20295,0.02035,0.0543125
1692596329180,-0.46800002,0.112050004,9.411,-0.2957625,0.064625,0.17613749
1692596329209,-0.34095,-0.27495003,9.648001,-0.3144625,0.1593625,0.10065
1692596329240,-0.61395,-0.045,9.04695,-0.293975,0.2162875,0.009625
1692596329268,-0.77895004,0.25095,9.198001,-0.2849,0.2850375,-0.013612499
1692596329299,-0.64005005,0.0139500005,9.45195,-0.2729375,0.3067625,0.051975
1692596329325,-0.09,0.021000002,9.61905,-0.2344375,0.3322,0.105875
1692596329356,0.26805001,-0.39900002,9.247951,-0.1359875,0.3378375,0.1249875
1692596329386,-0.058050003,-0.32295,10.40205,-0.1219625,0.2778875,0.1654125
1692596329412,-0.43395,-0.117000006,10.762951,-0.1376375,0.179025,0.2525875
1692596329441,-0.73395,0.08505,9.859051,-0.1887875,0.0033,0.4170375
1692596329471,-0.303,-0.37605003,9.889951,-0.15565,0.03025,0.30195
1692596329500,-0.28095,-0.60795003,9.80805,-0.1148125,0.0856625,0.17435
1692596329531,-0.37005,-0.67695004,9.79905,-0.1148125,0.0856625,0.17435
1692596329559,-1.23405,-0.65295005,9.093,-0.1513875,0.1150875,0.2539625
1692596329584,-0.93495005,-0.78000003,9.81795,-0.199925,0.127325,0.366025
1692596329617,-0.35505003,-0.10695001,9.901951,-0.2553375,0.229625,0.4426125
1692596329647,-0.70005006,1.3609501,8.710051,-0.26235,0.2567125,0.44494998
1692596329681,-1.6140001,2.3400002,8.793,-0.1555125,0.18315,0.3812875
1692596329705,-1.23405,1.7830501,9.8539505,0.033825,0.1472625,0.163625
1692596329734,-0.31005,1.0360501,10.552951,0.590425,0.188375,-0.678975
1692596329762,-0.027,0.64305,9.625951,0.78155,0.206525,-1.0085624
1692596329790,-0.68805003,0.47100002,8.50395,0.736175,0.091025,-0.923175
1692596329819,-0.23295002,0.44205,8.260051,0.5753,5.5E-4,-0.6359375
1692596329850,-0.15405001,1.31295,7.6060505,0.271975,-0.0768625,-0.155375
1692596329878,-0.003,1.7850001,7.6590004,0.1854875,-0.0862125,-0.0339625
