@ HyperIMU - ianovir
@ Date:Sat Aug 19 13:20:06 GMT+03:00 2023, Sampling Rate:25ms

timestamp,bma4xy_accelerometer.x,bma4xy_accelerometer.y,bma4xy_accelerometer.z,oem_pseudo_gyro.x,oem_pseudo_gyro.y,oem_pseudo_gyro.z
1692440406933,0.14895001,-0.060000002,9.77505,0.10615,-0.018975,-1.117325
1692440406976,-0.054,0.042000003,9.74895,0.11055,-0.163075,-1.2414875
1692440407003,0.23295002,-0.124050006,9.739051,0.0969375,-0.3114375,-1.1598125
1692440407037,-0.18495001,-0.012,9.691051,0.079475,-0.309375,-0.9009
1692440407057,-0.46305,0.13605,10.146001,0.0650375,-0.2930125,-0.7717875
1692440407083,-0.09,0.054,9.80595,0.0512875,-0.2629,-0.6615125
1692440407117,0.24000001,-0.12195001,10.74705,0.054175,-0.14795,-0.5762625
1692440407142,0.49800003,0.0019500001,11.314051,0.0581625,-0.1087625,-0.5660875
1692440407169,0.83295006,0.033,9.861,0.0449625,-0.110275,-0.516175
1692440407194,0.24900001,0.39705002,9.69795,0.0196625,-0.1508375,-0.4329875
1692440407228,0.076950006,0.507,8.944051,0.005225,-0.2814625,-0.340175
1692440407246,-0.252,0.17400001,8.3220005,0.0347875,-0.3073125,-0.3658875
1692440407283,2.3100002,-1.33095,9.61005,0.11165,-0.231825,-0.4453625
1692440407308,1.48395,-1.04595,10.870951,0.084975,-0.2077625,-0.3458125
1692440407335,-0.09195001,0.09705,11.983951,-0.0257125,-0.257125,-0.06985
1692440407363,-1.605,1.179,9.387,-0.2836625,-0.4307875,0.451
1692440407390,-1.4490001,0.624,8.30805,-0.26895,-0.3597,0.3482875
1692440407417,-1.00605,0.16695,9.403951,0.0372625,0.1287,-0.41525
1692440407444,0.61605,-0.91605,10.938001,0.1810875,0.36574998,-0.7352125
1692440407472,2.5399501,-2.01795,10.6050005,0.2349875,0.4989875,-0.82445
1692440407500,3.0859501,-2.32605,10.58205,0.0253,0.2915,-0.27101249
1692440407531,-0.44895002,0.19305001,10.29405,-0.191125,-0.0364375,0.1797125
1692440407562,-0.291,0.141,9.871051,-0.5196125,-0.6191625,0.6898375
1692440407593,0.024,0.076050006,9.424951,-0.4862,-0.6067875,0.5776375
1692440407624,0.41205,0.08805001,8.63595,-0.128975,-0.126775,-0.014162499
1692440407655,0.40500003,0.09705,9.865951,0.0235125,0.0551375,-0.215875
1692440407690,0.02205,0.45405003,9.76305,0.15015,0.110275,-0.27981248
1692440407714,0.23700002,0.23895001,9.057,0.17173749,0.076175,-0.23333749
1692440407742,0.15795001,0.10695001,9.093,0.2063875,0.043175,-0.170775
1692440407773,-0.09900001,0.38700002,10.024051,0.2129875,0.0435875,-0.17655
1692440407803,-0.19005,0.38205,10.048051,0.18205,0.0543125,-0.202125
1692440407832,-0.19305001,0.32205,9.672001,0.16885,0.07755,-0.241725
1692440407860,0.19695,0.016050002,9.922951,0.17985,0.14739999,-0.2776125
1692440407896,0.49800003,-0.117000006,9.745951,0.15235,0.15785,-0.070675
1692440407927,-0.09705,0.31305,9.21,0.1095875,0.120037496,0.0092124995
1692440407961,-0.13695,0.028050002,10.392,0.0276375,0.0221375,0.0732875
1692440407989,0.216,-0.15795001,10.68,0.0055,0.0061875,0.082499996
1692440408024,-0.40305,0.44700003,8.323951,-0.01375,0.043449998,0.102575
1692440408044,0.12195001,0.0139500005,8.33205,-0.01705,0.06655,0.1408
1692440408068,-0.22095,0.48795003,9.769951,-0.012925,0.08305,0.153725
1692440408101,0.36900002,-0.28005,10.56,0.012925,0.099825,0.0028875
1692440408122,0.36900002,-0.28005,10.56,0.012925,0.099825,0.0028875
1692440408152,0.36900002,-0.28005,10.56,0.012925,0.099825,0.0028875
1692440408179,0.36900002,-0.28005,10.56,0.012925,0.099825,0.0028875
1692440408212,0.36900002,-0.28005,10.56,0.012925,0.099825,0.0028875
1692440408241,-0.17295001,0.018000001,10.825951,-0.058575,-0.089237496,0.24145
1692440408269,-0.17295001,0.018000001,10.825951,-0.058575,-0.089237496,0.24145
1692440408301,-0.17295001,0.018000001,10.825951,-0.058575,-0.089237496,0.24145
1692440408337,0.23700002,0.25995,9.76095,-0.071775,-0.1439625,0.3914625
1692440408374,-0.53505003,0.51900005,10.347,-0.0727375,-0.1810875,0.4263875
1692440408411,-0.47295,0.41805002,8.941951,0.0020625,-0.12925,0.33935
1692440408431,-0.73395,0.837,9.306001,0.0682,-0.0499125,0.2013
1692440408478,0.96000004,-0.41595003,9.43305,0.179025,0.1648625,-0.14973749
1692440408499,1.365,-0.46395,10.407001,0.15345,0.1676125,-0.1181125
1692440408521,1.3579501,-0.66300005,10.737,0.15345,0.1676125,-0.1181125
1692440408551,0.73800004,-0.57405,9.8539505,-0.0132,-0.0512875,0.117425
1692440408581,-0.50100005,0.28905,9.61005,-0.1835625,-0.28393748,0.30855
1692440408607,-0.80505,0.89895004,9.64305,-0.215875,-0.2926,0.34155
1692440408632,-1.3369501,1.0500001,10.12005,-0.1915375,-0.213125,0.279675
1692440408661,0.321,-0.064050004,10.12905,0.0254375,0.1445125,-0.177375
1692440408696,0.9670501,-0.25095,9.79605,0.1566125,0.33055,-0.4439875
1692440408709,0.651,0.045,10.345051,0.2272875,0.423225,-0.5856125
1692440408745,0.14205001,0.25500003,9.102,0.12773749,0.20185,-0.4169
1692440408772,-0.3,0.20805001,8.134951,0.050325,0.0188375,-0.292325
1692440408804,0.41400003,0.28395,9.042001,0.007425,-0.1188,-0.186175
1692440408831,0.85695004,0.105000004,9.603001,0.021724999,-0.0820875,-0.1549625
1692440408859,0.25905,-0.021000002,10.323001,0.0413875,-0.0149875,-0.0603625
1692440408885,0.16095,-0.13605,9.8230505,0.03135,-0.052525,2.75E-4
1692440408914,0.32295,0.034950003,10.005,0.0088,-0.1016125,0.0477125
1692440408944,0.91200006,-0.15300001,10.59105,-0.0463375,-0.0884125,0.0479875
1692440408970,0.108,-0.043050002,10.71105,-0.064075,-0.058575,0.0191125
1692440409000,0.00795,-0.47400004,10.44495,-0.0779625,-0.0232375,0.0138875
1692440409025,-0.05595,-0.531,10.455001,-0.087725,4.125E-4,0.033825
1692440409053,0.087000005,-0.54495,10.30605,-0.110825,0.0290125,0.0383625
1692440409082,0.37605003,-0.51195,10.01895,-0.17985,0.077275,0.0350625
1692440409110,0.10605001,-0.33495003,9.394051,-0.201025,0.0823625,0.0804375
1692440409139,0.10095,-0.26805001,9.403951,-0.2028125,0.0341,0.1304875
1692440409171,0.09105001,-0.34395,10.12695,-0.1848,0.0116875,0.063525
1692440409200,0.10305001,-0.27,10.066951,-0.1233375,0.0125124995,-0.0177375
1692440409228,0.087000005,-0.27,9.64305,-0.0935,0.0176,0.0122375
1692440409256,0.10095,-0.25095,9.64305,-0.047849998,0.02255,0.0603625
1692440409285,0.0,-0.33195,9.82005,-0.029975,0.0257125,0.0430375
1692440409313,0.052950002,-0.26505002,9.92805,-0.0158125,0.0303875,-0.0094875
1692440409340,-0.11100001,-0.246,9.835051,-2.75E-4,0.0444125,-0.0952875
1692440409367,0.034050003,-0.39705002,9.98595,0.0011,0.0523875,-0.089925
1692440409397,0.076950006,-0.29895002,9.8869505,-0.0031625,0.0732875,-0.131175
1692440409425,-0.049050003,-0.21795002,9.62895,-0.005225,0.0796125,-0.17173749
1692440409452,-0.00795,-0.21795002,9.67395,-0.0061875,0.0743875,-0.1909875
1692440409479,0.01905,-0.25605002,9.828,9.625E-4,0.0455125,-0.1868625
1692440409508,-0.05595,-0.27,9.865951,0.0077,0.036025,-0.175725
1692440409535,-0.08505,-0.273,9.877951,0.013062499,0.026124999,-0.143275
1692440409564,-0.022950001,-0.30600002,9.768001,0.0103124995,0.026675,-0.1243
1692440409591,-0.123,-0.34695002,9.97095,0.0048125,0.031075,-0.087037496
1692440409620,-0.003,-0.29205,9.934951,-0.01155,0.032725,0.064899996
1692440409648,0.012,-0.26505002,9.85095,-0.0191125,0.0281875,0.1332375
1692440409676,-0.039,-0.23400001,9.904051,-0.02365,0.01815,0.150425
1692440409703,-0.051000003,-0.16995001,9.712951,-0.0188375,0.0127875,0.1172875
1692440409733,0.031050002,-0.13605,9.604951,-0.0083875,0.0070125,0.0704
1692440409760,0.00795,-0.162,9.672001,0.0213125,5.5E-4,-0.0642125
1692440409792,-0.043950003,-0.21000001,9.918,0.03355,5.5E-4,-0.127875
1692440409819,-0.14505,-0.282,9.94995,0.0402875,4.125E-4,-0.11715
1692440409847,-0.058050003,-0.26295,9.9210005,0.0347875,0.0022,-0.041525
1692440409876,0.0,-0.23205002,9.946951,0.013612499,0.0143,0.1145375
1692440409904,0.028950002,-0.23400001,9.70995,0.0034375,0.017324999,0.1786125
1692440409932,0.04605,-0.19395001,9.727051,-0.0017875,0.014162499,0.224125
1692440409961,0.058050003,-0.177,9.8869505,0.0048125,-9.625E-4,0.135025
1692440409988,-0.078,-0.16995001,9.684,0.0116875,-0.00825,0.0276375
1692440410015,-0.01305,-0.21795002,9.768001,0.0242,-0.015675,-0.09185
1692440410046,0.01905,-0.25305,9.92805,0.029424999,-0.013062499,-0.0919875
1692440410074,0.02205,-0.24900001,9.90705,0.031075,-0.0086624995,-0.0647625
1692440410101,-0.09705,-0.201,9.768001,0.0199375,-0.004675,-0.0092124995
1692440410130,-0.01305,-0.24105,9.75105,0.010725,-0.004125,-0.0229625
1692440410159,-0.063,-0.25305,9.873,-0.0033,0.0037125,-0.100099996
1692440410184,-0.043950003,-0.21795002,9.816001,-0.0053625,0.0097624995,-0.12045
1692440410214,0.024,-0.18900001,9.77505,-0.00715,0.0127875,-0.1101375
1692440410241,-0.12105001,-0.22695,9.772051,-0.0077,0.0100375,-0.0295625
1692440410271,0.04095,-0.23700002,9.777,-0.0034375,0.0070125,0.0037125
1692440410298,0.024,-0.28500003,10.014001,1.375E-4,0.0028875,-0.006875
1692440410326,-0.04695,-0.21795002,9.918,-2.75E-4,-2.75E-4,-0.050325
1692440410354,-0.043950003,-0.19800001,9.79395,-0.00275,-0.0045375,-0.098037496
1692440410382,0.003,-0.29700002,9.8230505,-0.004125,-0.0039875,-0.1508375
1692440410409,-0.039,-0.294,9.909,-0.0020625,0.0017875,-0.1467125
1692440410439,-0.07005,-0.32505003,9.993,-0.0075625,0.00715,-0.020624999
1692440410465,-0.003,-0.26295,9.68595,-0.015125,0.007975,0.058575
1692440410495,-0.01995,-0.31995,9.607051,-0.0248875,0.0132,0.095699996
1692440410523,-0.10395,-0.32805002,9.98595,-0.026124999,0.013475,0.088825
1692440410551,-0.079950005,-0.31095,9.934951,-0.0264,0.011825,0.088
1692440410577,-0.075,-0.28005,9.736951,-0.0276375,0.0163625,0.04895
1692440410607,-0.015000001,-0.26295,9.739051,-0.0273625,0.0209,0.013612499
1692440410633,0.04095,-0.26805001,9.769951,-0.02475,0.0218625,0.0089375
1692440410662,-0.018000001,-0.27,9.871051,-0.01375,0.01045,0.1225125
1692440410689,-0.039,-0.29205,9.889951,-0.0081124995,0.0015125,0.1901625
1692440410716,0.039,-0.25800002,9.684,-0.003575,-0.0064625,0.234575
1692440410745,-0.01305,-0.30795002,9.712951,0.0022,-0.014162499,0.22825
1692440410775,-0.14895001,-0.246,9.92595,0.00275,-0.0125124995,0.1780625
1692440410807,-0.109050006,-0.23400001,9.705001,0.0034375,-0.0044,0.0518375
1692440410838,-0.079950005,-0.201,9.780001,0.0067375,0.0177375,-0.0897875
1692440410871,-0.19305001,-0.27495003,10.05,0.0100375,0.026675,-0.1535875
1692440410899,-0.11100001,-0.33495003,9.772051,0.013475,0.035475,-0.2396625
1692440410934,-0.07305,-0.32805002,9.765,0.0100375,0.041249998,-0.26427498
1692440410968,-0.03705,-0.29700002,9.80595,-0.00275,0.040425,-0.241175
1692440410991,-0.078,-0.24900001,9.67395,-0.009075,0.03025,-0.194975
1692440411028,-0.087000005,-0.354,9.94995,-0.0165,0.0089375,-0.1161875
1692440411055,-0.11100001,-0.34005,9.9210005,-0.012925,0.0011,-0.0380875
1692440411088,-0.049050003,-0.34905002,9.847051,-0.0165,-0.00165,0.0517
1692440411119,-0.087000005,-0.31995,9.828,-0.02695,-0.0045375,0.2047375
1692440411150,-0.042000003,-0.32805002,9.898951,-0.02915,-0.0078375,0.2110625
1692440411180,0.024,-0.30795002,9.94995,-0.0276375,-0.0097624995,0.180675
1692440411214,-0.043950003,-0.29895002,9.84405,-0.0176,-0.009625,0.043449998
1692440411244,-0.03195,-0.28905,9.813001,-0.0077,-0.0187,-0.0650375
1692440411274,-0.01305,-0.31995,9.847051,-0.00385,-0.021175,-0.0704
1692440411305,-0.11100001,-0.25605002,9.87495,-0.0012375,-0.01265,-0.0397375
1692440411337,0.0049500004,-0.29205,9.765,4.125E-4,-0.0078375,-0.006875
1692440411366,-0.051000003,-0.26505002,9.813001,0.002475,-0.00935,0.0275
1692440411399,-0.12105001,-0.26805001,9.99495,0.0037125,-0.01265,0.0611875
1692440411435,-0.09900001,-0.30600002,9.705001,0.0061875,-0.017324999,0.0859375
1692440411466,-0.07005,-0.402,9.93795,0.003575,-0.0039875,0.0380875
1692440411493,-0.022950001,-0.34905002,9.889951,-0.0,0.00825,0.007425
1692440411525,-0.09,-0.30600002,9.48795,-0.0053625,0.0092124995,0.003025
1692440411556,-0.079950005,-0.354,9.916051,-0.009625,0.0048125,0.01595
1692440411591,-0.06105,-0.29700002,9.89505,-0.0067375,0.0033,0.0111375
1692440411611,-0.063,-0.24405001,9.717,-0.004675,0.0023375,0.0078375
1692440411649,0.055050004,-0.19800001,9.84405,5.5E-4,1.375E-4,0.017324999
1692440411679,0.075,-0.23895001,9.934951,0.00825,-0.0042625,0.0394625
1692440411707,0.23505001,-0.31605002,9.904051,0.0251625,-0.0235125,0.005775
1692440411742,0.35205,-0.33705002,9.555,0.02475,-0.0482625,-0.113299996
1692440411776,0.13905,-0.28695002,9.495001,0.01595,-0.0653125,-0.138325
1692440411806,0.052950002,-0.21795002,9.571051,-0.0022,-0.095425,-0.111925
1692440411837,0.031050002,-0.162,9.057,-9.625E-4,-0.077825,-0.084425
1692440411864,0.22500001,-0.33,8.85105,0.0070125,-0.0554125,-0.0840125
1692440411898,-0.01305,-0.44700003,9.556951,0.0188375,-0.0248875,-0.0598125
1692440411924,-0.010950001,-0.45900002,9.768001,0.0127875,-0.023924999,-0.01265
1692440411957,0.15105,-0.34395,9.042001,-0.0023375,-0.021724999,0.045375
1692440411991,0.33795002,-0.354,8.21895,-0.0374,6.875E-4,0.0902
1692440412024,0.04605,-0.55695003,8.616,-0.0477125,-0.01375,-0.0149875
1692440412054,-0.03195,-0.54795,8.575951,-0.0501875,-0.0361625,-0.07975
1692440412087,-0.087000005,-0.31995,7.6110005,-0.0749375,-0.0408375,-0.069025
1692440412116,0.17295001,-0.38700002,6.6439505,-0.08965,0.0099,0.0776875
1692440412142,0.333,-0.47805002,6.84,-0.080025,0.032449998,0.073699996
1692440412178,0.028950002,-0.37095,7.46505,-0.06985,0.0394625,2.75E-4
1692440412209,0.25905,-0.411,7.00995,-0.0730125,2.75E-4,-0.1560625
1692440412237,0.043050002,-0.67695004,7.1040006,-0.064899996,-0.0369875,-0.2220625
1692440412279,-0.24795002,-0.684,7.5439506,-0.0594,-0.0405625,-0.2520375
1692440412304,-0.094050005,-0.73200005,7.9440002,-0.0935,-0.0108624995,-0.18425
1692440412334,-0.126,-0.77805007,8.23095,-0.1197625,0.0276375,-0.064075
1692440412363,-0.45600003,-0.45705003,8.500951,-0.1373625,0.0697125,0.06875
1692440412398,-0.09900001,-0.35595003,8.35305,-0.1287,0.1254,0.2666125
1692440412430,0.10095,-0.23700002,9.363001,-0.087725,0.1450625,0.262075
1692440412464,0.16800001,-0.15,10.15095,0.0361625,0.128425,0.24475
1692440412493,0.22800002,0.15,9.579,0.09735,0.0774125,0.2278375
1692440412520,0.20400001,0.279,10.042951,0.1904375,-0.034649998,0.1863125
1692440412559,0.10605001,0.12900001,10.375951,0.2300375,-0.07315,0.15565
1692440412586,0.56805,0.049950004,11.13,0.29755,-0.1101375,0.11385
1692440412619,0.57705003,0.016050002,11.235001,0.291225,-0.115225,0.1233375
1692440412650,-0.04695,-0.060000002,12.183001,0.2583625,-0.132275,0.1324125
1692440412679,0.10605001,0.105000004,12.178051,0.2171125,-0.157575,0.1577125
1692440412709,0.051000003,0.43995002,11.299951,0.13859999,-0.135025,0.2484625
1692440412742,0.17505,0.66705,11.58405,0.121825,-0.041525,0.2864125
1692440412773,0.132,0.86595005,11.623051,0.147125,-0.0132,0.2385625
1692440412804,0.15795001,0.92295,11.862,0.2233,0.0086624995,-0.02805
1692440412834,-0.29505002,1.19895,11.637,0.2553375,0.0086624995,-0.1601875
1692440412869,-0.26205,1.09605,11.908051,0.2943875,0.0154,-0.2952125
1692440412895,-0.58695,0.88500005,12.337951,0.3078625,0.0625625,-0.4676375
1692440412928,-0.26205,0.57105005,14.328001,0.2998875,0.0900625,-0.5328125
1692440412960,0.35895002,0.46800002,15.570001,0.273625,0.115775,-0.5262125
1692440412988,0.53895,0.99300003,14.530951,0.1524875,0.13805,-0.2850375
1692440413018,0.61305004,1.36395,13.642951,0.0273625,0.0268125,-0.0884125
1692440413046,0.16995001,1.5120001,14.920951,0.0155375,-0.054725,-0.1291125
1692440413079,0.18705001,1.2220501,14.851951,0.0895125,-0.1456125,-0.328625
1692440413111,0.47400004,0.49500003,15.12705,0.13255,-0.141625,-0.379775
1692440413144,0.37905002,0.042000003,16.597052,0.13653749,-0.0963875,-0.386375
1692440413167,0.72795004,-0.033,15.996,0.0818125,-0.083875,-0.3444375
1692440413205,0.86205006,0.12105001,13.18605,-0.0974875,-0.080575,-0.0730125
1692440413239,0.53205,0.23895001,11.173051,-0.172425,-0.090475,0.0664125
1692440413269,0.39105,-0.064050004,10.926001,-0.2211,-0.12815,0.128975
1692440413300,0.582,-0.61200005,12.133051,-0.186175,-0.129525,0.102437496
1692440413332,0.47205,-0.60795003,11.87895,-0.1819125,-0.116325,0.1502875
1692440413358,0.66795003,-0.39000002,11.026951,-0.2030875,-0.1021625,0.2468125
1692440413390,0.261,0.17400001,9.64995,-0.2701875,-0.07535,0.4214375
1692440413416,0.039,0.42795002,7.9750504,-0.275275,-0.0677875,0.4217125
1692440413448,1.00605,0.22005,6.4020004,-0.187825,-0.0473,0.202125
1692440413478,0.96000004,-0.16005,6.3040504,-0.034649998,-0.01375,-0.1775125
1692440413508,0.39495003,-0.043050002,6.6730504,0.0121,-0.050325,-0.3356375
1692440413541,0.75195,0.08295,6.3160505,0.0204875,-0.1216875,-0.437525
1692440413572,1.06605,0.034950003,6.2710505,-0.016224999,-0.19373749,-0.4536125
1692440413600,-0.372,0.102000006,6.0139503,-0.0242,-0.194975,-0.40535
1692440413630,-0.22800002,-0.45705003,5.5210505,-0.0248875,-0.2057,-0.4318875
1692440413661,-0.17595,-0.49995002,5.631,-0.04015,-0.0719125,-0.425975
1692440413693,-0.16095,-0.47400004,6.4360504,-0.072875,0.06215,-0.304975
1692440413726,-0.55905,-0.58905005,6.867,-0.1925,0.2508,0.110275
1692440413757,0.13695,-0.44505003,7.25895,-0.2407625,0.2916375,0.3146
1692440413786,0.76605004,-0.01905,8.599951,-0.2743125,0.341275,0.6546375
1692440413818,1.8910501,-0.64605004,7.221,-0.2039125,0.2127125,0.66522497
1692440413849,0.546,-0.44295,7.8240004,-0.1340625,0.0416625,0.5630625
1692440413882,-1.167,0.018000001,11.06295,-0.07975,-0.378125,0.6241125
1692440413913,-0.37905002,0.32205,10.620001,-0.0759,-0.427625,0.69836247
1692440413944,0.22500001,0.95205003,8.01795,0.0385,0.0358875,0.5990875
1692440413973,1.008,1.1359501,6.2899504,0.132275,0.26235,0.420475
1692440413999,1.3930501,0.648,7.2570004,0.3427875,0.2547875,-0.171875
1692440414032,0.60795003,0.25095,10.93305,0.43835,0.096525,-0.46928748
1692440414064,0.051000003,0.53295004,11.793,0.47025,-0.25575,-0.6210875
1692440414090,0.21795002,0.85395,10.543051,0.3969625,-0.3102,-0.4731375
1692440414122,0.75705004,0.97605,9.082951,0.2371875,-0.1236125,-0.23567499
1692440414150,0.99600005,0.90900004,9.58605,0.2058375,-0.0265375,-0.2717
1692440414179,0.48405004,0.88995004,10.347,0.2212375,-0.032725,-0.4200625
1692440414208,0.37095,0.99000007,10.77795,0.2292125,-0.088,-0.42405
1692440414241,0.19695,1.1890501,10.036051,0.22275,-0.1167375,-0.4142875
1692440414276,0.642,0.93000007,9.607051,0.1819125,-0.0089375,-0.4701125
1692440414309,0.49095002,0.64995,9.98295,0.1810875,0.016775,-0.4640625
1692440414334,0.52005005,0.49005002,9.966001,0.177375,0.018975,-0.416625
1692440414367,0.54105,0.40905002,9.471001,0.1175625,-0.0020625,-0.13805
1692440414386,0.67995006,0.279,9.238951,0.0600875,-0.00495,-0.002475
1692440414426,0.67095006,0.33,8.86095,-0.0507375,-0.0097624995,0.1214125
1692440414456,0.201,0.36105,8.887051,-0.114125,-0.0356125,0.2726625
1692440414486,-0.11805001,0.37005,9.13095,-0.1280125,-0.0444125,0.319825
1692440414517,0.13395001,0.10005,9.49695,-0.1287,-0.0273625,0.3339875
1692440414547,0.11805001,0.0139500005,9.62895,-0.1128875,0.0933625,0.3641
1692440414581,0.38295,0.049950004,9.813001,-0.1395625,0.1775125,0.4395875
1692440414616,0.39495003,0.19800001,9.64605,-0.1659625,0.1782,0.45705
1692440414648,0.62700003,0.40605003,9.150001,-0.1859,0.126225,0.3683625
1692440414682,1.36995,0.38205,7.8820505,-0.1387375,0.0419375,0.1716
1692440414702,1.5439501,0.17400001,7.4359503,-0.098725,-0.013612499,0.047849998
1692440414736,0.42405003,0.303,7.62795,-0.0325875,-0.1975875,-0.1918125
1692440414767,0.46695003,0.42105,7.7160006,-0.0182875,-0.2794,-0.23375
1692440414801,0.73800004,0.44205,7.2570004,0.003025,-0.2594625,-0.2162875
1692440414829,0.80205005,0.42105,6.9700503,0.0202125,-0.1991,-0.226325
1692440414863,0.55095005,0.43500003,6.61005,0.0507375,-0.1452,-0.2748625
1692440414897,0.77805007,0.31305,5.82495,0.057475,-0.1480875,-0.32285
1692440414929,-0.16395001,0.38205,4.80105,0.0424875,-0.1527625,-0.5119125
1692440414962,0.16095,0.13800001,4.9729505,0.0171875,-0.116325,-0.5864375
1692440414991,0.51000005,0.009000001,6.498,0.0188375,-0.0543125,-0.49995
1692440415025,-0.058050003,0.40395,7.491,0.0078375,0.0886875,-0.0452375
1692440415051,0.04605,0.492,8.089951,-0.0165,0.122099996,0.2376
1692440415082,0.16095,0.71295005,8.49195,-0.014712499,0.2072125,0.52305
1692440415114,-0.042000003,1.15995,10.962001,0.02145,0.26125,0.518375
1692440415146,0.10605001,1.0309501,11.48595,0.1296625,0.30855,0.339625
1692440415179,-0.51795,1.34895,12.118051,0.22605,0.2938375,0.0826375
1692440415201,0.112950005,1.5120001,12.870001,0.234575,0.2701875,0.0292875
1692440415229,0.47205,1.917,12.694951,0.2341625,0.2550625,-0.00605
1692440415259,1.116,2.319,11.59395,0.26565,0.201575,-0.18493749
1692440415292,0.38595003,2.63205,12.19995,0.3031875,0.1093125,-0.3213375
1692440415318,0.064950004,2.4379501,13.629001,0.407,-0.1266375,-0.5413375
1692440415355,0.18900001,3.0010502,14.529,0.4417875,-0.179575,-0.5757125
1692440415383,0.41700003,3.4129503,14.557051,0.4186875,-0.1230625,-0.589325
1692440415415,0.47895002,3.0010502,14.895,0.3922875,-0.0856625,-0.641025
1692440415446,-0.17595,2.9290502,15.241951,0.382525,-0.0735625,-0.6879125
1692440415478,-0.666,2.9530501,15.175051,0.3251875,-0.0495,-0.4778125
1692440415509,-0.43395,2.5440001,14.7300005,0.2701875,-9.625E-4,-0.3865125
1692440415542,-0.058050003,2.0670002,15.739951,0.1698125,0.1233375,-0.3023625
1692440415572,-0.022950001,1.51005,15.1699505,0.113437496,0.1632125,-0.2072125
1692440415598,0.38595003,0.94695,15.345,0.0394625,0.182325,-0.032449998
1692440415639,0.25905,0.47595003,16.55595,-0.24475,0.157025,0.550825
1692440415667,1.4290501,0.62895006,15.321001,-0.3493875,0.122925,0.67553747
1692440415696,1.8769501,0.43995002,14.272951,-0.44165,0.0785125,0.749925
1692440415723,1.44105,0.22200002,14.469001,-0.510125,-0.0803,0.57722497
1692440415756,0.24195,-0.186,13.309951,-0.4681875,-0.2891625,0.2893
1692440415783,0.055050004,-0.57900006,12.4459505,-0.4464625,-0.3202375,0.3025
1692440415814,-0.36495003,-0.55305004,11.158051,-0.434225,-0.2721125,0.402875
1692440415847,-0.48195,0.42105,8.736,-0.432025,-0.0449625,0.6485875
1692440415880,1.6849501,0.55695003,6.42105,-0.38225,0.1480875,0.59125
1692440415912,2.325,0.052050002,6.4020004,-0.3029125,0.17545,0.3722125
1692440415938,0.31395,-0.17895001,6.0529504,-0.1282875,-0.0477125,-0.115775
1692440415970,-0.41805002,0.354,5.66295,-0.0994125,-0.239525,-0.21835
1692440416002,0.27105,0.77205,5.11905,-0.12705,-0.319,-0.2660625
1692440416033,0.56505,0.91395,4.61205,-0.1247125,-0.192775,-0.3883
1692440416062,0.42405003,0.32505003,3.9490502,4.125E-4,-0.0369875,-0.906125
1692440416096,-0.40095,-0.15,5.09805,0.147675,-0.1082125,-1.205875
1692440416128,-0.58695,-0.69600004,6.2920504,0.1467125,-0.117425,-1.1144375
1692440416155,-1.6290001,-0.186,6.72795,-0.0325875,0.088,-0.512875
1692440416184,-2.6239502,1.1719501,7.5870004,-0.1700875,0.275825,-0.0814
1692440416213,1.25205,-0.40395,6.144,-0.270325,0.494175,0.2979625
1692440416247,1.4080501,-0.87105006,7.22805,-0.203225,0.8529125,0.523875
1692440416278,-3.1890001,0.25305,11.611051,-0.2897125,0.2431,0.98408747
1692440416310,-0.87495005,0.39705002,11.166,-0.39833748,-0.083875,1.2549624
1692440416342,1.0849501,1.146,7.5150003,-0.271425,0.36574998,1.150875
1692440416375,1.04205,1.4809501,5.8110003,0.0625625,0.452925,0.6430875
1692440416409,0.63195,1.3300501,7.3549504,0.23333749,0.1403875,0.356675
1692440416438,0.16605,0.87105006,10.069051,0.537625,-0.379775,-0.1362625
1692440416470,-1.18605,0.74895006,11.39805,0.599225,-0.4643375,-0.230175
1692440416501,-0.99195004,1.0170001,10.198951,0.4598,-0.2976875,-0.0727375
1692440416532,-0.20700002,1.3060501,9.31995,0.3243625,-0.087175,0.081125
1692440416562,-0.109050006,1.4569501,9.162001,0.1643125,0.264825,0.1973125
1692440416597,-0.16905001,1.55295,9.922951,0.209825,0.21367499,-0.11055
1692440416627,-0.20205002,1.38495,9.8539505,0.2600125,0.1186625,-0.342375
1692440416659,-0.65895003,1.3249501,9.415951,0.3070375,-0.012375,-0.6507875
1692440416691,-0.777,1.1550001,9.595051,0.2883375,-0.0292875,-0.6494125
1692440416717,-0.72900003,1.0500001,10.07205,0.2019875,0.042625,-0.43614998
1692440416750,-0.37395,1.0170001,10.15095,0.15125,0.1027125,-0.3155625
1692440416781,0.201,1.21305,9.84405,0.0411125,0.1694,-0.0867625
1692440416811,0.16095,1.3609501,9.705001,-0.0059125,0.1518,0.0306625
1692440416839,0.23505001,1.455,9.47595,-0.0257125,0.0028875,0.14739999
1692440416876,0.43095002,1.47105,8.908051,0.001925,-0.086075,0.1236125
1692440416906,0.112950005,1.4140501,9.2029505,0.0732875,-0.2052875,0.0144375
1692440416935,0.453,1.2750001,9.80595,0.1274625,-0.256025,-0.0782375
1692440416968,0.28500003,1.2250501,9.54705,0.132825,-0.24887499,-0.0895125
1692440416993,0.26595002,1.21305,9.415951,0.115225,-0.2330625,-0.0666875
1692440417021,0.31605002,1.1200501,9.38895,0.047849998,-0.202675,0.0495
1692440417048,0.12195001,1.1890501,9.436951,0.0231,-0.1731125,0.135025
1692440417074,0.096,1.2220501,9.523951,0.007975,-0.13585,0.221925
1692440417098,0.003,1.23705,9.507001,-0.0077,-0.0738375,0.2635875
1692440417127,0.034050003,1.2610501,9.27705,-0.01155,-0.0471625,0.2244
1692440417165,0.003,1.0530001,9.31995,-0.0119624995,-0.004125,0.1203125
1692440417184,-0.078,0.92100006,9.391951,-0.0114124995,0.0044,0.0419375
1692440417211,-0.058050003,0.744,9.14805,-0.016224999,0.00825,-0.0339625
1692440417242,0.01695,0.69795,8.57295,-0.0605,0.0254375,-0.1043625
1692440417272,-0.11100001,0.70500004,8.24505,-0.096525,0.036575,-0.1056
1692440417298,-0.11595,0.61905,8.145,-0.1508375,0.0429,-0.0900625
1692440417324,-0.26895002,0.64305,7.9270506,-0.1584,0.043175,-0.0815375
1692440417350,-0.26700002,0.63105005,7.518,-0.157575,0.050325,-0.0532125
1692440417377,-0.29805002,0.63105005,7.326,-0.1529,0.0658625,-0.012925
1692440417406,-0.28605002,0.63795,7.3840504,-0.1335125,0.1027125,-0.022
1692440417434,0.10605001,0.564,7.3290005,-0.10505,0.118525,-0.1012
1692440417463,0.22800002,0.33705002,7.0920005,-0.0952875,0.1128875,-0.091575
1692440417499,-0.19500001,0.25305,6.9649506,-0.1007875,0.0504625,0.0086624995
1692440417531,-0.003,0.32205,6.9259505,-0.120175,0.01045,0.082775
1692440417558,0.14400001,0.31800002,6.4570503,-0.145475,-0.0077,0.1819125
1692440417585,0.036000002,0.32205,5.4619503,-0.1764125,0.0088,0.3661625
1692440417610,-0.36,0.43995002,5.8560004,-0.1727,0.0034375,0.400125
1692440417632,-0.33600003,0.42105,6.4480505,-0.136675,-0.014712499,0.4972
1692440417664,-0.12795001,0.61905,6.912,-0.109037496,0.0188375,0.564575
1692440417690,-0.006,0.86100006,6.9619503,-0.07975,0.0765875,0.6059625
1692440417720,0.27600002,0.72705,7.3759503,-0.01705,0.1364,0.6303
1692440417783,0.012,0.77205,10.79895,0.1172875,-0.027224999,0.3323375
1692440417819,-0.64500004,0.88995004,11.689951,0.10945,-0.12595,0.1370875
1692440417854,-0.26700002,1.419,10.93095,0.0631125,-0.0661375,0.208725
1692440417888,-0.72195005,2.0719502,12.898951,0.0026125,0.1368125,0.3532375
1692440417897,-0.59205,2.154,13.428,0.044,0.1665125,0.243375
1692440417917,-0.42195,2.25405,13.135951,0.1304875,0.154275,0.020075
1692440417938,-0.27600002,2.05995,12.835951,0.2275625,0.12979999,-0.2393875
1692440417961,-0.78900003,2.4120002,13.240951,0.3034625,0.098037496,-0.47245
1692440417985,-1.713,2.9509501,14.944951,0.3447125,0.059675,-0.6397875
1692440418019,-1.27005,3.6349502,15.802051,0.373725,0.0479875,-0.773025
1692440418044,-0.80805004,3.6859503,16.800001,0.398475,0.092675,-0.8053375
1692440418077,-1.59,3.4099503,18.91395,0.4365625,0.1313125,-0.8493375
1692440418105,-1.2030001,2.8530002,18.112051,0.4549875,0.1056,-0.82115
1692440418139,-1.0519501,2.8879502,17.95395,0.2957625,0.079475,-0.596475
1692440418168,-0.62100005,2.7280502,18.72195,0.198,0.072875,-0.50325
1692440418200,-0.16395001,1.9240501,16.45605,0.0573375,0.0160875,-0.3565375
1692440418230,-0.39405003,1.1149501,16.63305,0.0022,-0.022275,-0.2506625
1692440418261,-1.07805,0.73200005,14.881051,-0.121275,-0.0812625,0.07315
1692440418296,0.12705001,0.26295,12.991951,-0.28187498,-0.055825,0.395175
1692440418315,0.08205,0.09,13.55895,-0.35145,-0.0209,0.4591125
1692440418347,0.17505,-0.21000001,12.55605,-0.400675,-0.0028875,0.4580125
1692440418381,-0.38205,-0.52395004,10.390051,-0.4701125,-0.0499125,0.4862
1692440418414,-0.93900007,-0.624,9.327001,-0.498575,-0.07975,0.54614997
1692440418447,-1.215,-0.70305,8.83695,-0.5295125,-0.0625625,0.566775
1692440418474,-0.73095006,-0.29700002,7.86495,-0.536525,-0.004125,0.542575
1692440418501,0.94305,0.19605,6.93795,-0.534875,0.152075,0.529375
1692440418525,1.863,0.23400001,6.7969503,-0.4994,0.17765,0.4554
1692440418552,1.8769501,0.061950002,5.9350505,-0.4246,0.11715,0.2916375
1692440418582,0.54105,-0.117000006,5.3110504,-0.2211,-0.27115,-0.22825
1692440418610,-0.89595,0.12900001,5.6290503,-0.1489125,-0.49885,-0.47341248
1692440418640,-1.5190501,0.102000006,4.89195,-0.093775,-0.610775,-0.642125
1692440418674,-1.2030001,-0.13395001,4.2259502,-0.06435,-0.1276,-0.5401
1692440418709,-0.61095005,-0.507,4.4440503,-0.050875,0.1802625,-0.4862
1692440418732,-0.86295,-0.32505003,5.196,-0.0528,0.42515,-0.4016375
1692440418761,-1.3300501,-0.69600004,6.8500504,-0.14135,0.6260375,-0.0317625
1692440418787,-2.13105,-0.201,8.535001,-0.2228875,0.618475,0.25245
1692440418814,-1.1020501,0.064050004,7.69995,-0.3048375,0.59785,0.563475
1692440418841,1.79295,-0.49800003,6.2059503,-0.3529625,0.605825,0.832975
1692440418879,-0.88005006,0.14805001,9.19305,-0.2580875,0.48633748,1.1246125
1692440418914,-2.388,0.98100007,11.194051,-0.2569875,0.2072125,1.1356125
1692440418925,-0.76695,0.82800007,10.608001,-0.23127499,-0.219725,1.09175
1692440418953,1.45305,1.2780001,8.49195,-0.1252625,-0.23815,0.9994875
1692440418986,1.02495,1.9530001,4.8130503,0.23815,0.1607375,0.5119125
1692440419014,0.78795004,1.1580001,5.064,0.5990875,-0.254925,-0.47685
1692440419043,-0.087000005,0.61395,9.847051,0.75528747,-0.5303375,-0.881375
1692440419073,-1.5259501,0.48795003,13.368001,0.7852625,-0.6809,-0.9332125
1692440419101,-0.47295,0.80805004,11.689951,0.5841,-0.49981248,-0.51645
1692440419132,-0.039,1.23195,9.061951,0.1040875,0.0859375,0.383075
1692440419162,0.036000002,1.3249501,8.908051,0.00165,0.22055,0.49555
1692440419188,0.192,1.026,9.418051,0.0053625,0.20253749,0.37193748
1692440419220,-0.26700002,0.84705,10.488001,0.1282875,0.00385,-0.0917125
1692440419253,-0.61395,1.0879501,9.769951,0.1524875,-0.0688875,-0.2497
1692440419284,-0.27600002,1.1410501,9.592951,0.1104125,-0.074525,-0.36025
1692440419317,-0.40995002,1.3300501,9.688951,0.095425,0.020075,-0.385275
1692440419346,-0.16905001,1.26795,9.745951,0.1078,0.0309375,-0.42075
1692440419375,-0.049050003,1.1580001,9.934951,0.1436875,-0.0034375,-0.5363875
1692440419403,0.09105001,1.167,10.029,0.153725,-0.0270875,-0.5665
1692440419436,-0.010950001,0.96900004,9.739051,0.1271875,-0.0842875,-0.457325
1692440419466,-0.18300001,0.91800004,9.969001,0.0968,-0.111237496,-0.3463625
1692440419494,-0.11400001,0.86295,10.045051,0.02695,-0.1150875,-0.1065625
1692440419526,-0.015000001,0.84705,9.588,-0.007975,-0.0875875,0.013612499
1692440419558,-0.09,0.89895004,9.37005,-0.066,-0.033275,0.1978625
1692440419590,0.132,1.005,9.504001,-0.0801625,-0.02585,0.2149125
1692440419616,0.12195001,1.062,9.379951,-0.0639375,-0.0473,0.0209
1692440419656,0.036000002,1.0380001,9.262951,-0.016775,-0.0941875,-0.22275
1692440419680,-0.003,1.0020001,8.96595,0.002475,-0.11,-0.27225
1692440419707,-0.042000003,0.99300003,8.93505,0.0166375,-0.11165,-0.2847625
1692440419736,0.036000002,0.88500005,8.941951,0.02695,-0.102025,-0.2781625
1692440419763,0.063,0.81795,8.535001,0.032725,-0.0748,-0.2457125
1692440419793,0.028950002,0.555,8.50395,0.0248875,-0.0650375,-0.2220625
1692440419820,-0.17805001,0.44700003,8.134951,-0.0132,-0.0556875,-0.13475
1692440419858,-0.025050001,0.30105,7.9290004,-0.0807125,-0.0246125,0.0257125
1692440419885,-0.063,0.31305,7.2709503,-0.1186625,0.001375,0.0933625
1692440419914,-0.0010500001,0.37695003,6.6439505,-0.1522125,0.022824999,0.1397
1692440419944,-0.21900001,0.47295,6.129,-0.1901625,0.0380875,0.2006125
1692440419973,0.120000005,0.423,5.71005,-0.1843875,0.039325,0.1940125
1692440420004,-0.43905002,0.38895002,6.2509503,-0.123475,0.05335,0.10615
1692440420036,-0.54195005,0.32505003,6.6850505,-0.0900625,0.0611875,0.0902
1692440420064,-0.20505,0.303,6.7950006,-0.0666875,0.1043625,0.207625
1692440420096,-0.49395,0.50895,7.254,-0.089375,0.19525,0.448525
1692440420130,-0.37395,0.63405,6.78,-0.0966625,0.20405,0.572275
1692440420155,-0.043950003,0.777,6.5670004,-0.060775,0.1830125,0.608575
1692440420185,0.010050001,0.94995004,8.02005,-0.0158125,0.1667875,0.494725
1692440420220,-0.46095002,0.89205,8.3550005,0.038225,0.131175,0.3513125
1692440420252,-0.702,0.99300003,9.19095,0.1337875,0.03135,0.121
1692440420284,-0.52500004,0.90195006,11.017051,0.1769625,0.0484,-0.0066
1692440420312,-0.67095006,0.75795,12.195001,0.176,0.095425,-0.0364375
1692440420343,0.00795,1.28505,10.807051,0.091575,0.1266375,0.0215875
1692440420372,0.20895001,1.6200001,11.434051,0.0325875,0.1007875,0.0606375
1692440420403,0.33105,1.3470001,12.799951,0.029424999,-0.0306625,-0.050325
1692440420432,0.17295001,1.45905,12.83895,0.0803,-0.1211375,-0.1467125
1692440420462,-0.08205,1.4500501,12.717001,0.1373625,-0.2431,-0.1871375
1692440420496,-0.094050005,1.368,12.934051,0.1082125,-0.23045,-0.0900625
1692440420529,-0.27195,1.96695,14.161951,0.0900625,-0.187,-0.0361625
1692440420556,-0.68805003,2.8189502,14.93595,0.0726,-0.0983125,-0.0297
1692440420584,-0.45600003,2.93895,15.121951,0.0947375,-0.0655875,-0.120175
1692440420613,-0.55905,2.709,16.747952,0.14973749,-0.0391875,-0.274175
1692440420642,-0.97800004,2.35695,17.88495,0.2762375,-0.0037125,-0.5424375
1692440420673,-0.76500005,2.0389502,18.847052,0.2877875,0.0166375,-0.5336375
1692440420700,0.216,1.9380001,18.813002,0.182325,0.086075,-0.329175
1692440420732,0.63900006,1.524,17.58105,0.0947375,0.10505,-0.2102375
1692440420761,0.42405003,1.4070001,16.977001,-0.067375,0.0086624995,-0.028324999
1692440420791,-0.018000001,0.873,15.721051,-0.124025,-0.077825,0.0264
1692440420823,-0.69795,0.81600004,14.068951,-0.19415,-0.16775,0.097075
1692440420852,0.28500003,0.53505003,13.312951,-0.2182125,-0.14973749,0.128425
1692440420885,0.40005,0.25995,13.38405,-0.2481875,-0.039875,0.194975
1692440420919,-0.003,-0.00705,12.315001,-0.264825,-0.0154,0.2184875
1692440420950,-0.19995001,0.022950001,10.17,-0.2825625,-0.0408375,0.2435125
1692440420983,-0.49395,-0.031050002,8.205,-0.3147375,-0.0411125,0.32395
1692440421010,-0.36705002,0.076050006,6.70905,-0.3155625,-0.013475,0.3337125
1692440421046,0.94605005,-0.177,5.3629503,-0.278025,0.055,0.2809125
1692440421076,1.1880001,-0.38505003,5.7460504,-0.2220625,0.0460625,0.1992375
1692440421110,0.0,-0.165,6.9580503,-0.2135375,-0.0562375,0.121825
1692440421133,-0.39795002,0.045,6.8910003,-0.224675,-0.2011625,0.033275
1692440421165,-0.07305,-0.21795002,5.847,-0.2545125,-0.298925,-0.128425
1692440421193,-0.27405003,-0.42105,3.9580503,-0.2476375,-0.207075,-0.2127125
1692440421225,-0.73800004,-0.34005,3.2590501,-0.230175,-0.0042625,-0.2699125
1692440421258,-0.70005006,-0.84000003,3.01005,-0.27101249,0.1364,-0.0011
1692440421292,-1.5880501,-0.112050004,5.7730503,-0.342925,0.3232625,0.5000875
1692440421320,-2.28195,1.21305,7.2949505,-0.39325,0.4437125,0.806575
1692440421350,1.30005,-0.86895007,6.9889503,-0.404525,0.57475,1.0344125
1692440421384,-0.28395,-0.033,8.394,-0.15619999,0.6384125,0.859925
1692440421415,-2.2099502,0.85605,9.47595,-0.033825,0.4296875,0.64762497
1692440421447,-0.93705004,1.1530501,8.14995,0.0427625,0.0028875,0.43945
1692440421478,1.07295,1.3110001,6.5340004,0.328075,0.2135375,0.091575
1692440421503,1.0540501,1.3110001,5.682,0.498025,0.2385625,-0.19085
1692440421529,0.83595,1.28205,7.08405,0.629475,0.066825,-0.4978875
1692440421562,-0.29805002,1.00695,9.98805,0.75625,-0.4772625,-0.8641875
1692440421593,-0.72405005,0.73395,10.90005,0.73755,-0.62095,-0.8239
1692440421623,-0.40800002,0.66,9.946951,0.51315,-0.4543,-0.32395
1692440421655,-0.14505,0.89895004,9.59805,0.351175,-0.23375,0.001925
1692440421685,0.24000001,0.813,9.48795,0.106975,0.0389125,0.32395
1692440421718,0.23700002,0.81600004,9.516001,0.0364375,0.0114124995,0.1442375
1692440421750,-0.09195001,0.99705005,9.65505,0.0264,-0.048675,0.0229625
1692440421778,0.060000002,0.85395,9.792001,0.0133375,-0.1442375,-0.1302125
1692440421811,-0.11805001,0.72900003,10.43805,0.016775,-0.1441,-0.181775
1692440421841,0.11805001,0.717,10.42605,0.0072875,-0.0944625,-0.2294875
1692440421871,0.54795,0.71505004,9.47805,-0.0158125,-0.078375,-0.257675
1692440421902,0.70905006,0.48000002,9.088051,-0.0572,-0.09515,-0.3760625
1692440421934,0.29205,0.27495003,9.15705,-0.064625,-0.13365,-0.38279998
1692440421962,0.027,0.17595,8.56095,-0.0889625,-0.21615,-0.19373749
1692440421996,0.043050002,0.27195,8.248051,-0.1516625,-0.17985,-0.0270875
1692440422028,0.010050001,0.25500003,8.47305,-0.176,-0.119075,-0.0026125
1692440422059,-0.102000006,0.30600002,8.085,-0.18493749,-0.0133375,-0.0213125
1692440422094,0.024,0.22200002,8.467951,-0.1769625,0.01815,-0.0606375
1692440422123,-0.066,0.13605,8.32695,-0.1530375,0.056925,-0.07315
1692440422147,-0.027,0.12105001,8.358001,-0.1425875,0.06545,-0.0314875
1692440422174,-0.13305001,0.291,8.545051,-0.13653749,0.069025,0.0675125
1692440422198,-0.054,0.27195,8.08695,-0.134475,0.069025,0.1054625
1692440422241,0.16800001,0.23595001,7.5319505,-0.104225,0.06325,0.093225
1692440422269,-0.45795003,0.30795002,8.272051,-0.0801625,0.0523875,0.0438625
1692440422299,-0.25995,0.22200002,7.4479504,-0.039875,0.0364375,-0.068475
1692440422324,-0.030000001,0.30795002,6.7450504,-0.0257125,0.054725,-0.1161875
1692440422353,-0.08205,0.22395001,6.6060004,-0.0149875,0.0851125,-0.155375
1692440422389,-0.70995003,0.33195,7.4890504,0.001925,0.099825,-0.1507
1692440422414,-0.66195005,0.36105,7.4290504,0.01155,0.088825,-0.086075
1692440422446,-0.25005,0.27705002,7.2570004,0.027224999,0.14739999,0.0603625
1692440422482,0.08895,0.018000001,7.728,0.0286,0.2011625,0.0944625
1692440422517,-0.54195005,0.009000001,8.997001,-0.0213125,0.137775,0.2638625
1692440422539,-0.15705001,0.0019500001,9.18795,-0.06215,0.0812625,0.38445
1692440422575,0.11805001,0.20295002,10.32495,-0.1313125,0.0253,0.538725
1692440422603,-0.36705002,0.40605003,10.99995,-0.142725,-0.0116875,0.536525
1692440422629,-0.32700002,0.294,10.93095,-0.1337875,-0.064625,0.489225
1692440422659,0.015000001,0.564,11.149051,-0.0614625,-0.0867625,0.346225
1692440422694,0.20595,0.78405005,12.52305,-0.01595,-0.047849998,0.280225
1692440422735,0.22800002,1.1890501,12.834001,0.064625,-0.0419375,0.110825
1692440422763,-0.16605,1.3230001,13.726951,0.141075,-0.1276,-0.141075
1692440422787,-0.20895001,1.2730501,14.881051,0.1815,-0.1546875,-0.269775
1692440422810,-0.09900001,1.5499501,14.490001,0.2189,-0.1584,-0.380325
1692440422852,-0.22605,2.25405,15.358951,0.2580875,-0.0721875,-0.447975
1692440422880,-0.81495005,2.4190502,16.554,0.274725,-0.0493625,-0.435325
1692440422914,-0.078,1.6870501,16.812,0.304975,-0.03135,-0.45113748
1692440422944,-0.079950005,1.1839501,17.451,0.345675,0.0268125,-0.5256625
1692440422977,-0.58005005,0.61695004,19.591051,0.230175,0.048125,-0.4412375
1692440423006,0.43605003,0.20295002,18.198,0.110825,0.046475,-0.26785
1692440423038,1.0320001,0.069000006,17.643002,-0.1313125,0.0441375,0.08965
1692440423071,0.65400004,0.16905001,16.465052,-0.2184875,0.0066,0.1654125
1692440423106,0.78495,0.028050002,13.399051,-0.3113,-0.13805,0.14245
1692440423145,0.61305004,-0.66,12.34605,-0.308825,-0.2151875,8.25E-4
1692440423187,-0.50595003,-1.0860001,12.508051,-0.2825625,-0.22055,0.005225
1692440423228,-0.73095006,-1.1530501,10.41195,-0.3201,-0.143275,0.363
1692440423272,-0.57795,-0.62205005,8.583,-0.38995,0.0496375,0.63525
1692440423316,-0.75000006,-0.14595,7.9410005,-0.3804625,0.2195875,0.6127
1692440423369,0.90795004,-0.21300001,5.5600505,-0.26221249,0.2627625,0.3271125
1692440423413,0.59205,0.20805001,3.93705,-0.091575,0.055,-0.297275
1692440423454,-0.12795001,0.40605003,4.236,-0.027224999,-0.2308625,-0.64295
1692440423501,0.18,-0.53595,4.31505,0.090475,-0.2525875,-0.82568747
1692440423542,-0.82395005,-0.768,4.55205,0.0988625,-0.153725,-0.661925
1692440423584,-1.1719501,-0.49005002,5.406,-0.110275,-0.0253,-0.116325
1692440423625,-0.054,0.22005,6.87405,-0.28105,0.3056625,0.4637875
1692440423669,0.546,-0.98100007,7.8,-0.17875,0.7128,0.744975
1692440423710,-4.0680003,0.59505004,11.644051,-0.1703625,0.45045,0.9477875
1692440423751,0.81705004,0.141,9.093,-0.194425,0.171875,1.0228626
1692440423788,1.26405,0.72495,6.6319504,0.1601875,0.682275,0.7145875
1692440423823,1.0890001,0.92100006,6.22305,0.315975,0.58685,0.366575
1692440423861,-0.58995,0.83205,11.082001,0.5435375,-0.4800125,-0.49981248
1692440423896,-0.65505004,0.50895,11.637,0.595925,-0.5401,-0.6859875
1692440423932,0.23505001,0.37500003,9.708,0.5423,-0.36905,-0.6832375
1692440423973,0.16800001,0.44700003,9.424951,0.3185875,-0.050049998,-0.477125
1692440424019,0.055050004,0.30795002,9.8560505,0.1027125,-0.1079375,-0.1854875
1692440424060,0.20895001,0.25500003,9.48495,0.0757625,-0.128975,-0.2143625
1692440424114,0.13695,0.24300002,9.294001,-0.0011,-0.1203125,-0.21395
1692440424159,0.3,0.26295,9.588,-0.031625,-0.1260875,-0.11605
1692440424202,0.58695,0.30795002,9.05895,-0.0433125,-0.10725,-0.0451
1692440424244,0.264,0.51195,8.700001,-0.044,-0.118525,0.0867625
1692440424287,0.22995001,0.33900002,8.229,-0.0218625,-0.1480875,0.0708125
1692440424332,0.10605001,0.19995001,7.5460505,0.0097624995,-0.130075,-0.0963875
1692440424373,0.40005,-0.23895001,6.144,0.0070125,-0.08085,-0.1387375
1692440424419,-0.19695,-0.45000002,7.8600006,-0.084975,-0.0422125,0.0716375
1692440424461,-0.14895001,-0.522,7.3570504,-0.218625,-0.015262499,0.34553748
1692440424502,0.10605001,-0.25095,7.31895,-0.2987875,0.11165,0.565675
1692440424542,0.00795,0.17400001,6.97695,-0.30305,0.149325,0.679525
1692440424580,0.01905,0.51600003,7.0339503,-0.1882375,0.0864875,0.5707625
1692440424619,0.21300001,0.39405003,7.2180004,0.0100375,0.034649998,0.27513748
1692440424662,0.015000001,0.423,8.22105,0.185625,-0.002475,-0.1018875
1692440424710,0.18495001,0.44895002,8.832001,0.2451625,-0.028875,-0.34045
1692440424757,-0.36495003,0.49995002,9.909,0.2143625,0.0059125,-0.2479125
1692440424804,-0.279,0.59505004,10.443001,0.1799875,0.0636625,-0.0738375
1692440424852,0.57705003,0.65805006,10.254001,0.141075,0.1276,-0.0086624995
1692440424896,0.393,0.67905,11.527051,0.1029875,0.0045375,-0.1373625
1692440424932,0.90000004,0.058950003,11.875951,0.085525,-0.1238875,-0.216975
1692440424972,0.81705004,-0.32505003,12.408001,0.060775,-0.16335,-0.18865
1692440425010,0.50100005,-0.32295,13.600051,-0.064075,-0.2322375,0.0077
1692440425050,1.5490501,-0.16995001,13.035001,-0.212025,-0.2338875,0.2102375
1692440425091,0.43800002,0.16905001,13.45905,-0.2635875,-0.1940125,0.1799875
1692440425125,0.051000003,-0.15,15.265951,-0.2160125,-0.2503875,0.0023375
1692440425159,0.11505,-0.60795003,18.25605,-0.1362625,-0.1588125,-0.0620125
1692440425196,0.060000002,-0.70095,17.061,-0.12265,0.06655,-0.023375
1692440425236,0.58395004,-1.4569501,18.279001,-0.1648625,0.1865875,0.0460625
1692440425282,0.29505002,-1.2079501,18.03795,-0.22247499,0.15853749,0.1351625
1692440425325,1.5870001,-1.0390501,15.358951,-0.275825,0.1144,0.0468875
1692440425369,0.70395005,-1.644,13.341001,-0.25685,0.0501875,-0.2721125
1692440425405,0.81705004,-1.848,14.59605,-0.225775,-0.1101375,-0.275825
1692440425451,-0.53205,-2.046,11.467051,-0.2718375,-0.19525,0.119625
1692440425494,0.08895,-2.12505,10.258051,-0.3749625,0.001925,0.481525
1692440425532,0.38805002,-1.7830501,11.356951,-0.3823875,0.0741125,0.5251125
1692440425574,-0.303,-0.61005,9.13605,-0.3689125,0.115775,0.458425
1692440425617,-0.36705002,-0.22695,5.8830004,-0.284075,0.1181125,0.1678875
1692440425659,-0.08205,-0.20295002,5.30595,-0.0026125,0.20735,-0.2828375
1692440425701,-0.10395,-0.31605002,4.9999504,0.101475,0.2080375,-0.3832125
1692440425743,0.18,-0.53295004,5.3899503,0.1208625,0.1376375,-0.5149375
1692440425787,-0.54,-1.4449501,5.445,0.09185,0.103125,-0.4412375
1692440425830,-1.5810001,-1.572,4.81005,-0.0611875,-0.0127875,0.0385
1692440425873,-0.264,-1.05795,6.9289503,-0.31845,0.051425,0.77082497
1692440425910,4.335,-1.845,4.93695,-0.4895,0.3691875,1.5727249
1692440425942,-1.5190501,-0.99495006,5.05695,-0.4739625,0.140525,1.612875
1692440425988,-6.6480002,0.34395,11.38605,-0.54175,-0.5346,1.30405
1692440426025,1.6849501,-0.57195,10.024051,-0.2066625,0.056375,1.4669875
1692440426069,0.9580501,0.78195006,6.74205,0.4904625,0.878075,0.9125875
1692440426105,0.16995001,1.6390501,6.6780005,0.7486875,0.1364,-0.517
1692440426141,-0.693,1.1869501,10.82295,0.9504,-0.43945,-1.176175
1692440426177,-0.38895002,0.49995002,11.886001,1.1626999,-0.36519998,-1.349425
1692440426215,-0.39795002,0.37995002,9.942,1.1408376,-0.231,-1.323575
1692440426251,-0.69000006,0.693,8.580001,0.8173,-0.054175,-1.0437624
1692440426264,-0.61095005,0.72900003,8.829,0.6268625,-0.0221375,-0.88715
1692440426288,-0.41295,0.72195005,9.436951,0.484,0.0067375,-0.75515
1692440426308,-0.22605,0.73395,9.871051,0.39545,0.0389125,-0.6439125
1692440426331,-0.351,0.80100006,9.495001,0.3422375,0.0611875,-0.5498625
1692440426358,-0.68100005,0.77205,9.222,0.274725,0.048125,-0.425975
1692440426391,-0.58695,0.61005,9.46605,0.2514875,0.0367125,-0.3685
1692440426422,-0.16605,0.43995002,9.559051,0.2068,0.054175,-0.21175
1692440426455,0.19905001,0.49995002,9.80805,0.1197625,0.0540375,-0.058025
1692440426481,0.075,0.69795,9.435,0.0661375,0.009625,0.0210375
1692440426518,-0.11100001,0.83505005,8.51295,0.0077,-0.1241625,0.029975
1692440426544,0.079050004,0.64995,8.24295,0.0215875,-0.164725,-0.1029875
1692440426568,-0.14505,0.591,8.773951,0.051425,-0.1753125,-0.2387
1692440426596,-0.14895001,0.40395,9.14295,0.0771375,-0.1683,-0.284625
1692440426624,-0.039,0.231,8.31495,0.0716375,-0.13805,-0.175175
1692440426657,-0.564,0.46605003,8.563951,-0.005225,-0.088,-0.08415
1692440426680,-0.68805003,0.61200005,8.50905,-0.005225,-0.088,-0.08415
1692440426709,-0.135,0.38505003,7.3170004,-0.0726,-0.021175,0.0180125
1692440426742,0.055050004,0.282,7.8499503,-0.0484,0.06325,-0.033275
1692440426771,-0.16395001,0.28905,8.7619505,-0.028875,0.065175,-0.103125
1692440426805,-0.16395001,0.28905,8.7619505,-0.028875,0.065175,-0.103125
1692440426831,0.35895002,-0.10695001,7.24695,-0.0697125,-0.0554125,-0.034925
1692440426866,-0.25995,0.15,6.9910502,-0.1340625,-0.11385,0.251075
1692440426890,-0.41295,0.25800002,6.87405,-0.1634875,-0.1464375,0.3388
1692440426918,-0.034950003,0.32505003,6.6510005,-0.17105,-0.12485,0.3843125
1692440426949,-0.32700002,0.51600003,6.5389504,-0.1401125,-0.062975,0.36987498
1692440426974,-0.82905006,0.79200006,6.9889503,-0.093775,-0.0083875,0.32999998
1692440427006,-0.08505,0.78195006,7.5079503,0.0207625,0.0463375,0.19855
1692440427034,0.57195,0.423,7.5540004,0.08965,0.089925,0.1122
1692440427064,-0.40995002,0.423,7.79505,0.1934625,0.1373625,-0.0094875
1692440427092,-1.368,0.61395,8.07495,0.1868625,0.092675,0.0169125
1692440427125,0.087000005,0.42795002,9.49995,0.0977625,0.0919875,0.1442375
1692440427155,-0.72900003,0.92100006,9.8869505,0.0275,0.2437875,0.2512125
1692440427181,-0.46305,1.0170001,9.354,0.0089375,0.230175,0.26785
1692440427208,-0.216,1.4790001,10.500001,0.015125,0.1749,0.2338875
1692440427236,-1.014,1.5310501,11.644051,0.1266375,0.0881375,0.0429
1692440427264,-0.93195003,1.503,11.781,0.207625,0.053625,-0.080575
1692440427292,-0.25995,1.7590501,13.317,0.3092375,0.0554125,-0.28875
1692440427319,0.14205001,1.7200501,13.282051,0.31405,0.069575,-0.361625
1692440427350,0.34695002,1.96695,12.811951,0.2985125,0.0460625,-0.3837625
1692440427381,-0.34605002,2.52195,15.036,0.263175,-0.113575,-0.271975
1692440427412,-0.83895004,2.66805,16.60395,0.2618,-0.19195,-0.2432375
1692440427441,-0.43905002,2.14395,16.62795,0.2794,-0.2308625,-0.3751
1692440427468,-0.49905002,1.99995,17.29305,0.27513748,-0.1912625,-0.45581248
1692440427498,-0.147,2.1660001,17.47995,0.187,-0.0963875,-0.458975
1692440427527,-0.13695,2.33295,16.171051,0.115637496,-0.073425,-0.3785375
1692440427556,-0.693,2.091,14.916,0.02255,-0.0801625,-0.2255
1692440427586,-0.85800004,1.536,16.017,0.020624999,-0.093225,-0.214225
1692440427615,0.31905,0.78405005,16.66395,0.0215875,-0.04455,-0.129525
1692440427644,0.57495004,0.84900004,16.63305,-0.022,0.00935,-0.0067375
1692440427675,-0.65505004,0.92595005,15.085951,-0.0977625,0.0400125,0.1293875
1692440427702,-0.549,0.61695004,13.82505,-0.2523125,0.006325,0.2899875
1692440427731,-0.753,0.19800001,14.33205,-0.2858625,-0.0045375,0.28655
1692440427767,-0.69795,0.08805001,13.272,-0.2904,0.0451,0.2767875
1692440427798,-0.35295,0.078,12.678,-0.3234,0.112475,0.42075
1692440427829,-0.05595,0.13095,11.754001,-0.339075,0.1265,0.46695
1692440427861,-0.72195005,0.32700002,9.106951,-0.330825,0.0859375,0.4481125
1692440427886,-1.0489501,0.52395004,7.46295,-0.3097875,0.0499125,0.4147
1692440427918,-0.55905,0.49995002,5.5810504,-0.2272875,0.053625,0.3251875
1692440427947,0.60795003,0.061950002,6.0810003,-0.165825,0.10175,0.263175
1692440427980,0.93600005,-0.201,6.4450502,-0.1029875,0.1398375,0.1694
1692440428011,0.38295,-0.16995001,5.8279505,-0.0468875,0.03025,-0.091575
1692440428039,-0.65895003,0.483,5.3179502,-0.111925,-0.2299,-0.3397625
1692440428067,-0.62295,0.44895002,5.04495,-0.1346125,-0.2800875,-0.45374998
1692440428104,0.37395,-0.22005,4.09005,-0.054725,-0.1329625,-0.68145
1692440428136,-0.16605,-0.46905002,4.6639504,0.0070125,-0.0363,-0.766975
1692440428160,-0.60195005,-0.342,5.19105,-0.0103124995,-0.0259875,-0.667425
1692440428187,-1.34595,-0.15495001,4.95195,-0.0941875,-0.043449998,-0.443025
1692440428221,-0.52995,0.030000001,4.77495,-0.2657875,0.1192125,0.22825
1692440428248,0.61605,-0.66,4.74795,-0.2915,0.264,0.539275
1692440428277,0.072000004,-0.624,5.8180504,-0.2627625,0.3650625,0.927575
1692440428309,-1.00605,-0.093,7.5220504,-0.2946625,0.238425,1.0877625
1692440428336,0.75705004,-0.16695,7.1850004,-0.39627498,-0.052525,1.3451625
1692440428367,0.96000004,0.042000003,6.06195,-0.366025,-0.08635,1.3443375
1692440428397,-0.79605,1.2940501,6.34005,-0.1896125,-0.22825,1.007875
1692440428423,2.45895,-0.615,6.25395,-0.0746625,-0.3425125,0.7244875
1692440428457,1.5319501,-0.62895006,7.1779504,0.2486,-0.344575,0.161975
1692440428482,-2.9190001,0.20505,9.363001,0.2567125,-0.45319998,0.0803
1692440428512,-1.6530001,0.42105,9.84405,0.1013375,-0.65174997,0.1771
1692440428539,1.18005,0.60705,9.4800005,-0.073699996,-0.3031875,0.4835875
1692440428568,1.5870001,1.08105,9.916051,0.022824999,0.1461625,0.47355
1692440428594,0.28500003,1.19595,8.205,0.1342,0.334125,0.21505
1692440428619,0.30195,1.2220501,6.35895,0.3172125,-0.0495,-0.751575
1692440428648,1.113,0.92805004,5.8039503,0.3975125,-0.228525,-1.0863875
1692440428677,0.26595002,0.40905002,6.912,0.4972,-0.2968625,-1.2188
1692440428703,-0.87195003,0.32505003,7.7070003,0.4857875,-0.314325,-1.0808874
1692440428732,-1.11405,0.41295,9.48495,0.4236375,-0.309375,-0.836825
1692440428761,-0.549,0.31005,10.39995,0.21367499,0.004675,-0.1945625
1692440428788,-0.52995,0.279,8.928,0.109175,0.2580875,0.0814
1692440428817,-0.669,0.55005,8.274,-0.0559625,0.498575,0.2960375
1692440428844,-0.3,0.55200005,9.295951,-0.098175,0.46805,0.237325
1692440428877,-0.23595001,0.46095002,10.9810505,-0.089375,0.346225,0.0793375
1692440428903,-0.52305,0.53805,10.653001,-0.0704,0.2701875,0.0540375
1692440428929,-0.726,0.59805006,10.054951,-0.061325,0.186175,0.045649998
1692440428957,-0.17295001,0.74595004,10.849951,-0.058575,0.123475,0.0352
1692440428983,-0.30705002,0.78900003,11.494051,-0.0309375,0.1137125,-0.0011
1692440429014,-0.41295,0.708,11.379001,-0.005225,0.106425,-0.027224999
1692440429042,0.28500003,0.28395,11.106001,0.0303875,0.0345125,-0.0424875
1692440429072,0.55095005,0.13305001,11.326051,0.0308,0.0114124995,-0.0061875
1692440429100,-0.30495003,0.588,11.89095,-0.0207625,-0.0697125,0.0933625
1692440429126,-0.49395,0.744,11.472,-0.0622875,-0.1348875,0.124575
1692440429151,-0.01305,0.79200006,11.08695,-0.087037496,-0.1695375,0.1331
1692440429180,0.0,0.80805004,11.07495,-0.0499125,-0.0922625,0.0741125
1692440429209,-0.25995,0.70095,10.81095,-0.0100375,-0.047849998,0.0067375
1692440429236,0.23700002,0.64095,11.224951,0.05115,-0.0485375,-0.1343375
1692440429264,0.40500003,0.78405005,12.04905,0.0616,-0.061875,-0.1612875
1692440429293,0.14400001,0.93000007,11.995951,0.0559625,-0.0774125,-0.1419
1692440429322,0.11805001,1.041,11.30895,0.0378125,-0.125125,-0.0482625
1692440429349,-0.19995001,1.3920001,13.078051,0.047849998,-0.1357125,-0.0231
1692440429379,-0.80100006,1.7179501,14.119051,0.105875,-0.105325,-0.1071125
1692440429411,-0.81495005,2.3040001,13.83705,0.1431375,-0.0639375,-0.214225
1692440429435,-0.91800004,2.805,14.896951,0.18287499,0.0,-0.30745
1692440429463,-0.81000006,2.52195,15.031051,0.28861248,0.1343375,-0.41799998
1692440429489,0.18,2.2729502,13.18305,0.3565375,0.16445,-0.510675
1692440429515,0.513,1.5649501,13.863001,0.4288625,0.1288375,-0.69629997
1692440429543,-0.46500003,0.52095,16.768951,0.4052125,0.05995,-0.7264125
1692440429571,-1.22895,-0.0019500001,17.42295,0.3315125,-0.022275,-0.6785625
1692440429601,-0.42705002,-0.15495001,16.575,0.0034375,-0.0430375,-0.1848
1692440429629,0.45000002,-0.18900001,15.721051,-0.199375,0.0312125,0.1692625
1692440429657,0.63495004,0.28395,15.393001,-0.4538875,0.0875875,0.4852375
1692440429688,1.06305,0.531,14.550001,-0.487025,0.0251625,0.40865
1692440429715,1.1230501,0.37995002,13.107,-0.468875,-0.066825,0.2486
1692440429741,0.41400003,0.10005,12.030001,-0.3394875,-0.243375,-0.1271875
1692440429770,-0.20700002,-0.036000002,11.544001,-0.2723875,-0.3012625,-0.2618
1692440429799,-0.84405005,-0.45705003,11.082001,-0.201025,-0.28105,-0.2715625
1692440429834,-0.84405005,-0.45705003,11.082001,-0.201025,-0.28105,-0.2715625
1692440429846,-0.38595003,-0.84705,9.85095,-0.2176625,-0.0647625,0.021175
1692440429881,-0.231,0.066,8.229,-0.3018125,0.1302125,0.358875
1692440429910,0.42405003,0.57900006,6.8929505,-0.3348125,0.166375,0.4401375
1692440429942,1.1850001,0.47595003,5.4420004,-0.2690875,0.1419,0.2706
1692440429970,0.88605005,0.351,4.74795,-0.16555,0.0818125,0.05115
1692440430000,0.0,0.24795002,4.8889503,0.0452375,-0.14795,-0.353925
1692440430032,-0.15195,-0.13905,4.566,0.1029875,-0.2517625,-0.496925
1692440430059,0.120000005,-0.57705003,3.8700001,0.1131625,-0.2369125,-0.60885
1692440430091,0.13395001,-0.55305004,4.12095,0.0716375,-0.14795,-0.4717625
1692440430118,-0.051000003,-0.76095,4.78905,-0.003025,-0.0704,-0.1959375
1692440430151,-1.33395,-0.46605003,4.5760503,-0.2124375,-0.0232375,0.4851
1692440430177,-1.3579501,-0.18405001,4.99695,-0.38747498,0.0878625,1.090925
1692440430206,-0.666,-0.072000004,5.9430003,-0.41195,0.27115,1.3319625
1692440430238,0.74205005,-0.273,6.1459503,-0.375925,0.4954125,1.4898125
1692440430267,0.40995002,0.21000001,5.73705,-0.2151875,0.56374997,1.441825
1692440430295,-1.5520501,0.65295005,8.85105,-0.05555,0.015675,1.0544875
1692440430319,-2.3130002,1.2940501,9.825001,0.0515625,-0.15455,0.8789
1692440430350,-0.62805,2.01195,9.094951,0.1898875,-0.1007875,0.770275
1692440430378,1.8100501,2.2780502,7.8289504,0.566225,0.386375,0.5303375
1692440430408,1.7719501,2.42895,8.64,0.7882875,0.4145625,0.117425
1692440430433,0.44295,2.436,8.578051,0.9948125,0.139975,-0.5236
1692440430464,-0.03195,1.9290001,9.21195,1.18635,-0.7302625,-1.5214375
1692440430494,0.15405001,1.8540001,10.974001,1.049125,-0.83105,-1.403875
1692440430521,0.08895,2.19405,11.190001,1.049125,-0.83105,-1.403875
1692440430553,0.321,2.367,9.259951,0.710325,-0.4214375,-0.870925
1692440430580,0.30900002,2.2759502,9.47295,0.44165,-0.1973125,-0.5572875
1692440430610,-0.36,1.8690001,10.40205,0.3898125,-0.187825,-0.6045875
1692440430640,-0.07005,1.761,10.62705,0.30827498,-0.2024,-0.7436
1692440430668,-0.15705001,1.7320501,10.06005,0.2283875,-0.1395625,-0.6587625
1692440430696,-0.36195,1.6290001,9.0379505,0.0397375,0.033,-0.3730375
1692440430726,0.26595002,1.7920501,9.366,-0.0240625,0.083325,-0.2811875
1692440430754,0.666,1.81605,9.769951,-0.0561,0.1115125,-0.2299
1692440430781,0.52500004,1.677,10.43295,-0.0506,0.058849998,-0.281325
1692440430814,0.18705001,1.5310501,9.792001,-0.0416625,-0.0350625,-0.352
1692440430842,0.67095006,1.5139501,9.550051,-0.071225,-0.1901625,-0.39655
1692440430869,0.36195,1.33305,9.828,-0.09735,-0.2088625,-0.383075
1692440430899,-0.37695003,1.24395,9.79395,-0.1293875,-0.1948375,-0.2954875
1692440430929,-0.010950001,1.09095,9.700951,-0.143275,-0.161425,-0.1750375
1692440430955,0.043050002,0.91605,9.265051,-0.1777875,-0.0290125,0.0556875
1692440430986,-0.252,0.83205,9.045,-0.19745,0.026675,0.091437496
1692440431010,-0.03705,0.78900003,8.809951,-0.2189,0.060775,0.1109625
1692440431043,0.312,0.777,8.34795,-0.2512125,0.126225,0.2066625
1692440431071,0.28995,0.75105006,7.5100503,-0.2556125,0.143825,0.2300375
1692440431099,0.08400001,0.67695004,7.1509504,-0.236775,0.0650375,0.109175
1692440431130,-0.25005,0.62895006,6.6220503,-0.2156,0.0011,-0.0050875
1692440431157,-0.094050005,0.63405,6.3739505,-0.174625,-0.0378125,-0.1582625
1692440431186,-0.216,0.61695004,6.0550504,-0.15895,-0.003025,-0.1637625
1692440431217,-0.56805,0.528,4.662,-0.143275,0.0402875,-0.1612875
1692440431246,-0.79800004,0.49500003,5.517,-0.106837496,0.1035375,-0.2154625
1692440431274,-0.15705001,0.20805001,7.0009503,-0.06875,0.21505,-0.2583625
1692440431305,-0.05595,0.054,7.39095,-0.0672375,0.27719998,-0.2338875
1692440431333,-0.03705,0.102000006,7.45305,-0.1005125,0.29645,-0.141625
1692440431361,-0.37905002,-0.08595,6.6460505,-0.25575,0.18535,0.2242625
1692440431391,-0.48000002,0.162,6.81195,-0.32793748,0.113437496,0.419375
1692440431419,0.051000003,0.26505002,7.9750504,-0.3903625,0.0782375,0.7992875
1692440431449,0.087000005,0.47100002,9.339001,-0.3812875,0.10945,0.9695125
1692440431477,-0.53205,0.57900006,10.087951,-0.3064875,0.0752125,1.062875
1692440431508,-0.03195,0.55695003,10.375951,-0.2476375,0.0125124995,0.962225
1692440431538,-0.24495001,1.0639501,11.079,-0.118525,0.01045,0.73425
1692440431568,-0.84105,1.5000001,10.390051,-0.0650375,0.0369875,0.6688
1692440431594,-0.48900002,1.3920001,10.143001,-9.625E-4,0.0430375,0.55935
1692440431624,-0.22095,1.1149501,12.27105,0.19085,0.06875,0.14685
1692440431655,-0.15900001,1.692,13.2619505,0.2905375,0.0840125,-0.0474375
1692440431684,0.63195,1.9050001,13.368001,0.2728,0.0504625,-0.0353375
1692440431713,0.795,2.53395,14.578951,0.249425,-0.00495,-0.0539
1692440431741,-0.025050001,2.6560502,16.09395,0.2836625,-0.1901625,-0.329725
1692440431766,0.0049500004,2.70195,15.0379505,0.328625,-0.286275,-0.514525
1692440431795,-0.19005,2.57205,14.023951,0.3614875,-0.3331625,-0.6485875
1692440431824,-1.06095,2.4100502,15.625051,0.3584625,-0.2707375,-0.72325
1692440431856,-1.0350001,2.2369502,16.081951,0.2971375,-0.1164625,-0.6241125
1692440431879,-0.39795002,2.23005,14.799001,0.242825,-0.0070125,-0.5064125
1692440431912,-0.09705,1.491,15.28005,0.180675,0.093775,-0.38747498
1692440431941,-0.54195005,0.73395,17.590052,0.0790625,0.120037496,-0.3157
1692440431971,0.38805002,0.33405003,18.01095,0.015125,0.06875,-0.278025
1692440432001,1.3050001,-0.036000002,16.554,-0.219175,0.013062499,-0.005775
1692440432033,0.60405004,0.006,15.225,-0.3441625,-0.02475,0.108899996
1692440432061,0.18195,0.109050006,13.755001,-0.4838625,-0.188925,0.1816375
1692440432088,1.0009501,-0.54495,13.078051,-0.4940375,-0.242275,0.154825
1692440432115,1.0890001,-0.78000003,14.115001,-0.478225,-0.2462625,0.1034
1692440432140,-0.17805001,-0.72705,14.377951,-0.4525125,-0.2187625,0.1342
1692440432176,-0.52995,-0.71295005,12.796051,-0.4602125,-0.219175,0.233475
1692440432203,-0.09195001,-0.73695004,11.022,-0.462,-0.114125,0.35694999
1692440432237,-0.44895002,-0.39705002,10.321051,-0.42075,0.068475,0.3287625
1692440432263,-0.26700002,-0.39705002,9.849001,-0.390225,0.1087625,0.3342625
1692440432291,0.072000004,-0.37095,8.23305,-0.351175,0.1232,0.3620375
1692440432319,0.67095006,0.23595001,6.354,-0.2580875,0.12485,0.377025
1692440432355,1.05795,0.231,4.248,-0.1670625,0.046475,0.2011625
1692440432382,0.762,0.21705002,3.8050501,-0.1670625,0.046475,0.2011625
1692440432410,-0.18495001,0.14805001,3.9750001,-0.040975,-0.1310375,-0.15853749
1692440432438,-0.22395001,0.45600003,3.7189503,0.0562375,-0.240625,-0.439725
1692440432469,0.079050004,0.37695003,3.79605,0.0864875,-0.2017125,-0.51713747
1692440432499,-0.22095,-0.079050004,4.9090505,0.1428625,-0.0345125,-0.6040375
1692440432528,-1.026,-0.39705002,7.08405,0.161975,0.002475,-0.6433625
1692440432558,-1.72905,-0.75600004,6.7900505,0.1065625,0.1148125,-0.56787497
1692440432587,-1.69605,-0.072000004,5.67705,0.012925,0.2919125,-0.3634125
1692440432616,-0.97005004,0.65805006,5.9760003,-0.207625,0.730125,0.2784375
1692440432650,1.4080501,-1.02705,5.18895,-0.2358125,0.86075,0.5297875
1692440432677,-0.051000003,-0.9480001,6.14895,-0.16293749,0.8680375,0.6128375
1692440432706,-2.93595,0.40095,9.79605,-0.06875,0.480425,0.73865
1692440432736,-1.2720001,0.46605003,9.8869505,-0.336325,0.14739999,1.3261875
1692440432764,0.97905004,0.22395001,9.033,-0.305525,0.2058375,1.3528625
1692440432794,0.61095005,1.04805,7.7140503,-0.1370875,0.282425,1.1174625
1692440432822,0.19395001,1.4119501,7.4869504,0.0400125,0.212025,0.76615
1692440432851,0.19395001,1.4119501,7.4869504,0.0400125,0.212025,0.76615
1692440432878,0.06705,0.74595004,10.8810005,0.49885,-0.5797,-0.367675
1692440432905,-0.50100005,0.77205,13.258051,0.5449125,-0.61105,-0.4668125
1692440432935,0.70395005,0.64095,11.47395,0.4082375,-0.469425,-0.2451625
1692440432963,1.3600501,0.588,9.883051,0.2946625,-0.34045,-0.0658625
1692440432994,0.81405,0.95205003,9.378,0.1995125,-0.27225,0.0042625
1692440433026,0.75000006,0.93495005,9.318001,0.1065625,-0.394075,-0.2563
1692440433049,0.61305004,0.72495,10.512,0.1049125,-0.4613125,-0.3961375
1692440433082,0.21105,0.80595005,10.593,0.134475,-0.4252875,-0.3818375
1692440433109,0.13905,0.86595005,10.041,0.132275,-0.3568125,-0.2858625
1692440433139,0.68700004,0.67695004,9.43995,0.0903375,-0.1764125,-0.137225
1692440433168,0.63000005,0.64995,9.67695,0.0683375,-0.1010625,-0.1571625
1692440433197,0.12195001,0.76500005,10.617001,0.0213125,-0.073699996,-0.3746875
1692440433226,0.31905,0.72,10.950001,-0.0017875,-0.088,-0.451825
1692440433254,0.58005005,0.80100006,10.122001,-0.0176,-0.078375,-0.4522375
1692440433285,0.402,0.72705,9.82995,-0.0292875,-0.0160875,-0.3320625
1692440433314,0.14895001,0.60195005,10.14795,-0.0279125,-0.013612499,-0.2734875
1692440433343,0.20895001,0.46395,10.345051,-0.018975,-0.0411125,-0.2189
1692440433376,0.15795001,0.49695003,9.9210005,-0.0435875,0.00495,-0.181225
1692440433402,0.273,0.504,9.768001,-0.0683375,0.0397375,-0.133375
1692440433432,0.33795002,0.56700003,9.79605,-0.0875875,0.062425,-0.08855
1692440433461,0.16800001,0.67005,10.000051,-0.0935,0.0694375,-0.07315
1692440433490,0.24900001,0.74100006,9.6,-0.0719125,0.05115,-0.119075
1692440433519,0.47700003,0.86100006,9.081,-0.0528,0.04235,-0.142725
1692440433545,0.18,0.83895004,8.68305,-0.0067375,0.0375375,-0.1720125
1692440433576,0.26805001,0.70305,9.27705,0.021724999,0.0297,-0.1876875
1692440433601,0.36900002,0.76005006,9.47595,0.0735625,0.00825,-0.1975875
1692440433632,0.23505001,0.64305,9.387,0.08305,9.625E-4,-0.168025
1692440433658,0.18495001,0.57600003,9.588,0.0702625,-0.0138875,-0.060775
1692440433686,0.35205,0.47595003,9.294001,0.0529375,-0.01595,-0.020624999
1692440433713,0.27105,0.54300004,9.20505,0.02695,-0.0114124995,-0.0034375
1692440433740,0.11805001,0.55200005,8.877001,-0.033,-8.25E-4,0.0020625
1692440433767,0.18900001,0.507,8.3890505,-0.0493625,0.0017875,0.0116875
1692440433794,0.177,0.43695003,8.08695,-0.052525,0.0092124995,0.0328625
1692440433825,0.28800002,0.282,8.08695,-0.0413875,0.0325875,0.0606375
1692440433858,0.08400001,0.19995001,8.21895,-0.0416625,0.034649998,0.029975
1692440433892,-0.11805001,0.078,7.518,-0.0704,0.0196625,-0.0611875
1692440433911,-0.28605002,0.13605,7.3020005,-0.09405,0.020624999,-0.07425
1692440433946,-0.25695002,0.24795002,6.6610503,-0.1331,0.070125,-0.060775
1692440433975,0.058050003,0.22200002,6.6559505,-0.1395625,0.1167375,-0.0589875
1692440434003,-0.20700002,0.12900001,6.543,-0.12045,0.188925,-0.0859375
1692440434030,-0.45795003,0.17595,6.0930004,-0.103675,0.1821875,-0.09295
1692440434057,-0.33405003,0.14505,6.0979505,-0.082775,0.145475,-0.0279125
1692440434087,-0.26700002,0.162,6.6250505,-0.0779625,0.1573,0.02585
1692440434117,-0.67395,0.21000001,6.9030004,-0.0675125,0.198275,0.087725
1692440434157,-0.70500004,0.08505,6.6319504,-0.062975,0.206525,0.1106875
1692440434186,-0.049050003,0.126,7.8030005,-0.0636625,0.256025,0.22715
1692440434214,0.57495004,0.052050002,7.97205,-0.0699875,0.2897125,0.3048375
1692440434244,-0.564,0.27705002,7.3639503,-0.0862125,0.2088625,0.406725
1692440434270,-1.143,0.72900003,8.3550005,-0.08855,0.09295,0.419925
1692440434300,0.18195,0.45600003,10.953,-0.0369875,0.014025,0.3906375
1692440434330,0.52005005,0.27,13.2310505,0.0196625,0.083325,0.35915
1692440434359,0.072000004,0.86805004,11.48595,0.0826375,0.068475,0.3213375
1692440434388,0.41400003,1.23705,11.27595,0.0694375,-0.0540375,0.3276625
1692440434417,0.45795003,1.0500001,13.071001,0.1021625,-0.245025,0.2118875
1692440434447,0.043050002,0.84195006,13.641001,0.1590875,-0.285725,0.0759
1692440434475,-0.372,0.73695004,14.743951,0.198275,-0.3045625,-0.0279125
1692440434506,-0.030000001,0.75795,15.225,0.15675,-0.23485,0.091299996
1692440434535,-0.31500003,1.69605,14.775001,0.10285,-0.147675,0.281325
1692440434565,0.27600002,2.0650501,14.775001,0.0435875,0.00165,0.508475
1692440434593,-0.61905,2.8140001,13.55895,0.0763125,0.0323125,0.4257
1692440434619,-1.72905,3.3930001,14.248951,0.2369125,0.0367125,0.0045375
1692440434649,-1.2409501,3.0940502,16.081951,0.336325,0.048675,-0.2250875
1692440434685,-1.0690501,2.6179502,17.166,0.521125,0.1544125,-0.5823125
1692440434713,-1.2390001,1.86405,15.994051,0.510125,0.2101,-0.65615
1692440434741,-0.13995,0.507,17.901001,0.4197875,0.1969,-0.5696625
1692440434773,-0.372,0.25305,19.854,0.124437496,0.1511125,-0.16499999
1692440434797,0.642,0.279,18.514051,-0.0732875,0.1175625,0.142725
1692440434827,0.69000006,0.624,15.7900505,-0.26015,0.0708125,0.4211625
1692440434858,0.37905002,0.63795,13.779,-0.43614998,-0.08085,0.553575
1692440434885,-0.33900002,0.60195005,11.7949505,-0.42075,-0.1662375,0.40865
1692440434917,-0.441,0.36105,10.597951,-0.3048375,-0.2244,0.061875
1692440434947,-0.35295,0.066,11.701951,-0.2487375,-0.1794375,-0.0053625
1692440434975,-0.61395,-0.43500003,11.24205,-0.210375,-0.1093125,0.019524999
1692440435003,-0.60405004,-0.52605003,9.86295,-0.20735,0.01705,0.2949375
1692440435031,-0.71895003,-0.10305001,8.602051,-0.2415875,0.0609125,0.4426125
1692440435059,-0.61395,0.30795002,7.6759505,-0.3144625,0.1225125,0.4323
1692440435091,0.34005,0.53505003,6.4669504,-0.3122625,0.145475,0.30855
1692440435119,1.1179501,0.19800001,4.93305,-0.1942875,0.1331,-0.033
1692440435146,-0.058050003,0.35805002,4.7389503,-0.109175,0.0510125,-0.2805
1692440435177,-1.15995,0.67905,5.181,-0.038775,-0.0763125,-0.5583875
1692440435205,-1.1359501,0.79905003,5.3629503,0.0438625,-0.2264625,-0.9851875
1692440435233,0.35895002,0.13800001,4.5019503,0.0900625,-0.1403875,-1.101375
1692440435265,-0.26700002,-0.27495003,4.0950003,0.21175,0.1651375,-1.23915
1692440435292,-2.15295,-0.17205001,3.5680501,0.158125,0.148775,-0.9098375
1692440435319,-2.9520001,0.48795003,3.6780002,0.158125,0.148775,-0.9098375
1692440435350,-0.81000006,0.97095007,4.43505,-0.0609125,0.3256,-0.126225
1692440435375,1.3909501,-0.36795002,4.98495,-0.0044,0.8875625,0.1208625
1692440435404,-0.49905002,-0.80595005,7.6920004,0.1241625,0.901175,0.0122375
1692440435432,-3.52905,0.11400001,10.201051,0.137225,0.615725,0.0666875
1692440435461,-2.301,0.45405003,9.361051,-0.306625,0.0493625,0.928675
1692440435490,-0.70005006,0.53295004,7.68795,-0.47753748,0.2105125,1.32385
1692440435519,0.47700003,0.48000002,6.9360003,-0.373175,0.640475,1.3030875
1692440435550,0.33495003,0.61905,8.134951,-0.2039125,0.5058625,0.900075
1692440435580,-0.13995,0.55695003,9.933001,0.08415,-0.168575,0.048125
1692440435612,-0.71205,0.124050006,10.597951,0.1527625,-0.43945,-0.1783375
1692440435640,-1.2790501,0.057000004,10.5379505,0.137775,-0.6175125,-0.2630375
1692440435670,-0.87495005,-0.021000002,10.6050005,0.069299996,-0.546975,-0.1744875
1692440435707,-0.27405003,-0.094950005,10.79205,-0.0801625,-0.245575,0.03025
1692440435731,-0.441,0.105000004,10.941001,-0.1331,-0.1375,0.0935
1692440435758,-0.13305001,-0.00705,10.689,-0.18493749,-0.1302125,0.1337875
1692440435787,-0.07005,0.064050004,10.39995,-0.1728375,-0.1670625,0.0671
1692440435816,-0.37005,0.20805001,9.873,-0.142175,-0.19607499,-0.044
1692440435846,-0.37395,0.102000006,9.6,-0.0741125,-0.21133749,-0.2553375
1692440435874,-0.46305,0.010950001,9.567,-0.044,-0.19305,-0.3312375
1692440435902,-0.47295,0.033,9.46605,-0.0202125,-0.161975,-0.37895
1692440435931,-0.27195,0.061950002,9.394051,-0.0133375,-0.0919875,-0.333575
1692440435961,-0.27195,0.061950002,9.394051,-0.0133375,-0.0919875,-0.333575
1692440435989,0.027,0.27495003,9.67905,-0.0259875,-0.0515625,-0.21175
1692440436016,0.156,0.19605,9.66495,0.005775,-0.1018875,-0.190025
1692440436043,0.264,0.13800001,9.379951,0.0264,-0.1359875,-0.16445
1692440436078,-0.123,-0.0019500001,9.415951,0.0451,-0.193875,-0.109725
1692440436105,-0.231,-0.17895001,9.64095,0.0372625,-0.20693749,-0.0994125
1692440436132,-0.31500003,-0.13095,9.7560005,0.0171875,-0.1956625,-0.079475
1692440436161,-0.12105001,-0.061950002,9.19095,-0.04675,-0.1029875,0.071775
1692440436192,-0.022950001,-0.117000006,8.688001,-0.074525,-0.0526625,0.148775
1692440436221,-0.264,-0.13395001,8.901,-0.0911625,-0.009075,0.1461625
1692440436250,-0.38595003,-0.21495001,9.121051,-0.088275,-0.008525,0.1040875
1692440436278,-0.312,-0.31095,9.153001,-0.085525,0.0088,0.0545875
1692440436309,-0.33105,-0.20295002,8.95905,-0.0886875,0.0320375,0.0565125
1692440436337,-0.37905002,-0.081,8.418,-0.093775,0.053625,0.0532125
1692440436365,0.010050001,-0.261,8.13795,-0.0950125,0.0672375,-0.0303875
1692440436396,0.16800001,-0.31095,8.20905,-0.08525,0.0631125,-0.091025
1692440436425,0.09105001,-0.12900001,8.39595,-0.0702625,0.006325,-0.13859999
1692440436453,0.064950004,-0.13605,8.398951,-0.076175,-0.044,-0.0935
1692440436481,-0.15900001,0.12105001,8.451,-0.06875,-0.1128875,0.013475
1692440436512,-0.043950003,0.24795002,7.3120503,-0.043175,-0.11495,0.01705
1692440436537,-0.04695,0.22905001,6.91905,0.035475,-0.0691625,-0.031075
1692440436566,-0.12795001,0.04695,7.3380003,0.0809875,-0.042625,-0.0792
1692440436595,-0.24495001,-0.13905,7.3669505,0.1332375,-0.014575,-0.1780625
1692440436625,-0.23805001,-0.47805002,6.912,0.121825,-0.0015125,-0.172425
1692440436656,-0.18105,-0.55695003,6.57705,0.022275,0.0367125,-0.0017875
1692440436682,-0.18300001,-0.684,6.69705,-0.054449998,0.05115,0.1486375
1692440436713,-0.64695,-0.462,6.9310503,-0.1353,0.056375,0.3251875
1692440436740,-0.52500004,-0.44700003,7.5390005,-0.2607,0.056649998,0.6488625
1692440436771,0.003,-0.555,7.9890003,-0.2828375,0.08195,0.72655
1692440436800,0.558,-0.48795003,7.86705,-0.2734875,0.125125,0.723525
1692440436829,-0.09195001,-0.261,9.916051,-0.213125,0.104775,0.545875
1692440436858,0.28800002,0.16005,10.075951,-0.1342,-0.0950125,0.37125
1692440436892,1.10595,0.033,10.339951,-0.0639375,-0.155925,0.29067498
1692440436919,0.051000003,0.13605,12.003,0.1153625,-0.2179375,-0.0086624995
1692440436947,-0.573,0.58095,11.637,0.1755875,-0.2728,-0.1555125
1692440436975,0.71595,0.555,11.022,0.228525,-0.2448875,-0.18535
1692440437003,1.0699501,0.43695003,12.276001,0.260425,-0.1469875,-0.168575
1692440437030,-0.70005006,0.98805004,13.477951,0.296725,-0.078375,-0.2209625
1692440437060,-0.28605002,1.2750001,12.979951,0.3306875,-0.0768625,-0.355575
1692440437090,0.86205006,1.194,13.1980505,0.3405875,-0.0449625,-0.34155
1692440437120,-2.148,1.4950501,16.305,0.3718,0.0273625,-0.2959
1692440437145,-1.8919501,1.88505,15.28005,0.37235,0.0078375,-0.29479998
1692440437175,-0.18300001,1.8499501,17.10705,0.363275,0.0427625,-0.2866875
1692440437205,0.83100003,1.6170001,17.712,0.3548875,0.297,-0.3518625
1692440437233,0.98205006,1.6369501,15.915001,0.351175,0.3139125,-0.41854998
1692440437263,-0.18495001,1.6170001,15.022051,0.295625,0.0545875,-0.35694999
1692440437292,-0.45105,0.92805004,20.194052,0.2182125,-0.15125,-0.23045
1692440437320,-0.018000001,0.55005,19.504951,0.1706375,-0.1417625,-0.1519375
1692440437352,0.039,0.24795002,15.874051,0.09405,-0.0829125,0.0017875
1692440437386,0.120000005,0.07395,13.437,-0.10615,-0.0020625,0.3265625
1692440437407,0.67305005,-0.16005,13.777051,-0.177375,-0.0011,0.38005
1692440437438,0.66300005,-0.67005,13.77,-0.2462625,-0.021724999,0.3922875
1692440437467,-0.15900001,-0.48105,12.408001,-0.27225,-0.0493625,0.418275
1692440437496,0.48900002,-0.097950004,10.809001,-0.3353625,-0.106425,0.50985
1692440437526,1.2040501,-0.25605002,10.012051,-0.34595,-0.1087625,0.5102625
1692440437555,0.64395005,-0.34905002,8.911051,-0.326975,-0.10505,0.4544375
1692440437585,-0.20505,-0.54105,9.945001,-0.2528625,-0.15413749,0.215325
1692440437614,-0.16095,-0.41895002,9.64095,-0.23127499,-0.1802625,0.0809875
1692440437641,0.47700003,-0.13605,8.604,-0.22247499,-0.1122,-0.07425
1692440437672,0.33495003,0.18405001,7.15605,-0.2162875,-0.0521125,-0.1423125
1692440437697,0.13395001,0.27705002,6.4069505,-0.19635,-0.02035,-0.2688125
1692440437727,-0.010950001,0.693,4.9180503,-0.107525,-0.0353375,-0.6171
1692440437758,0.89595,0.61200005,3.7860003,0.02365,-0.0246125,-0.866525
1692440437792,0.075,0.17400001,4.3819504,0.1013375,-0.0265375,-0.9862875
1692440437819,-0.76005006,-0.16005,4.88205,0.2129875,-0.1276,-1.1155375
1692440437848,-1.4280001,-0.648,5.1769505,0.206525,-0.147125,-0.9988
1692440437879,-1.62405,-0.66795003,5.67,0.1480875,-0.0614625,-0.727375
1692440437908,-1.8870001,-0.045,7.7500505,-0.0963875,0.4013625,0.1403875
1692440437935,0.156,-0.76605004,7.1659503,-0.2278375,0.655325,0.555775
1692440437965,1.2589501,-1.00695,5.8900504,-0.2987875,0.8402625,0.8096
1692440437992,-2.0689502,0.22695,6.93795,-0.32395,0.7572125,1.08185
1692440438022,-2.1390002,0.48795003,9.226951,-0.40039998,0.295075,1.44595
1692440438050,-0.00795,0.41295,9.339001,-0.3267,0.3097875,1.4587375
1692440438081,0.44595003,1.00695,7.7640004,0.0180125,0.5966125,1.097525
1692440438110,-0.216,1.5139501,7.668,0.1742125,0.4629625,0.729025
1692440438140,0.22305001,1.3609501,9.40905,0.441925,-0.1227875,-0.10395
1692440438169,0.73005,0.99705005,10.491,0.565675,-0.3119875,-0.38953748
1692440438197,0.11505,1.0669501,10.93095,0.658625,-0.5066875,-0.5435375
1692440438223,0.15405001,1.23705,10.27005,0.5941375,-0.5636125,-0.439175
1692440438252,0.74505,1.42095,9.238951,0.49513748,-0.5735125,-0.286825
1692440438280,0.537,1.593,9.14295,0.3562625,-0.4807,-0.118525
1692440438309,0.11505,1.5960001,9.772051,0.341275,-0.449625,-0.1632125
1692440438340,0.012,1.44,10.00695,0.3601125,-0.42295,-0.3586
1692440438369,-0.022950001,1.371,9.283951,0.355025,-0.36685,-0.4192375
1692440438397,0.12705001,1.299,9.295951,0.2861375,-0.1925,-0.4635125
1692440438426,0.16095,1.1359501,9.658051,0.2440625,-0.1252625,-0.4503125
1692440438455,-0.17295001,1.1220001,9.61905,0.2041875,-0.0782375,-0.39435
1692440438485,-0.31500003,1.0380001,9.4800005,0.10945,-0.011275,-0.188375
1692440438515,-0.022950001,1.0170001,9.62895,0.0592625,0.02365,-0.082225
1692440438549,-0.20205002,1.041,9.591001,-0.0155375,0.1035375,0.128425
1692440438568,-0.09195001,1.12905,9.53295,-0.039875,0.1285625,0.2223375
1692440438601,0.060000002,1.2100501,9.18795,-0.059675,0.115637496,0.2068
1692440438631,0.24000001,1.0380001,9.066,-0.0521125,0.0902,0.11385
1692440438658,0.18900001,0.91095006,9.14505,-0.034925,0.0583,0.01595
1692440438689,0.012,0.78900003,9.106951,-0.0086624995,-0.02475,-0.1467125
1692440438719,0.094050005,0.63105005,8.79105,-0.0446875,-0.0760375,-0.1557875
1692440438747,0.072000004,0.53295004,8.81295,-0.076725,-0.0752125,-0.1142625
1692440438775,-0.006,0.55905,8.57295,-0.1095875,-0.0644875,-0.0655875
1692440438804,0.14895001,0.564,8.134951,-0.1662375,-0.0290125,0.0666875
1692440438835,-0.04695,0.53505003,7.5750003,-0.18053749,-0.0099,0.131725
1692440438856,-0.054,0.492,7.458,-0.181225,6.875E-4,0.17379999
1692440438890,-0.054,0.492,7.458,-0.181225,6.875E-4,0.17379999
1692440438918,0.13905,0.39705002,6.6660004,-0.1291125,0.013612499,0.073975
1692440438946,-0.030000001,0.61005,6.354,-0.122237496,0.0127875,0.0407
1692440438978,-0.33900002,0.75105006,6.80205,-0.10505,-0.0042625,0.081675
1692440439006,0.08895,0.61395,7.1730003,-0.0787875,2.75E-4,0.1073875
1692440439038,0.52905005,0.33195,7.7910004,-0.0045375,0.0323125,0.0422125
1692440439067,-0.351,0.75105006,6.5149503,0.009075,0.0169125,-0.0226875
1692440439096,0.079050004,0.88995004,6.1410003,-0.0078375,-0.050325,-0.0411125
1692440439126,0.43605003,0.684,7.6180506,0.0089375,-0.0430375,-0.0539
1692440439153,-0.025050001,0.70305,8.57295,0.0495,-0.0191125,-0.125125
1692440439183,-0.37905002,0.80100006,8.499001,0.0979,-0.0523875,-0.22453749
1692440439211,0.12705001,0.90900004,8.431951,0.0814,-0.06765,-0.1491875
1692440439240,0.453,0.85095006,8.820001,0.0628375,-0.0331375,-0.0400125
1692440439267,0.20895001,0.67905,10.359,0.0627,0.0523875,0.0675125
1692440439300,0.33105,0.94500005,12.015,0.0312125,-0.012925,0.108075
1692440439328,0.711,1.005,12.288,-0.0111375,-0.04235,0.170225
1692440439355,0.66300005,0.99705005,11.482051,-0.0661375,-0.0664125,0.279675
1692440439383,0.24000001,0.89895004,11.175,-0.0628375,-0.097625,0.2756875
1692440439414,-0.11400001,1.1149501,12.04905,-0.0334125,-0.145475,0.17215
1692440439436,0.50100005,1.1530501,12.520051,-0.0191125,-0.1188,0.1370875
1692440439471,0.711,1.3780501,12.762001,-0.0048125,-0.0671,0.139425
1692440439499,0.14895001,1.4140501,11.989051,0.0276375,-0.0209,0.1183875
1692440439530,0.19695,1.2079501,12.10095,0.0452375,-0.0429,0.0268125
1692440439560,0.61305004,1.0210501,12.80805,0.0620125,-0.0617375,-0.1032625
1692440439593,0.91200006,1.0170001,12.59895,0.064625,-0.046475,-0.287375
1692440439622,0.46695003,1.3450501,12.291,0.0078375,-0.0661375,-0.21835
1692440439650,0.44805002,1.9069501,13.276951,-0.01705,-0.0988625,-0.15345
1692440439681,0.48105,2.082,13.924951,0.0020625,-0.106837496,-0.1260875
1692440439711,0.28800002,1.9429501,14.51895,0.0468875,-0.0829125,-0.1815
1692440439743,0.051000003,1.46895,14.361001,0.142725,-0.040425,-0.3194125
1692440439767,-0.43905002,1.04295,14.811001,0.161425,-0.0138875,-0.31845
1692440439797,-0.88395005,0.71505004,17.032051,0.10285,0.0774125,-0.1683
1692440439824,-1.0159501,0.96195006,16.221,0.02695,0.14575,-0.0556875
1692440439855,-0.126,0.92805004,14.452051,-0.06435,0.22495,0.0727375
1692440439887,1.6849501,0.19995001,16.810051,-0.1934625,0.3344,0.229625
1692440439915,1.1880001,0.112050004,17.407951,-0.2305875,0.188925,0.131725
1692440439944,1.8360001,0.13305001,15.514951,-0.2649625,0.026675,0.10505
1692440439973,1.008,0.16005,13.66005,-0.3058,-0.1254,0.1219625
1692440440000,0.14895001,0.21195,12.472951,-0.3267,-0.2827,0.1414875
1692440440033,-0.51795,0.052050002,10.92105,-0.3037375,-0.2899875,0.102025
1692440440059,-0.36,-0.31605002,10.177051,-0.2363625,-0.154275,-0.0119624995
1692440440088,-0.76005006,-0.34905002,8.595,-0.210375,-0.04235,-0.0270875
1692440440125,0.26805001,-0.897,7.42395,-0.2099625,0.15125,0.0900625
1692440440150,0.84105,-1.1220001,8.290951,-0.2292125,0.2118875,0.1892
1692440440178,0.50805,-0.95505005,8.68605,-0.3003,0.19139999,0.4145625
1692440440206,0.13695,-0.744,7.932,-0.35255,0.1049125,0.4657125
1692440440234,0.24405001,0.03795,6.1459503,-0.41965,-0.0510125,0.259325
1692440440261,0.9289501,0.32205,4.49205,-0.4019125,-0.0675125,0.0836
1692440440293,2.028,-0.028050002,3.0180001,-0.23925,-0.0867625,-0.29205
1692440440316,2.334,-0.70305,2.5870502,-0.23925,-0.0867625,-0.29205
1692440440347,0.28305,-0.57705003,4.65705,-0.0526625,-0.3276625,-0.5852
1692440440376,-0.79800004,-0.50205004,6.3619504,-0.0826375,-0.6413,-0.342375
1692440440405,-0.95595,-1.335,5.9830503,-0.1486375,-0.600875,-0.0996875
1692440440434,-1.9020001,-0.186,6.91695,-0.2017125,-0.362175,0.1384625
1692440440465,-1.6840501,1.371,6.9810004,-0.29975,0.337425,0.672925
1692440440493,2.42295,-1.04295,3.657,-0.1491875,0.8892125,0.726825
1692440440521,-0.18105,-0.79905003,6.8689504,0.0334125,0.9293625,0.4114
1692440440551,-3.7489502,0.36600003,11.656051,0.1208625,0.69685,0.127875
1692440440578,-3.2250001,0.291,11.93595,0.0204875,0.2380125,0.1225125
1692440440611,0.21105,-0.246,8.746051,0.0741125,0.4978875,0.1731125
1692440440639,1.7569501,-0.804,6.9030004,0.3114375,1.0498124,-0.1434125
1692440440668,0.795,-0.34005,8.109,0.3256,0.847,-0.4261125
1692440440696,-0.9799501,-0.16995001,10.854,0.12595,-0.095699996,-0.600875
1692440440725,-0.70005006,-0.65805006,12.33405,0.036575,-0.42075,-0.516725
1692440440758,0.051000003,-0.68895006,10.404,0.0088,-0.3988875,-0.385275
1692440440787,0.034050003,-0.30600002,9.379951,-0.0094875,-0.278025,-0.3496625
1692440440815,0.18495001,-0.12195001,9.033,-0.0452375,-0.21505,-0.33467498
1692440440844,0.30195,-0.19395001,10.054951,-0.0451,-0.198825,-0.407825
1692440440876,0.08400001,-0.14805001,10.246051,0.041525,-0.2068,-0.4904625
1692440440899,-0.034950003,-0.109950006,9.801001,0.066825,-0.2156,-0.4442625
1692440440931,0.112950005,-0.165,9.271951,0.07865,-0.2132625,-0.350625
1692440440960,0.201,-0.27705002,9.65505,0.088,-0.1626625,-0.254375
1692440440987,-0.07305,-0.411,9.934951,0.08525,-0.133375,-0.285175
1692440441016,-0.109050006,-0.52395004,9.835051,0.0727375,-0.1115125,-0.3040125
1692440441048,-0.34305,-0.60300004,9.715051,0.0158125,-0.069299996,-0.18645
1692440441077,-0.50595003,-0.40395,9.78705,-0.0532125,-0.0064625,0.006325
1692440441105,-0.003,-0.29700002,9.4800005,-0.075625,0.0309375,0.0617375
1692440441133,0.29505002,-0.20595,9.0070505,-0.083325,0.0697125,0.0858
1692440441164,0.13005,-0.16695,8.755051,-0.0554125,0.0881375,0.094325
1692440441188,0.015000001,-0.21300001,8.740951,-0.0273625,0.0493625,0.0496375
1692440441220,0.18705001,-0.39705002,8.83395,0.0242,-0.03575,-0.13859999
1692440441250,0.216,-0.50205004,8.78205,0.0341,-0.05335,-0.1964875
1692440441278,-0.08505,-0.38295,8.40795,0.0059125,-0.072325,-0.1353
1692440441307,-0.28095,-0.34905002,7.8499503,-0.0218625,-0.082499996,-0.04895
1692440441336,-0.042000003,-0.52905005,6.8040004,-0.05115,-0.046475,0.08085
1692440441365,0.261,-0.28005,7.0750504,-0.0517,0.001375,0.117837496
1692440441393,0.16305001,-0.18900001,7.6489506,-0.054725,0.0375375,0.1593625
1692440441423,0.13695,-0.31995,7.386,-0.0556875,0.014575,0.2061125
1692440441450,0.072000004,-0.15300001,7.36005,-0.0363,-0.0198,0.176
1692440441482,-0.09,0.00405,7.55805,0.0122375,-0.056649998,0.1307625
1692440441512,-0.42705002,-0.094950005,7.2300005,0.0331375,-0.056925,0.150425
1692440441540,-0.33405003,-0.052050002,7.4670005,0.0875875,-0.010725,0.1731125
1692440441568,-0.13695,-0.19605,7.83795,0.109175,0.0389125,0.1744875
1692440441595,-0.36705002,-0.26505002,9.121051,0.116325,0.091025,0.185075
1692440441625,-0.97305006,0.025950002,8.616,0.0902,0.1472625,0.24035
1692440441656,-0.48000002,0.33705002,8.097,0.0598125,0.1892,0.3499375
1692440441684,-0.07005,0.38505003,7.9459505,0.07205,0.231825,0.374
1692440441718,-0.16605,0.37500003,9.118951,0.156475,0.22495,0.246675
1692440441745,-0.57795,0.16695,10.408951,0.2008875,0.148775,0.1648625
1692440441778,-0.693,-0.069000006,10.869,0.2270125,0.0672375,0.13805
1692440441803,0.0049500004,0.081,10.498051,0.185075,0.0191125,0.292875
1692440441828,0.12195001,0.26295,10.52595,0.1236125,0.0347875,0.422125
1692440441861,0.027,0.34605002,10.36095,0.0320375,-0.0133375,0.4972
1692440441891,0.27600002,0.19605,10.68,0.0308,-0.07535,0.38747498
1692440441921,0.015000001,0.066,11.25405,0.0639375,-0.1634875,0.053075
1692440441949,0.064950004,0.08295,11.304001,0.066,-0.179025,-0.0653125
1692440441980,0.096,0.16395001,11.508,0.033825,-0.1640375,-0.0829125
1692440442008,0.49095002,0.25995,12.151951,0.017324999,-0.1428625,-0.047575
1692440442038,0.33495003,0.36795002,12.175951,0.0132,-0.11715,-0.0529375
1692440442066,-0.26895002,0.68895006,12.135,0.0242,-0.1265,-0.0790625
1692440442096,0.09105001,0.34905002,12.714001,0.065175,-0.1271875,-0.1571625
1692440442124,-0.231,0.18105,12.279,0.088,-0.090475,-0.202675
1692440442154,-0.33105,0.40095,11.79705,0.0859375,-0.0174625,-0.24145
1692440442181,-0.32205,0.48000002,11.994,0.0611875,0.006875,-0.20955
1692440442211,-0.37395,0.45900002,11.998951,0.0435875,0.0353375,-0.1716
1692440442240,-0.48705003,0.46605003,12.54705,0.0583,0.087175,-0.206525
1692440442268,-0.279,0.53295004,13.012951,0.06985,0.101475,-0.243925
1692440442296,0.22995001,0.25095,13.368001,0.0719125,0.117975,-0.2275625
1692440442325,-0.078,-0.021000002,13.227,0.0675125,0.11055,-0.1865875
1692440442353,-1.11195,0.17205001,13.818001,0.0540375,0.0842875,-0.1299375
1692440442384,-0.84795004,-0.105000004,14.737051,0.025575,0.052525,-0.0609125
1692440442418,0.060000002,-0.66795003,16.17795,-0.0864875,0.1010625,0.019524999
1692440442444,0.67095006,-0.9480001,15.591001,-0.13213749,0.1104125,0.048125
1692440442473,1.1179501,-0.94500005,15.538951,-0.1876875,0.0732875,0.1313125
1692440442502,1.75995,-0.96195006,15.7879505,-0.280225,-0.099,0.289575
1692440442531,2.43,-1.1770501,15.148951,-0.30195,-0.1964875,0.2481875
1692440442558,0.53895,-1.35,14.899951,-0.3122625,-0.3801875,-0.011275
1692440442587,-0.324,-1.59405,14.96895,-0.3117125,-0.4499,-0.1023
1692440442615,-0.492,-1.6609501,14.136001,-0.315975,-0.3686375,-0.0413875
1692440442643,-0.40095,-1.6129501,12.420001,-0.3216125,-0.2182125,0.06765
1692440442674,-0.75495005,-1.539,10.203,-0.332475,0.054449998,0.2102375
1692440442703,-0.717,-1.5600001,9.37005,-0.3344,0.1307625,0.25795
1692440442731,-0.54,-1.28295,8.913,-0.33275,0.176825,0.3433375
1692440442760,0.462,-1.0699501,7.8139505,-0.3216125,0.22605,0.517
1692440442790,1.04205,-0.9979501,7.08195,-0.30745,0.2292125,0.47795
1692440442819,0.72795004,-1.2229501,6.6580505,-0.2484625,0.1109625,0.1153625
1692440442847,-0.19305001,-0.64605004,6.5509505,-0.220825,-0.01265,-0.073425
1692440442877,-0.89595,0.117000006,5.9089503,-0.2014375,-0.1288375,-0.20295
1692440442905,0.75000006,0.109050006,4.87305,-0.1304875,-0.135575,-0.3700125
1692440442935,1.539,-0.36405003,4.7509503,0.0628375,0.089375,-0.688875
1692440442965,0.984,-0.711,5.01195,0.1518,0.089375,-0.8482375
1692440442993,0.10605001,-1.1730001,4.9350004,0.1824625,-0.0429,-0.8776625
1692440443022,-0.62805,-0.58395004,5.2650003,0.0589875,-0.3653375,-0.4456375
1692440443052,-1.33905,1.3110001,3.2670002,-0.037675,-0.3653375,-0.0875875
1692440443081,1.3980001,-0.21495001,2.46195,-0.0537625,-0.007425,0.4785
1692440443106,1.0180501,-1.7689501,4.5349503,0.08965,0.2105125,0.500775
1692440443135,-3.4429502,-0.17400001,11.067,0.2563,0.2173875,0.5011875
1692440443164,-3.5479503,0.13605,11.6320505,0.1071125,0.110275,0.841775
1692440443192,-0.81000006,0.040050004,9.01395,-0.0180125,0.247775,1.1966625
1692440443222,1.08,0.62595004,7.0270505,0.2314125,0.9939875,1.0388125
1692440443249,0.63195,1.0330501,7.0530005,0.3964125,1.010075,0.6336
1692440443279,0.0049500004,1.0170001,7.932,0.5038,0.69575,0.172975
1692440443308,-0.666,0.84405005,11.4529505,0.67553747,-0.1199,-0.581075
1692440443337,0.08205,0.624,11.055,0.764225,-0.30965,-0.8155125
1692440443368,0.13395001,0.753,9.74895,0.7170625,-0.243375,-0.7396125
1692440443398,-0.20205002,0.94200003,9.741,0.4959625,-0.179025,-0.41085
1692440443426,0.058050003,0.81105006,9.74895,0.3991625,-0.1892,-0.29479998
1692440443455,-0.058050003,0.693,9.78705,0.2987875,-0.1783375,-0.245575
1692440443483,-0.39795002,0.86595005,9.684,0.259325,-0.1623875,-0.225225
1692440443515,-0.20205002,0.67200005,9.3820505,0.215875,-0.14465,-0.1815
1692440443542,-0.09,0.423,9.729,0.1533125,-0.0721875,-0.1428625
1692440443570,-0.54195005,0.50205004,9.507001,0.1296625,-0.032725,-0.1560625
1692440443599,-0.20205002,0.42495003,9.366,0.053075,0.01925,-0.0812625
1692440443631,-0.04695,0.32205,9.21,0.013612499,0.047849998,0.015125
1692440443669,-0.19005,0.25800002,8.98995,-0.040425,0.0573375,0.1359875
1692440443697,-0.15405001,0.38895002,8.841001,-0.08085,8.25E-4,0.038775
1692440443724,-0.015000001,0.42105,8.52105,-0.0903375,-0.015675,-0.0391875
1692440443758,-0.006,0.17895001,8.05095,-0.07865,-0.0331375,-0.18315
1692440443785,-0.47295,0.37995002,8.181001,-0.0699875,-0.047575,-0.2217875
1692440443818,-0.46305,0.38895002,7.5850506,-0.075625,-0.051975,-0.1612875
1692440443845,-0.18495001,0.31500003,7.03905,-0.073425,-0.014712499,-0.111237496
1692440443874,0.16605,0.141,7.1130004,-0.058849998,0.0378125,-0.0969375
1692440443903,-0.231,0.14295001,6.97695,-0.034375,0.0638,-0.1485
1692440443930,-0.078,0.16695,6.912,-0.04235,0.025024999,-0.1302125
1692440443959,-0.063,0.009000001,7.53,-0.0570625,-0.0163625,-0.054175
1692440443987,-0.633,0.025950002,8.14995,-0.080025,-0.050325,0.1467125
1692440444018,-0.76005006,0.27,7.7710505,-0.1067,-0.0081124995,0.2212375
1692440444048,-0.492,0.44895002,7.2780004,-0.1167375,0.0551375,0.2110625
1692440444076,-0.015000001,0.31500003,7.6639504,-0.0763125,0.1824625,0.1637625
1692440444105,-0.40800002,0.27195,8.238,-0.02915,0.1915375,0.109037496
1692440444135,-0.29805002,0.13305001,8.53995,0.0132,0.1519375,0.037675
1692440444164,-0.075,-0.01905,9.684,0.0347875,0.0292875,-0.022275
1692440444191,0.048,-0.20805001,9.234,0.0138875,-5.5E-4,0.0022
1692440444222,-0.30705002,-0.40905002,9.35805,-0.0699875,-0.0485375,0.078099996
1692440444250,-1.42305,-0.35895002,10.28205,-0.1254,-0.086899996,0.143825
1692440444281,-0.68595004,-0.37305,10.428,-0.23567499,-0.0631125,0.3762
1692440444309,0.48600003,-0.37800002,10.564951,-0.2679875,0.041249998,0.4929375
1692440444336,0.40695003,0.13305001,10.866,-0.2770625,0.1530375,0.559075
1692440444365,0.012,0.52605003,10.88595,-0.2292125,0.1161875,0.43614998
1692440444392,0.59595,0.37995002,11.094001,-0.1617,-0.0174625,0.25547498
1692440444422,0.36705002,0.43005002,11.0460005,0.0334125,-0.2036375,-0.1513875
1692440444453,-0.18300001,0.42495003,10.372951,0.1104125,-0.2404875,-0.294525
1692440444481,-0.17595,0.22395001,10.47105,0.1694,-0.2556125,-0.374825
1692440444509,0.060000002,0.076050006,10.44705,0.1700875,-0.208175,-0.3444375
1692440444539,0.012,-0.060000002,10.717951,0.1302125,-0.0790625,-0.23265
1692440444567,-0.147,-0.060000002,11.200951,0.085525,-0.0477125,-0.141625
1692440444599,0.09105001,0.028050002,12.319051,-0.0158125,-0.0319,0.08415
1692440444628,0.09105001,0.028050002,12.319051,-0.0158125,-0.0319,0.08415
1692440444657,-0.73605,0.0139500005,13.519051,-0.0677875,-0.0078375,0.1475375
1692440444684,-0.91995007,0.31800002,13.686001,-0.0774125,0.013612499,0.0570625
1692440444715,-0.57600003,0.70305,14.98305,-0.07095,0.048125,0.0251625
1692440444744,-0.48495004,0.837,15.91005,-0.0537625,0.1071125,0.007975
1692440444772,-0.81000006,1.452,14.59605,0.030524999,0.1936,-0.05995
1692440444801,0.015000001,1.14795,14.809051,0.165825,0.158675,-0.2316875
1692440444835,-0.14895001,0.33705002,16.62795,0.2360875,0.1307625,-0.3273875
1692440444863,-0.52995,-0.13905,17.86305,0.2949375,0.048125,-0.440825
1692440444893,-0.15195,-0.19095,17.64495,0.2365,-5.5E-4,-0.403425
1692440444922,1.2400501,-0.94005007,15.445051,0.01595,-0.0427625,-0.21835
1692440444950,0.38295,-1.2229501,15.031051,-0.08195,-0.0625625,-0.13213749
1692440444980,-0.32205,-1.1410501,14.658001,-0.24255,-0.188925,0.04675
1692440445009,0.30705002,-1.4809501,13.188001,-0.3117125,-0.2355375,0.1420375
1692440445039,-0.06105,-1.44105,12.748051,-0.3609375,-0.2231625,0.2138125
1692440445068,-0.83895004,-1.5649501,13.480051,-0.4008125,-0.10725,0.2699125
1692440445097,-0.85800004,-1.6110001,13.20495,-0.413325,-0.0133375,0.2941125
1692440445125,-0.71400005,-0.93795,11.47395,-0.4101625,0.0435875,0.3372875
1692440445154,-0.47505003,-0.24900001,10.191001,-0.3986125,0.1005125,0.4008125
1692440445181,0.41400003,-0.54300004,7.767,-0.31955,0.16555,0.2952125
1692440445213,0.75900006,-1.1370001,6.6889505,-0.238975,0.1678875,0.055
1692440445241,0.16995001,-1.16805,7.0939503,-0.109725,0.05115,-0.305525
1692440445271,-0.24795002,-1.2559501,8.425051,-0.117975,-0.055825,-0.2585
1692440445298,-0.32700002,-0.9670501,9.29895,-0.2160125,-0.1799875,0.048675
1692440445329,0.27105,-0.57195,8.097,-0.2454375,-0.15565,0.1406625
1692440445358,0.89805007,-0.84195006,5.7630005,-0.2396625,-0.094325,0.111925
1692440445387,-0.030000001,-0.79200006,2.50095,-0.1463,-0.012375,-0.26565
1692440445415,0.36405003,-0.72,2.6869502,-0.1472625,-0.0908875,-0.38665
1692440445446,0.702,-1.3110001,3.5010002,-0.1967625,-0.14025,-0.2135375
1692440445478,-2.15505,0.46395,5.0830503,-0.2787125,-0.2132625,0.4107125
1692440445512,0.75900006,0.069000006,3.183,-0.2932875,-0.2171125,0.7621625
1692440445541,0.37395,-0.59295005,2.49795,-0.245025,-0.089925,1.0492625
1692440445570,-3.7210503,0.25800002,8.6640005,0.0336875,0.3106125,1.243
1692440445598,-3.0310502,0.483,9.79395,0.20625,0.35901248,1.192125
1692440445629,-0.20700002,0.39900002,7.0200005,0.3155625,0.6615125,1.205325
1692440445658,0.28995,1.3879501,5.8830004,0.642125,1.1939125,0.6886
1692440445687,-0.24000001,1.6680001,6.51,0.7847125,0.9752875,0.0974875
1692440445716,-0.59895,1.27005,7.5700502,0.9277125,0.5632,-0.5138375
1692440445745,-0.80505,0.78195006,9.95205,0.533225,0.075075,-1.3836625
1692440445773,-1.2270001,0.82500005,11.14605,0.76725,-0.116875,-1.4991624
1692440445808,-1.00395,0.96900004,10.668,0.665775,-0.20735,-1.04995
1692440445836,-0.38895002,0.624,9.507001,0.4921125,-0.172425,-0.7128
1692440445864,-0.48000002,0.75105006,9.94005,0.241175,-0.1054625,-0.311575
1692440445894,-0.38895002,0.897,10.18395,0.1670625,-0.1249875,-0.24475
1692440445925,-0.50895,0.59295005,9.9210005,0.0680625,-0.2184875,-0.259325
1692440445952,-0.86805004,0.54495,9.568951,0.044,-0.247775,-0.3056625
1692440445980,-0.915,0.53505003,9.624001,1.375E-4,-0.2272875,-0.2679875
1692440446012,-0.42495003,0.30795002,10.206,-0.0270875,-0.171325,-0.18645
1692440446039,-0.41805002,0.20805001,10.351951,-0.0644875,-0.0551375,-0.136125
1692440446070,-0.29805002,0.19800001,9.94995,-0.0845625,-0.044825,-0.16555
1692440446095,-0.252,0.27495003,10.026,-0.14355,-0.091575,-0.118525
1692440446126,-0.20895001,0.19995001,10.078951,-0.166375,-0.115637496,-0.0341
1692440446149,-0.384,0.28905,9.97395,-0.176275,-0.1335125,0.0506
1692440446181,-0.59205,0.294,9.79605,-0.1626625,-0.147125,0.1368125
1692440446211,-0.26205,0.19095,9.603001,-0.14533749,-0.1364,0.1139875
1692440446236,0.034050003,0.13605,9.579,-0.1104125,-0.083875,0.023924999
1692440446271,-0.094050005,0.078,9.373051,-0.102025,-0.06985,0.0059125
1692440446300,-0.13005,0.00405,8.70495,-0.1049125,-0.1076625,-0.050049998
1692440446325,-0.36495003,0.045,8.70495,-0.111925,-0.1313125,-0.0812625
1692440446353,-0.19500001,-0.012,8.248051,-0.1188,-0.13695,-0.083875
1692440446383,0.048,-0.0019500001,7.8960004,-0.121275,-0.0983125,-0.0554125
1692440446412,-0.20700002,-0.081,7.1470504,-0.1167375,-0.0760375,-0.0699875
1692440446438,-0.28095,-0.21495001,6.8590503,-0.10285,-0.0625625,-0.169675
1692440446467,-0.61905,-0.033,7.25895,-0.1012,-0.0556875,-0.18933749
1692440446496,-0.48195,0.08295,7.1779504,-0.12265,9.625E-4,-0.0044
1692440446526,0.14595,-0.016050002,6.426,-0.1249875,0.0493625,0.098175
1692440446554,-0.16395001,-0.081,6.144,-0.107525,0.0919875,0.117837496
1692440446584,-0.83400005,-0.165,6.02895,-0.0589875,0.0782375,0.0468875
1692440446615,-0.702,-0.19800001,5.76105,-0.0548625,0.0444125,0.0675125
1692440446642,-0.11805001,-0.57195,6.0930004,-0.0829125,0.0848375,0.1962125
1692440446669,-0.65895003,-0.28905,7.2400503,-0.1093125,0.14093749,0.2635875
1692440446698,-0.80295,-0.0019500001,8.08695,-0.187,0.16225,0.4404125
1692440446725,-0.20895001,0.303,8.26395,-0.210375,0.1423125,0.5135625
1692440446755,0.30195,0.016050002,8.511001,-0.194425,0.1280125,0.5082
1692440446782,-0.34305,-0.069000006,9.13305,-0.0551375,0.037125,0.1947
1692440446811,-0.025050001,-0.675,10.44495,0.0121,-0.050049998,0.00495
1692440446841,-0.30705002,-1.17495,12.69795,0.0204875,-0.15895,-0.0361625
1692440446871,0.108,-1.24695,12.196951,-0.050325,-0.1769625,0.1265
1692440446898,0.112950005,-0.85200006,11.845051,-0.27101249,-0.2107875,0.515625
1692440446926,0.04095,-0.507,11.292001,-0.3447125,-0.22659999,0.6194375
1692440446954,0.42900002,-0.36795002,11.212951,-0.3125375,-0.2303125,0.52648747
1692440446983,1.4820001,-0.35895002,11.958,-0.2338875,-0.2143625,0.3746875
1692440447009,1.37205,-0.54495,13.03995,-0.1452,-0.2127125,0.2030875
1692440447040,0.63900006,-0.060000002,12.5130005,-2.75E-4,-0.3289,-0.1588125
1692440447068,1.2040501,0.20295002,12.291,0.0466125,-0.39325,-0.292875
1692440447098,1.269,-0.15495001,13.227,0.0858,-0.4046625,-0.3609375
1692440447127,-0.18300001,-0.19095,13.939951,0.16225,-0.3386625,-0.3738625
1692440447155,-0.39405003,-0.45705003,15.547951,0.1728375,-0.2619375,-0.2393875
1692440447184,-0.46305,-0.08595,15.010051,0.1485,-0.1549625,-0.141625
1692440447215,0.72300005,0.48000002,13.645051,0.121275,-0.015125,-0.0548625
1692440447243,1.14195,0.0019500001,17.06595,0.099825,0.180125,0.02805
1692440447271,-0.53505003,-0.021000002,17.76,0.1115125,0.1804,-0.011
1692440447299,-0.19500001,0.11400001,16.78305,0.1271875,0.069025,-0.111237496
1692440447328,1.0129501,-0.354,17.872952,0.116875,0.0638,-0.0891
1692440447355,0.69195,-0.57900006,17.949001,0.0823625,0.1214125,-0.0262625
1692440447383,1.2910501,-1.25205,15.103051,0.0545875,0.0925375,-0.0270875
1692440447411,0.3,-1.51005,13.771951,0.011825,0.02365,-0.018975
1692440447440,-0.123,-1.45305,13.48305,-0.1219625,-0.111237496,0.0881375
1692440447471,-0.01305,-1.50495,12.630001,-0.1970375,-0.1296625,0.171325
1692440447500,-0.23805001,-1.5799501,11.25405,-0.298925,-0.0438625,0.3518625
1692440447536,-0.39405003,-1.9290001,11.41905,-0.3361875,0.053625,0.516175
1692440447561,-0.63105005,-1.8790501,11.995951,-0.3496625,0.083325,0.5627875
1692440447596,0.64395005,-1.04595,11.23305,-0.3782625,0.1293875,0.5742
1692440447621,1.3620001,-0.45705003,9.387,-0.3718,0.1414875,0.5275875
1692440447652,0.40500003,0.15495001,6.56295,-0.329725,0.122099996,0.399025
1692440447687,0.57000005,-0.51705,5.043,-0.140525,-0.0198,-0.1695375
1692440447714,1.8430501,-0.81405,7.3549504,-0.02915,-0.077,-0.506
1692440447744,1.02705,-0.648,10.431001,0.0859375,-0.13805,-0.886325
1692440447773,0.20595,-0.15495001,9.366,0.0639375,-0.2165625,-0.9114875
1692440447802,-0.15900001,-0.18405001,6.6610503,0.00165,-0.3361875,-0.97061247
1692440447831,-0.34605002,-0.768,4.33395,0.0187,-0.26221249,-1.048025
1692440447859,-0.52305,-1.2060001,4.0800004,0.0598125,0.027224999,-0.9645625
1692440447889,-1.03695,-1.797,4.23105,0.0169125,0.1420375,-0.6634375
1692440447916,-1.5979501,-1.7830501,4.86105,-0.0834625,0.21807499,-0.185075
1692440447946,-0.42000002,-1.4980501,5.1769505,-0.402325,0.31405,1.0239625
1692440447977,1.29795,-1.7809501,3.6850502,-0.566775,0.3650625,1.6009125
1692440448006,-2.505,-0.16695,7.14195,-0.779625,0.263725,2.3651376
1692440448033,-3.108,0.43995002,8.86305,-0.8058875,0.0658625,2.4355376
1692440448063,-0.61395,0.21495001,8.049001,-0.435875,0.1628,2.1417
1692440448089,0.13905,0.37005,7.4749503,-0.0460625,0.51975,1.9063
1692440448120,0.38295,0.53805,7.2619505,0.61545,0.701525,0.875325
1692440448155,0.57495004,0.60195005,8.808001,0.798875,0.4387625,0.1753125
1692440448172,0.19395001,0.77205,9.385051,0.907225,0.13035,-0.4274875
1692440448207,-0.44895002,1.00695,9.3820505,0.9805125,-0.27555,-1.2102749
1692440448235,-0.39405003,0.89505005,9.3490505,0.93005,-0.3788125,-1.4452626
1692440448265,-0.291,0.555,9.64305,0.93005,-0.3788125,-1.4452626
1692440448294,-0.14505,0.31005,9.966001,0.81785,-0.2314125,-1.324125
1692440448322,-0.15195,0.22695,10.078951,0.5852,-0.1189375,-0.9574125
1692440448356,-0.38895002,0.47295,10.347,0.306075,-0.099,-0.46461248
1692440448384,-0.10395,0.44505003,9.97395,0.207075,-0.0917125,-0.2847625
1692440448413,-0.279,0.48495004,9.67905,0.1452,-0.0776875,-0.19525
1692440448441,-0.45600003,0.43305,9.64995,0.100925,-0.059125,-0.2635875
1692440448471,-0.33405003,0.25305,9.97605,0.09405,-0.0507375,-0.32615
1692440448500,-0.16395001,0.15495001,10.081051,0.06875,-0.0083875,-0.3216125
1692440448529,0.097950004,0.093,9.8230505,0.042075,0.008525,-0.267025
1692440448561,-0.15900001,0.16395001,9.84195,-0.0276375,-0.0127875,-0.1304875
1692440448588,0.015000001,0.13095,9.79605,-0.0548625,-0.0452375,-0.073975
1692440448620,-0.11400001,0.105000004,9.978001,-0.0757625,-0.0922625,-0.0438625
1692440448647,-0.03195,0.124050006,9.892051,-0.0776875,-0.0969375,-0.0444125
1692440448676,0.0049500004,0.049950004,9.52095,-0.07975,-0.0947375,-0.02805
1692440448704,-0.15195,0.10005,8.985001,-0.083325,-0.0831875,0.0210375
1692440448732,-0.10395,-0.045,9.20505,-0.0834625,-0.07645,0.0364375
1692440448762,-0.06795,-0.16005,9.64305,-0.083875,-0.0526625,0.073975
1692440448791,-0.11595,-0.25605002,9.889951,-0.0889625,-0.0400125,0.0917125
1692440448820,-0.35505003,-0.072000004,9.5140505,-0.125125,-0.0320375,0.096525
1692440448849,0.012,-0.093,8.608951,-0.1450625,-0.0262625,0.0823625
1692440448876,0.094050005,-0.13095,8.18505,-0.1505625,-0.010725,0.0548625
1692440448907,-0.38895002,-0.21000001,8.73795,-0.1197625,0.01265,-0.038775
1692440448937,-0.68295,-0.11895001,8.323951,-0.092125,-0.005225,-0.1725625
1692440448965,-0.63105005,-0.043050002,7.31895,-0.0873125,0.0138875,-0.2215125
1692440448994,-0.22605,-0.19095,6.3829503,-0.0826375,0.064899996,-0.24035
1692440449022,0.012,-0.43995002,6.7660503,-0.0642125,0.1595,-0.226325
1692440449054,-0.41295,-0.31995,7.4869504,-0.0647625,0.15345,-0.1621125
1692440449080,0.079050004,-0.25305,6.97905,-0.110825,0.0724625,0.133375
1692440449109,0.28500003,-0.26295,6.216,-0.132275,0.034925,0.2486
1692440449139,-0.303,0.022950001,6.1369505,-0.128425,-0.045925,0.2338875
1692440449169,-0.60405004,0.009000001,6.5670004,-0.1067,-0.0906125,0.156475
1692440449198,-0.042000003,-0.33495003,7.0270505,-0.0251625,-0.056375,0.0320375
1692440449226,-0.087000005,-0.57705003,7.5870004,0.0122375,0.0174625,0.0270875
1692440449253,-0.31500003,-0.63405,7.9219503,0.017324999,0.0658625,0.06215
1692440449283,-0.22800002,-0.354,7.8139505,-0.0829125,0.0328625,0.2123
1692440449314,0.02205,-0.19395001,8.81505,-0.1661,0.0059125,0.3653375
1692440449339,-0.094050005,-0.10695001,9.0070505,-0.15455,-9.625E-4,0.365475
1692440449378,-0.39795002,-0.37995002,10.491,-0.0699875,-0.0504625,0.21133749
1692440449401,-0.67395,-0.522,11.154,-0.028875,-0.0636625,0.130625
1692440449431,-0.31695002,-0.63405,11.505,-0.00605,-0.052249998,0.099
1692440449460,-0.21195,-0.483,11.91495,-0.004675,-0.018975,0.135025
1692440449489,-0.80505,-0.12705001,12.09195,-0.0279125,0.0407,0.276925
1692440449519,-0.19695,0.19800001,12.160951,-0.0111375,0.0581625,0.2118875
1692440449547,0.59895,0.28695002,12.316951,0.0275,0.078099996,0.1225125
1692440449574,0.28995,0.31500003,12.778951,0.082225,0.0782375,0.0331375
1692440449603,0.31395,0.19800001,12.274051,0.1901625,-0.05115,-0.1722875
1692440449630,0.10605001,0.069000006,13.035001,0.22055,-0.127875,-0.312125
1692440449659,-0.19305001,0.08805001,13.744051,0.216425,-0.1882375,-0.51919997
1692440449688,-0.010950001,-0.031050002,12.934051,0.1892,-0.1793,-0.5121875
1692440449718,-0.36495003,-0.0019500001,12.135,0.122237496,-0.11275,-0.356675
1692440449749,-0.59505004,0.006,12.166051,0.093775,-0.0732875,-0.2569875
1692440449777,-0.64995,0.058950003,12.352951,0.0526625,0.0077,-0.0471625
1692440449806,-1.03995,0.018000001,13.951951,0.0396,0.0561,0.0565125
1692440449834,-1.0999501,0.049950004,13.50405,0.0301125,0.1035375,0.1452
1692440449864,-0.31695002,-0.033,13.48305,0.016775,0.181225,0.207625
1692440449892,-0.87705004,-0.59595,15.520051,0.0108624995,0.20487499,0.210925
1692440449923,-1.62405,-0.864,16.75995,-0.0202125,0.1698125,0.268125
1692440449951,0.003,-0.61200005,16.18695,-0.0578875,0.13859999,0.3146
1692440449980,0.77295005,-0.57705003,15.340051,-0.1408,0.1354375,0.315975
1692440450015,0.79995006,-0.35895002,13.714951,-0.14905,0.0056375,0.01155
1692440450042,1.24695,-0.744,14.143051,-0.1329625,-0.1194875,-0.1788875
1692440450071,1.26405,-1.86705,14.148001,-0.1183875,-0.234575,-0.315425
1692440450098,-0.372,-2.23305,14.098051,-0.1513875,-0.3696,-0.2833875
1692440450123,-0.95400006,-2.2710001,13.657051,-0.2223375,-0.381425,-0.124437496
1692440450154,-0.68100005,-2.15205,12.622951,-0.3147375,-0.3356375,0.07645
1692440450182,-1.04205,-1.7490001,12.36495,-0.44907498,-0.10175,0.4445375
1692440450212,-1.164,-1.3429501,10.846951,-0.4670875,0.015125,0.5611375
1692440450239,-0.85095006,-1.1869501,9.540001,-0.4142875,0.1736625,0.55495
1692440450268,-0.27405003,-1.35,8.616,-0.3535125,0.23333749,0.4279
1692440450299,-0.43695003,-1.5990001,8.095051,-0.2365,0.275275,0.0988625
1692440450329,-0.441,-1.644,8.15205,-0.2365,0.275275,0.0988625
1692440450357,0.29205,-1.9339501,8.14005,-0.2376,0.154,-0.21065
1692440450383,0.51705,-1.6150501,8.248051,-0.2814625,0.11385,-0.2662
1692440450414,-0.126,-1.09605,8.073,-0.3249125,0.06435,-0.3139125
1692440450444,0.29700002,-1.05495,5.70795,-0.3223,-0.0572,-0.4291375
1692440450482,-0.64005005,-0.75795,4.0300503,-0.1925,-0.1150875,-0.484
1692440450518,-1.2360001,-0.62895006,4.4110503,-0.1456125,-0.116325,-0.4175875
1692440450530,-1.23105,-0.84000003,4.8030005,-0.1280125,-0.087175,-0.272525
1692440450560,-0.906,-1.1410501,5.4900002,-0.1219625,-0.00275,-0.07095
1692440450589,0.18195,-1.5270001,5.73705,-0.1027125,0.275275,0.345675
1692440450618,0.37605003,-1.2709501,5.2390504,-0.112475,0.3383875,0.531575
1692440450647,-0.01305,-1.4100001,5.36595,-0.1991,0.11495,0.8380625
1692440450675,-2.09805,-0.864,7.9249506,-0.2552,-0.09625,0.933625
1692440450704,-2.76795,0.021000002,9.744,-0.3004375,-0.3199625,1.0432125
1692440450734,-0.71400005,0.186,9.00405,-0.19855,-0.1618375,1.0421125
1692440450764,0.20400001,0.44895002,7.9840503,0.34045,0.440825,0.540925
1692440450791,0.50295,0.528,8.073,0.6370375,0.55,0.0031625
1692440450821,0.65400004,0.45900002,8.752951,0.97061247,0.22495,-0.9868375
1692440450849,-0.19695,0.33705002,9.526051,1.009525,-0.028324999,-1.1985875
1692440450880,-1.1359501,0.16395001,9.877951,0.917675,-0.36781248,-1.097525
1692440450908,-0.69795,-0.03795,9.981001,0.8146875,-0.377025,-0.931975
1692440450940,-0.039,-0.43500003,9.696,0.56993747,-0.1095875,-0.527175
1692440450972,-0.351,-0.18900001,9.700951,0.440825,0.0077,-0.2971375
1692440451002,-0.36,0.040050004,9.705001,0.17847499,-0.0122375,0.144375
1692440451029,-0.26205,0.19995001,9.262951,0.086075,-0.061049998,0.2806375
1692440451057,-0.432,0.36105,9.34395,0.0463375,-0.077,0.2473625
1692440451084,-0.31500003,0.22395001,9.736951,0.0727375,-0.0677875,0.15015
1692440451117,-0.13305001,-0.009000001,9.84195,0.139425,-0.04455,-0.0490875
1692440451146,-0.38895002,-0.064050004,9.910951,0.155375,-0.0394625,-0.1527625
1692440451174,-0.40305,-0.19605,10.203,0.146575,-0.046475,-0.212025
1692440451204,-0.26895002,-0.17895001,10.28505,0.0710875,-0.0565125,-0.097625
1692440451231,-0.17595,0.07395,9.519,0.0253,-0.04455,-0.0108624995
1692440451262,-0.24000001,0.15705001,9.238951,-0.032725,-0.0295625,0.0394625
1692440451288,-0.058050003,0.14295001,9.47805,-0.029424999,-0.0350625,0.028875
1692440451316,-0.12795001,0.028050002,9.375,-0.0083875,-0.043725,0.0056375
1692440451346,-0.25995,-0.12705001,9.243,0.0378125,-0.0622875,-0.088825
1692440451371,-0.28395,-0.069000006,9.526051,0.044,-0.0669625,-0.1373625
1692440451401,-0.123,0.022950001,9.435,0.01595,-0.0493625,-0.1296625
1692440451430,0.043050002,0.03795,8.932051,-0.003025,-0.0345125,-0.08195
1692440451459,-0.11595,0.034950003,8.856,-0.01375,-0.03135,-0.0352
1692440451489,-0.264,-0.105000004,9.21195,-0.0061875,-0.0424875,-0.0785125
1692440451517,-0.31005,-0.23205002,9.339001,0.002475,-0.0488125,-0.1903
1692440451546,-0.21405001,-0.18405001,8.49195,-0.0077,-0.0352,-0.1733875
1692440451575,-0.27405003,-0.09105001,7.7310004,-0.0507375,9.625E-4,-0.0452375
1692440451603,0.01905,-0.246,7.3810506,-0.0661375,0.013475,-0.00385
1692440451631,0.036000002,-0.30105,8.134951,-0.0694375,0.0204875,0.021175
1692440451661,0.072000004,-0.37305,8.241,-0.0705375,-1.375E-4,0.07095
1692440451685,0.09105001,-0.354,7.5460505,-0.0847,-0.0309375,0.088
1692440451715,0.01695,-0.39900002,7.49595,-0.1032625,-0.063525,0.091299996
1692440451744,-0.13305001,-0.36795002,7.9200006,-0.1252625,-0.098037496,0.073425
1692440451774,-0.53205,-0.12705001,8.03205,-0.127875,-0.0972125,0.061325
1692440451802,-0.11595,-0.016050002,7.48395,-0.1123375,-0.0561,0.037675
1692440451830,0.28500003,-0.043050002,6.7969503,-0.084975,-0.016775,0.0229625
1692440451859,0.108,0.021000002,6.5509505,0.0,0.03025,-0.0298375
1692440451886,-0.34305,-0.012,6.5460005,0.03355,0.0061875,-0.0587125
1692440451915,-0.537,-0.246,7.1899505,0.052525,-0.031625,-0.0683375
1692440451941,-0.61095005,-0.11505,8.52495,0.0631125,-0.0149875,0.0143
1692440451974,-0.702,0.11895001,8.21205,0.0512875,0.049225,0.104637496
1692440452001,-0.312,0.26295,7.3429503,0.020075,0.1860375,0.249425
1692440452029,-0.09195001,-0.048,8.14995,0.0352,0.227425,0.2468125
1692440452058,-0.88695,-0.27705002,9.02295,0.09955,0.1962125,0.138875
1692440452086,-0.528,-0.66495,10.213051,0.100375,0.14093749,0.09845
1692440452116,-0.312,-0.64395005,11.854951,0.0622875,0.1109625,0.113299996
1692440452145,-0.60195005,-0.069000006,11.383051,-0.0867625,0.12595,0.30195
1692440452175,-0.37905002,0.49005002,10.555051,-0.14575,0.1082125,0.385825
1692440452204,0.42195,0.50205004,11.78295,-0.1013375,0.0438625,0.31239998
1692440452230,0.47400004,0.39705002,12.934051,-2.75E-4,0.0114124995,0.147125
1692440452261,-0.19995001,0.564,12.80805,0.19085,-0.1329625,-0.2319625
1692440452290,0.15105,0.51405,12.82005,0.2322375,-0.2127125,-0.3452625
1692440452319,0.14205001,0.26295,12.913051,0.2404875,-0.245575,-0.398475
1692440452354,-0.18300001,0.26295,12.015,0.22825,-0.2234375,-0.3859625
1692440452381,-0.57795,0.19995001,13.2310505,0.170225,-0.17545,-0.3443
1692440452409,-1.34595,0.15195,15.003,0.1307625,-0.1362625,-0.3136375
1692440452437,-1.06095,0.22395001,14.698951,0.065725,-0.00385,-0.237875
1692440452465,-0.55605,-0.055050004,15.1060505,0.0407,0.085525,-0.1978625
1692440452494,-1.3729501,-0.35205,17.86305,0.01595,0.162525,-0.1555125
1692440452524,-1.0350001,-0.009000001,17.844002,-0.0468875,0.196625,-0.0474375
1692440452552,0.15405001,0.186,16.591951,-0.082499996,0.188375,0.00275
1692440452579,0.26805001,0.094950005,16.50105,-0.104775,0.1868625,0.0119624995
1692440452608,-0.36705002,-0.75405,15.627001,-0.0815375,0.103125,-0.1397
1692440452638,0.15795001,-1.2919501,15.261001,-0.0587125,-0.0721875,-0.1948375
1692440452668,0.54795,-1.6030501,14.397,-0.0917125,-0.1175625,-0.09735
1692440452697,-0.063,-2.058,13.641001,-0.156475,-0.1397,0.0259875
1692440452728,-1.0159501,-2.39805,12.678,-0.3161125,-0.1827375,0.16665
1692440452757,-1.21695,-2.02005,12.910951,-0.45815,-0.14575,0.3163875
1692440452785,-0.19695,-1.644,11.94795,-0.51425,-0.0686125,0.4222625
1692440452814,-0.24300002,-1.338,10.387951,-0.5236,0.085525,0.44701248
1692440452843,-0.73800004,-1.2559501,9.543,-0.470525,0.1005125,0.331375
1692440452872,-0.66195005,-1.383,9.727051,-0.4002625,0.0809875,0.1661
1692440452903,-0.34800002,-1.3399501,8.941951,-0.2765125,0.0748,-0.12155
1692440452931,-0.11595,-0.94305,7.39095,-0.238975,0.0974875,-0.1667875
1692440452958,-0.051000003,-0.56505,7.1250005,-0.202675,0.0886875,-0.0760375
1692440452988,0.29700002,-0.64095,6.8910003,-0.18053749,0.0532125,-0.0221375
1692440453019,0.06705,-0.68895006,6.3180003,-0.0840125,-0.0185625,-0.11165
1692440453049,-0.32205,-0.62895006,5.44995,-0.0306625,-0.0477125,-0.2407625
1692440453078,-0.83205,-0.54795,4.61205,0.0163625,-0.0655875,-0.4120875
1692440453107,-0.91095006,-0.49800003,4.72695,0.0163625,-0.0655875,-0.4120875
1692440453136,-0.58995,-0.79200006,4.7839503,-0.0078375,0.14533749,-0.2413125
1692440453165,-0.63495004,-1.0720501,4.545,-0.013062499,0.22687499,-0.14135
1692440453198,-1.6890001,-0.79905003,5.5909505,-0.034925,0.263175,0.0165
1692440453227,0.010050001,-0.61695004,5.2530003,-0.177375,0.256025,0.6226
1692440453255,0.60795003,-0.75405,5.6290503,-0.238975,0.27719998,1.06755
1692440453284,-1.26495,-0.74895006,8.442,-0.1958,0.1926375,1.0333124
1692440453314,-2.5170002,-0.35595003,10.60305,-0.1397,0.0207625,0.8949875
1692440453343,-1.42005,0.0139500005,9.981001,-0.014025,-0.1549625,0.702625
1692440453372,0.30705002,0.37995002,7.8619504,0.106975,-0.0160875,0.6017
1692440453399,0.74700004,0.804,8.13,0.4313375,0.2303125,0.0209
1692440453428,0.66300005,0.90405005,8.688001,0.5644375,0.1364,-0.348975
1692440453459,-0.109050006,0.79905003,8.941951,0.7533625,-0.2850375,-0.8894875
1692440453489,-0.63795,0.40095,9.47295,0.806575,-0.4313375,-1.0322125
1692440453518,-0.81195,0.009000001,10.186951,0.7632625,-0.408375,-1.0096625
1692440453547,-0.67800003,-0.055050004,10.78695,0.6573875,-0.27665,-0.81895
1692440453574,-0.26700002,-0.072000004,10.431001,0.5086125,-0.1288375,-0.537625
1692440453605,0.097950004,0.069000006,9.97095,0.2061125,0.055825,-0.029975
1692440453633,-0.135,0.40095,10.017,0.1029875,0.060225,0.0776875
1692440453662,-0.441,0.41595003,9.715051,0.01705,-0.0394625,0.0616
1692440453693,-0.40995002,0.31500003,9.363001,0.0273625,-0.0820875,0.0064625
1692440453721,-0.85605,0.37995002,9.745951,0.089375,-0.0760375,-0.0859375
1692440453751,-0.753,0.294,9.250951,0.106975,-0.0405625,-0.110825
1692440453778,-0.537,0.20295002,9.16395,0.108899996,0.0077,-0.1238875
1692440453806,-0.63495004,0.351,9.79395,0.0900625,0.1057375,-0.1164625
1692440453838,-0.26895002,0.54495,8.962951,0.0677875,0.1192125,-0.0847
1692440453866,-0.06795,0.37005,8.2879505,0.068475,0.0985875,-0.0886875
1692440453893,-0.46995002,0.354,9.150001,0.0798875,0.0688875,-0.1073875
1692440453925,-0.55200005,0.31305,9.916051,0.0939125,-0.0072875,-0.11715
1692440453959,-0.61605,0.16005,9.45195,0.0594,-0.016224999,-0.060775
1692440453978,-0.42495003,0.17595,9.00195,0.03135,0.005775,-0.0411125
1692440454009,-0.15900001,0.34605002,9.394051,0.00165,0.02035,-0.032175
1692440454039,0.25605002,-0.01905,9.363001,-0.0342375,-0.0012375,-0.013475
1692440454069,0.27795002,-0.22695,9.17205,-0.0356125,-0.0433125,-0.0056375
1692440454100,-0.17805001,-0.036000002,9.835051,-0.076725,-0.1714625,0.049225
1692440454130,0.18,-0.17205001,9.42105,-0.121825,-0.2217875,0.091437496
1692440454158,0.321,-0.31995,8.499001,-0.17985,-0.2292125,0.1029875
1692440454186,-0.14205001,-0.24105,9.59805,-0.1857625,-0.211475,0.0814
1692440454215,-0.39795002,-0.177,10.30095,-0.187,-0.187,0.05115
1692440454245,0.120000005,-0.13905,9.63405,-0.180675,-0.152625,0.0378125
1692440454273,0.537,-0.19095,8.193001,-0.16499999,-0.1016125,0.0039875
1692440454302,0.35700002,-0.109950006,7.6129503,-0.1211375,-0.0631125,-0.0983125
1692440454331,0.10605001,-0.31095,6.7639503,-0.1029875,-0.0972125,-0.119625
1692440454360,-0.126,-0.273,6.84495,-0.086899996,-0.13859999,-0.121
1692440454390,-0.04695,-0.112050004,7.3050003,-0.069575,-0.1518,-0.0792
1692440454419,-0.07005,-0.112050004,6.3450003,-0.0760375,-0.0697125,0.14685
1692440454447,-0.18300001,-0.35595003,5.6389503,-0.068475,-0.0262625,0.2509375
1692440454475,-0.45105,-0.31095,6.16305,-0.0534875,0.007425,0.27335
1692440454506,-0.82695,-0.22005,7.28805,-0.0515625,0.0628375,0.2453
1692440454535,-0.351,-0.26805001,6.5940003,-0.0680625,0.1073875,0.3158375
1692440454564,-0.29805002,0.24300002,5.9500504,-0.08085,0.2360875,0.5126
1692440454591,0.003,0.126,7.728,-0.067375,0.26785,0.52415
1692440454621,-0.48705003,-0.012,10.00905,0.0188375,0.2077625,0.26565
1692440454651,-0.135,-0.15495001,10.629001,0.0760375,0.15413749,0.09405
1692440454680,0.216,-0.31305,11.319,0.11825,0.0710875,-0.04675
1692440454710,-0.10605001,-0.060000002,11.224951,0.0985875,0.0281875,-0.059675
1692440454738,0.108,0.08505,11.367001,0.0286,-0.10175,-0.0543125
1692440454766,0.12495001,0.030000001,11.92905,0.0114124995,-0.152075,-0.007425
1692440454797,0.097950004,-0.031050002,11.335951,0.0402875,-0.170775,0.0683375
1692440454826,-0.04695,-0.20595,12.075001,0.0573375,-0.1615625,0.0837375
1692440454855,-0.31695002,0.033,13.176001,0.0592625,-0.1480875,0.13585
1692440454884,0.66795003,0.43500003,12.147,0.0312125,-0.092125,0.315975
1692440454913,1.10595,0.624,11.7300005,0.0279125,-0.0570625,0.296725
1692440454942,0.92205006,0.64095,11.52,0.0504625,-0.048675,0.153725
1692440454971,1.04205,0.55905,11.90505,0.148225,-0.16775,-0.2270125
1692440454999,0.41205,0.31800002,12.7570505,0.208725,-0.300575,-0.38445
1692440455028,0.14595,0.34395,12.678,0.2052875,-0.3161125,-0.385825
1692440455058,-0.36,0.43695003,14.16705,0.1445125,-0.2270125,-0.2803625
1692440455084,-0.135,0.684,14.51895,0.1098625,-0.1332375,-0.221375
1692440455114,0.51495004,1.014,13.972951,0.0867625,-0.0309375,-0.187825
1692440455142,-0.18105,1.0500001,15.079051,0.09295,0.1049125,-0.141625
1692440455169,-0.23295002,0.53505003,15.28005,0.1205875,0.11605,-0.11165
1692440455199,-0.61905,0.492,14.766001,0.155925,0.103675,-0.0944625
1692440455230,-0.24795002,0.504,16.33605,0.13213749,0.116875,-0.060225
1692440455258,-0.066,0.15495001,17.973001,0.087725,0.1398375,0.0154
1692440455287,0.711,-0.39000002,16.152,0.007975,0.1618375,0.1518
1692440455316,0.53400004,-0.48795003,13.36305,-0.08195,0.0963875,0.1799875
1692440455352,0.41205,-1.04295,13.308001,-0.1414875,0.030524999,0.1750375
1692440455380,0.41205,-1.575,13.285951,-0.2366375,-0.078925,0.0968
1692440455410,0.192,-1.5679501,13.401001,-0.2800875,-0.095699996,0.081675
1692440455437,-0.58005005,-0.78195006,11.425951,-0.33165,-0.093637496,0.1406625
1692440455467,-0.022950001,-0.81795,9.385051,-0.4060375,-0.0323125,0.379225
1692440455495,-0.46305,-1.1340001,9.3490505,-0.3537875,0.088,0.44027498
1692440455526,-0.657,-1.5120001,10.713,-0.31295,0.1123375,0.410575
1692440455555,0.07005,-1.9699501,11.326051,-0.2910875,0.1087625,0.41745
1692440455585,0.30405003,-1.8240001,10.926001,-0.324775,0.1065625,0.5504125
1692440455614,-0.025050001,-0.47400004,9.19095,-0.4184125,0.061875,0.440825
1692440455641,0.43095002,0.117000006,7.0630503,-0.42941248,0.0171875,0.227425
1692440455669,0.88395005,0.36105,6.2850003,-0.37454998,-0.00825,-0.0694375
1692440455700,0.82395005,0.39195,6.12195,-0.095425,-0.029975,-0.749925
1692440455725,0.34695002,0.21495001,4.839,0.0556875,-0.0774125,-1.015025
1692440455757,-0.03705,-0.08295,3.2280002,0.2459875,-0.1989625,-1.2034
1692440455785,-0.71205,-0.31605002,3.1609502,0.2728,-0.203225,-1.1004125
1692440455813,-0.71895003,-0.63195,4.413,0.256575,-0.1552375,-0.8600625
1692440455843,-0.43395,-0.65805006,5.2369504,0.2044625,-0.0639375,-0.50435
1692440455872,0.59895,-0.94995004,4.43895,0.028875,0.1871375,0.3174875
1692440455897,0.61995006,-0.97605,4.6410003,-0.1728375,0.246125,0.9087375
1692440455926,-1.0849501,-0.684,8.16405,-0.26895,0.11385,1.0762125
1692440455957,-1.8060001,-0.42795002,9.897,-0.3463625,-0.056375,1.160775
1692440455988,-1.095,0.016050002,8.616,-0.30153748,-0.02585,1.1198
1692440456012,-0.27405003,0.38700002,8.14005,-0.1502875,0.2129875,0.9719875
1692440456044,0.34695002,0.44505003,9.729,0.21285,0.5372125,0.348425
1692440456071,0.26595002,0.44205,10.387951,0.3612125,0.4860625,-0.0232375
1692440456102,0.381,0.37500003,9.576,0.55,0.1142625,-0.5564625
1692440456130,-0.44895002,0.23895001,8.557051,0.57475,-0.0653125,-0.669625
1692440456160,-0.702,-0.093,9.4800005,0.5072375,-0.209825,-0.650925
1692440456187,-0.45600003,-0.28500003,10.075951,0.4360125,-0.1700875,-0.5405125
1692440456216,-0.372,-0.28905,9.813001,0.2387,0.0114124995,-0.1896125
1692440456246,-0.47700003,-0.048,9.79395,0.132,0.069575,-0.0501875
1692440456277,-0.102000006,0.15705001,9.7890005,-0.0031625,0.0829125,0.0050875
1692440456303,0.02205,0.31995,9.97605,-0.015675,0.0713625,-0.034925
1692440456334,-0.003,0.39405003,9.519,0.0015125,0.0473,-0.092675
1692440456363,-0.126,0.12105001,9.16005,0.0837375,-0.0468875,-0.2646875
1692440456392,-0.264,-0.06705,9.732,0.123475,-0.0875875,-0.35035
1692440456422,-0.0010500001,-0.14805001,9.922951,0.14093749,-0.105325,-0.3834875
1692440456451,0.043050002,-0.12705001,9.978001,0.0845625,-0.0933625,-0.2380125
1692440456480,0.14895001,0.03795,9.552,-0.015125,-0.0864875,-0.0242
1692440456509,0.17295001,0.24105,9.38895,-0.0435875,-0.091299996,0.0268125
1692440456539,0.075,0.32205,9.082951,-0.033275,-0.1051875,-0.0275
1692440456567,0.177,0.246,8.773951,-0.0020625,-0.11385,-0.1288375
1692440456598,-0.08505,0.29595003,9.09,0.0620125,-0.1241625,-0.36245
1692440456624,-0.264,0.23400001,8.98005,0.081125,-0.11935,-0.4164875
