@ HyperIMU - ianovir
@ Date:Sat Aug 19 20:35:09 GMT+03:00 2023, Sampling Rate:25ms

timestamp,bma4xy_accelerometer.x,bma4xy_accelerometer.y,bma4xy_accelerometer.z,oem_pseudo_gyro.x,oem_pseudo_gyro.y,oem_pseudo_gyro.z
1692466509588,-0.58005005,-0.33195,9.913951,0.086899996,0.0526625,0.2437875
1692466509622,-0.28800002,-0.13605,9.861,-0.0570625,0.164175,1.76
1692466509647,-1.0489501,0.58605003,9.89505,-0.162525,0.1804,2.9382374
1692466509672,-0.44400004,-0.22500001,10.014001,-0.2662,0.1595,4.2681375
1692466509711,0.12195001,-0.36795002,9.94005,-0.2550625,0.17325,4.35215
1692466509740,-0.11100001,-0.31305,9.84195,-0.2638625,0.166375,3.9776
1692466509766,-0.16395001,-0.23400001,10.033051,-0.29755,0.104775,3.6961374
1692466509789,0.02205,-0.34905002,9.873,-0.3188625,0.03025,3.3628376
1692466509816,0.108,-0.39900002,9.732,-0.29755,-0.0609125,2.6082375
1692466509841,0.003,-0.246,9.67905,-0.2759625,-0.083325,2.2870374
1692466509870,-0.087000005,-0.19800001,9.592951,-0.2545125,-0.1034,2.0241375
1692466509894,-0.09900001,-0.22695,9.7890005,-0.2303125,-0.11935,1.799875
1692466509924,-0.015000001,-0.34695002,10.09605,-0.1692625,-0.1139875,1.4383875
1692466509952,0.84795004,-0.76305,9.95205,-0.1401125,-0.09735,1.3046
1692466509980,0.51000005,-0.76605004,9.64095,-0.125125,-0.0886875,1.20395
1692466510009,-0.0010500001,0.040050004,9.74895,-0.1698125,-0.1483625,1.14345
1692466510035,-0.24495001,0.045,9.43995,-0.202675,-0.196625,1.144
1692466510063,-0.38895002,0.025950002,9.366,-0.1551,-0.18095,0.9285375
1692466510092,-0.44400004,0.16695,9.682051,-0.075625,-0.1111,0.6972625
1692466510121,-0.17595,-0.08295,10.065001,0.0730125,0.0468875,0.2473625
1692466510147,-0.14895001,-0.17895001,9.98595,0.1161875,0.1013375,0.141625
1692466510178,-0.10605001,-0.13095,10.00695,0.1258125,0.119625,0.1739375
1692466510207,-0.049050003,-0.19605,10.069051,0.0999625,0.0947375,0.2160125
1692466510234,-0.030000001,-0.11895001,9.80595,0.07095,0.065725,0.236775
1692466510262,-0.09,-0.061950002,9.568951,0.029975,0.0188375,0.22055
1692466510289,-0.15195,-0.031050002,9.67695,0.0209,0.0011,0.189475
1692466510317,0.109950006,-0.22005,9.05895,0.0254375,-0.0176,0.1265
1692466510345,0.060000002,-0.13905,9.777,0.03135,-0.0191125,0.10175
1692466510369,-0.39105,0.010950001,9.64095,0.0331375,-0.022,0.086075
1692466510396,-0.14505,0.033,9.744,0.03025,-0.027775,0.0922625
1692466510423,-0.11595,-0.354,9.98595,0.0268125,-0.0309375,0.122375
1692466510452,-0.11595,-0.354,9.98595,0.0268125,-0.0309375,0.122375
1692466510484,-0.13005,-0.109950006,9.64995,0.0319,-0.001375,0.0891
1692466510514,0.17505,-0.22005,9.712951,0.0149875,0.0044,-0.06545
1692466510547,0.17505,-0.22005,9.712951,0.0149875,0.0044,-0.06545
1692466510569,0.17505,-0.22005,9.712951,0.0149875,0.0044,-0.06545
1692466510600,0.17505,-0.22005,9.712951,0.0149875,0.0044,-0.06545
1692466510644,0.17505,-0.22005,9.712951,0.0149875,0.0044,-0.06545
1692466510669,-0.11805001,-0.109950006,10.111951,-0.0125124995,-0.0174625,-0.06765
1692466510692,-0.11805001,-0.109950006,10.111951,-0.0125124995,-0.0174625,-0.06765
1692466510742,-0.11805001,-0.109950006,10.111951,-0.0125124995,-0.0174625,-0.06765
1692466510782,-0.17805001,-0.052050002,9.8869505,0.031625,0.056375,-0.1860375
1692466510826,-0.21195,-0.124050006,9.942,0.031625,0.056375,-0.1860375
1692466510871,-0.15900001,-0.025950002,9.52095,0.008525,0.0352,-0.15675
1692466510905,-0.28605002,0.018000001,9.769951,-0.0044,0.02035,-0.132275
1692466510942,-0.09195001,-0.15300001,9.98295,-0.0031625,0.0067375,-0.0961125
1692466510985,-0.03705,-0.10695001,9.765,0.0174625,0.01485,-0.0455125
1692466511021,-0.11805001,-0.094950005,9.835051,0.0050875,0.0022,0.034649998
1692466511057,-0.11400001,-0.14805001,9.897,-0.018975,-0.02035,0.1634875
1692466511090,-0.16905001,-0.08805001,9.78195,-0.0154,-0.0086624995,0.1170125
1692466511124,-0.303,-0.076050006,9.8230505,-0.003575,0.0089375,-0.0237875
1692466511139,-0.19005,-0.024,9.816001,0.0015125,0.013475,-0.0793375
1692466511171,-0.08505,-0.13395001,9.8869505,0.0059125,0.020075,-0.1120625
1692466511200,-0.14205001,-0.13095,9.84,0.009625,0.02915,-0.0818125
1692466511231,-0.17295001,-0.025950002,9.739051,0.00605,0.0229625,0.001375
1692466511257,-0.10605001,-0.064050004,9.847051,-0.0048125,0.0053625,0.1678875
1692466511285,-0.043950003,-0.11895001,9.84195,-0.0023375,0.0023375,0.16995
1692466511313,-0.015000001,-0.13605,9.95895,0.005225,-1.375E-4,0.143
1692466511342,-0.09195001,-0.11895001,9.837001,0.0083875,-0.01925,0.168025
1692466511367,-0.01995,-0.162,10.11705,6.875E-4,-0.0317625,0.1951125
1692466511395,-0.26205,-0.117000006,9.92595,-0.0121,-0.0375375,0.1606
1692466511421,-0.171,-0.19605,10.110001,-0.0133375,-0.029424999,0.10945
1692466511448,-0.102000006,-0.14295001,9.691051,-0.0133375,-0.0166375,0.036025
1692466511476,-0.24000001,-0.097950004,9.63105,-0.018975,0.0059125,-0.1216875
1692466511505,-0.25695002,-0.12195001,10.033051,-0.0224125,0.0108624995,-0.1486375
1692466511535,-0.07005,-0.10005,9.696,-0.015125,0.0237875,-0.112475
1692466511563,-0.12105001,0.081,9.01605,-0.0083875,0.0295625,-0.0804375
1692466511590,-0.14505,0.093,9.27,-0.002475,0.0259875,-0.030524999
1692466511620,-0.09705,-0.012,9.804001,0.0218625,-1.375E-4,0.106837496
1692466511648,-0.102000006,0.0,9.828,0.039325,-0.0078375,0.1398375
1692466511676,-0.25500003,0.39900002,9.29895,0.0554125,-0.0116875,0.10175
1692466511704,-0.51105005,0.65505004,8.875051,0.060775,-0.009075,0.071225
1692466511732,-0.669,0.09,9.604951,0.0809875,0.0031625,0.0396
1692466511760,-0.075,-0.52605003,10.608001,0.160875,0.0716375,-0.046475
1692466511786,0.16305001,-0.51705,10.479,0.1661,0.109725,-0.0732875
1692466511816,0.10605001,0.11400001,8.748,0.0248875,0.0858,-0.0059125
1692466511843,-0.027,0.23895001,8.458051,-0.056925,0.0229625,0.063525
1692466511873,-0.042000003,0.022950001,8.563951,-0.0911625,-0.0383625,0.1252625
1692466511901,-0.48900002,0.018000001,9.4800005,-0.038225,-0.086899996,0.1995125
1692466511929,-0.34095,-0.17400001,8.63595,-0.0088,-0.077275,0.208725
1692466511956,-0.0010500001,-0.21495001,8.32905,-0.0017875,-0.0070125,0.121825
1692466511984,-0.039,-0.093,7.2330003,-0.015262499,0.02915,0.039325
1692466512014,-0.42195,-0.24900001,6.543,-0.0339625,0.0402875,-0.0279125
1692466512042,-0.55200005,-0.51705,6.7639503,-0.069025,0.01815,-0.0895125
1692466512068,-0.34800002,-0.64605004,6.0979505,-0.0847,0.031625,-0.132
1692466512097,-0.21405001,-0.67005,4.96395,-0.1450625,0.1164625,-0.3097875
1692466512125,-0.19005,-0.49305,4.72905,-0.1942875,0.1425875,-0.3851375
1692466512160,-0.06105,-0.531,4.992,-0.278025,0.1230625,-0.3832125
1692466512189,-0.027,-0.68895006,5.39895,-0.28875,0.10065,-0.3278
1692466512217,-0.04695,-1.0309501,5.77005,-0.2759625,0.0424875,-0.17407499
1692466512244,-0.52995,-0.63195,6.6150002,-0.28435,-0.00165,-0.08525
1692466512274,-1.04505,-0.36405003,7.2970505,-0.3095125,-0.0422125,-0.0089375
1692466512302,-1.4899501,-0.045,8.2570505,-0.3152875,0.00385,0.0108624995
1692466512330,-1.07805,-1.0819501,11.235001,-0.238975,0.1288375,-0.0831875
1692466512358,-0.27405003,-2.32605,13.305,-0.0154,0.4202,-0.3762
1692466512384,0.024,-2.2069502,13.264951,6.875E-4,0.42845,-0.3799125
1692466512414,-0.38595003,-1.43595,12.49905,-0.0969375,0.2987875,-0.1969
1692466512441,-0.07305,-1.113,13.519051,-0.347325,-0.095699996,0.3564
1692466512466,0.47895002,-1.4860501,13.447051,-0.3498,-0.2121625,0.4926625
1692466512495,0.32805002,-1.9770001,13.420051,-0.1838375,-0.2982375,0.55495
1692466512524,0.156,-1.5840001,13.585951,-0.1232,-0.339075,0.6138
1692466512550,-0.01995,-1.5120001,13.215,-0.1078,-0.37895,0.687775
1692466512580,-0.034950003,-1.47405,13.006051,-0.1142625,-0.3735875,0.7354875
1692466512608,0.055050004,-1.4809501,13.04895,-0.094875,-0.3245,0.6831
1692466512636,-0.27195,-1.44105,13.01595,-0.066825,-0.2633125,0.5924875
1692466512664,-0.22605,-0.80205005,12.4459505,-0.025024999,-0.1588125,0.3683625
1692466512691,-0.22800002,-0.52905005,11.88105,-0.0067375,-0.1145375,0.266475
1692466512718,-0.34305,-0.46395,11.20905,0.0782375,-0.0319,0.1452
1692466512747,-0.58305,-0.63900006,12.315001,0.14135,-0.0034375,0.113437496
1692466512778,-0.372,-0.711,13.440001,0.2256375,0.0427625,0.08855
1692466512806,-0.15405001,-0.92595005,13.81095,0.235125,0.0672375,0.1087625
1692466512833,-0.102000006,-1.0339501,13.372951,0.228525,0.081125,0.134475
1692466512862,-0.504,-1.0030501,13.897051,0.175175,0.0482625,0.16115
1692466512890,-0.33405003,-1.1560501,15.199051,0.1357125,0.0185625,0.1700875
1692466512919,-0.26205,-1.3429501,16.09395,0.099275,0.0011,0.16335
1692466512946,-0.27195,-1.4620501,15.064951,0.0482625,0.002475,0.0752125
1692466512973,-0.46095002,-1.422,13.83195,0.026124999,0.0070125,0.0209
1692466513003,-0.669,-1.1029501,13.581,-0.0286,0.00495,-0.0187
1692466513028,-0.88905007,-0.38295,14.028001,-0.0518375,0.014712499,-0.03025
1692466513058,-1.593,-0.08595,12.693001,-0.0295625,0.07315,-0.147125
1692466513086,-1.38705,0.13305001,12.08205,0.0323125,0.121825,-0.2652375
1692466513115,-1.5139501,-0.00705,12.255,0.1122,0.18755,-0.4126375
1692466513142,-0.99405,-0.50505,12.18795,0.25025,0.32381248,-0.66522497
1692466513173,-0.975,-0.49305,12.027,0.2825625,0.35145,-0.684475
1692466513203,-1.4680501,-0.53805,12.592051,0.2453,0.3070375,-0.50215
1692466513232,-0.67095006,-0.90900004,9.63405,0.20185,0.26633748,-0.4019125
1692466513260,-0.16605,-0.22500001,8.590051,0.1189375,0.2151875,-0.2992
1692466513290,0.40695003,-0.069000006,8.17395,0.0716375,0.180675,-0.2091375
1692466513319,0.462,-0.105000004,7.5820503,0.0298375,0.1073875,-0.031075
1692466513346,-1.5880501,0.069000006,6.3019505,0.005225,-0.1524875,0.50888747
1692466513374,-1.19805,-0.17400001,4.815,0.0133375,-0.253275,0.7084
1692466513405,-0.25500003,-0.42105,3.5749502,0.024475,-0.249975,0.726825
1692466513432,-0.36705002,0.16395001,4.7959504,0.0391875,0.02365,0.2943875
1692466513463,-0.98700005,0.25095,4.8889503,0.012925,0.1375,0.08305
1692466513491,-0.36705002,0.16395001,5.4640503,0.02255,0.10725,0.1192125
1692466513519,-0.47700003,0.15,5.493,0.1346125,0.102575,0.0807125
1692466513547,-1.2270001,0.423,5.28,0.1802625,0.10505,0.027775
1692466513576,-0.52500004,0.92595005,5.7850504,0.2322375,0.10615,-0.1078
1692466513607,-0.77205,1.761,7.209,0.276925,0.1463,-0.213125
1692466513636,-1.4970001,0.231,7.8739505,0.35433748,0.1901625,-0.267025
1692466513663,-1.35105,0.17895001,9.282001,0.58685,0.204325,-0.1332375
1692466513697,-1.0489501,-0.15,10.60305,0.6073375,0.2233,-0.0955625
1692466513722,-0.79605,0.117000006,10.705951,0.4890875,0.258775,-0.1078
1692466513753,-1.3920001,0.64605004,10.13595,0.0605,0.2223375,0.036025
1692466513781,-0.906,1.1770501,9.40905,-0.1153625,0.064899996,0.2523125
1692466513809,-0.08505,1.31805,8.25,-0.0528,0.0188375,0.1926375
1692466513838,-0.47700003,1.5979501,8.44905,0.17435,-0.0587125,0.0011
1692466513865,-1.5330001,2.8240502,7.8910503,0.279675,-0.11825,-0.0246125
1692466513897,-0.65895003,2.3140502,8.109,0.3878875,-0.1612875,-0.049775
1692466513925,-0.68595004,1.66305,8.7960005,0.6862625,-0.0826375,-0.2607
1692466513954,-1.0180501,1.69395,8.398951,0.80575,-0.0339625,-0.3441625
1692466513982,-1.0180501,1.3729501,10.122001,0.7140375,-0.066275,-0.2960375
1692466514012,-0.81195,1.368,9.535951,0.580525,-0.0851125,-0.2651
1692466514042,-0.441,1.43295,8.99205,0.30621248,-0.0688875,-0.2783
1692466514070,-0.89400005,1.54305,9.555,0.186725,-0.0704,-0.2470875
1692466514099,-0.70995003,1.28505,9.33405,0.0996875,-0.08305,-0.1533125
1692466514128,-0.40305,0.51405,9.77505,0.0306625,-0.094875,0.0796125
1692466514156,-0.71400005,0.75600004,8.611951,0.0125124995,-0.089925,0.1390125
1692466514187,-1.29795,1.194,7.52505,-0.078375,-0.0873125,0.15455
1692466514216,-1.011,1.0639501,8.16195,-0.1287,-0.076175,0.102575
1692466514246,-0.81705004,0.76995003,8.03895,-0.1111,0.0215875,-0.138325
1692466514273,-0.85800004,0.66,6.249,-0.0803,0.0708125,-0.230175
1692466514303,-0.47505003,0.17400001,5.6790004,-0.102575,0.0704,-0.265925
1692466514332,-0.67800003,-0.23700002,6.189,-0.122375,0.0529375,-0.26345
1692466514368,-0.48000002,-0.65295005,6.7950006,-0.2039125,0.02915,-0.2303125
1692466514395,-0.91305006,-0.045,5.98605,-0.2960375,0.0099,-0.19745
1692466514423,-1.0570501,0.094950005,4.67205,-0.4640625,-0.0287375,-0.1051875
1692466514451,-0.49695003,-0.22005,5.208,-0.47134998,-0.0143,-0.105325
1692466514480,0.11505,0.040050004,5.00895,-0.4312,0.034375,-0.1700875
1692466514509,0.18195,-0.69600004,6.02895,-0.3612125,0.06435,-0.1958
1692466514537,-0.312,-0.79905003,8.004001,-0.51713747,-0.153175,0.1546875
1692466514568,-0.34305,-0.61200005,8.56095,-0.6292,-0.2497,0.2910875
1692466514600,-0.74100006,0.030000001,9.576,-0.6912125,-0.3169375,0.3815625
1692466514626,-0.49395,-0.804,11.06505,-0.6314,-0.3014,0.374825
1692466514653,0.11505,-1.39005,12.1710005,-0.5203,-0.26427498,0.3430625
1692466514686,0.50505,-1.8360001,13.096951,-0.3205125,-0.209825,0.30965
1692466514717,-0.51795,-1.1730001,12.829051,-0.4060375,-0.307725,0.5237375
1692466514746,-0.57795,-0.97395,13.02105,-0.4668125,-0.3691875,0.65793747
1692466514774,0.261,-1.35,14.055,-0.466125,-0.3713875,0.69905
1692466514803,0.52500004,-1.1370001,13.456051,-0.31501248,-0.233475,0.4571875
1692466514832,0.25605002,-0.66300005,12.84105,-0.23485,-0.193875,0.3075875
1692466514859,-0.04695,0.061950002,11.71605,-0.11715,-0.2182125,0.1797125
1692466514889,-0.07005,-0.43995002,12.18,-0.0411125,-0.22013749,0.1379125
1692466514919,0.9289501,-1.74495,13.794001,0.1304875,-0.1472625,-0.0427625
1692466514949,0.68295,-1.5460501,14.107051,0.1593625,-0.113025,-0.095699996
1692466514977,0.13905,-1.1700001,13.911,0.0457875,-0.135025,0.0611875
1692466515005,0.24705002,-1.6699501,14.824951,-0.029975,-0.1618375,0.156475
1692466515034,0.63195,-2.1079502,14.904,-0.1013375,-0.14533749,0.179025
1692466515062,0.333,-1.7569501,14.727,-0.1260875,-0.12485,0.209825
1692466515091,-0.17805001,-0.86895007,14.158051,-0.15785,-0.1183875,0.288475
1692466515122,-0.75000006,-0.31305,13.321951,-0.1720125,-0.0988625,0.3810125
1692466515147,-0.76005006,-0.261,12.372001,-0.1175625,-0.045375,0.2899875
1692466515177,-0.57105005,-1.0189501,13.35795,-0.0317625,0.0378125,0.1106875
1692466515205,0.26595002,-2.0410502,14.719951,0.125125,0.20019999,-0.2558875
1692466515238,0.51000005,-2.14395,14.529,0.0977625,0.2168375,-0.3100625
1692466515264,0.08895,-2.01,14.257951,0.0064625,0.14795,-0.1771
1692466515300,-0.51795,-1.47405,13.329,-0.16733749,-0.015125,0.1574375
1692466515329,-0.043950003,-1.4980501,13.432051,-0.1953875,-0.028324999,0.2041875
1692466515357,0.15105,-1.4929501,13.24995,-0.1838375,0.0072875,0.1544125
1692466515385,-0.022950001,-1.5840001,13.07295,-0.122237496,0.058575,0.0059125
1692466515414,-0.18495001,-1.59105,13.861051,-0.1010625,0.0356125,-0.0111375
1692466515444,-0.09195001,-1.182,11.65095,-0.07975,-0.013612499,0.017324999
1692466515471,0.47700003,-1.01505,9.68595,-0.07315,-0.0166375,0.0254375
1692466515501,0.31905,-0.85695004,8.382,-0.0592625,-0.01265,0.022824999
1692466515529,-0.94695,-0.75105006,4.9950004,-0.0224125,-0.019524999,-0.025024999
1692466515564,-0.68595004,-1.40205,6.0409503,-0.011,-0.03135,-0.059675
1692466515593,0.18,-2.0989501,6.6199503,-0.0372625,0.034649998,-0.122375
1692466515620,0.59205,-2.3380501,6.879,-0.183425,0.1508375,-0.1500125
1692466515654,-0.20505,-1.9549501,5.9760003,-0.3067625,0.1144,-0.069025
1692466515681,-0.03705,-1.62495,5.68695,-0.53473747,-0.0902,0.1841125
1692466515709,0.522,-1.2900001,6.34005,-0.5861625,-0.1304875,0.2024
1692466515741,0.75195,-1.302,7.3639503,-0.52442497,-0.0672375,0.016224999
1692466515767,-0.40995002,-0.73695004,6.6010504,-0.428175,-0.085525,-0.0493625
1692466515797,-0.44595003,-0.45705003,5.2510505,-0.3084125,-0.147675,-0.07095
1692466515824,-0.26205,-0.45195,5.9929504,-0.0451,-0.102025,-0.2536875
1692466515854,0.28800002,-0.76605004,6.2899504,0.0752125,0.0466125,-0.4459125
1692466515883,-0.88695,-0.864,5.68905,0.249425,0.2481875,-0.60307497
1692466515914,-0.68100005,-1.2280501,7.21605,0.287375,0.231825,-0.504075
1692466515942,1.5370501,-1.5079501,9.705001,0.246125,0.2591875,-0.4554
1692466515971,1.3600501,-0.84195006,9.411,0.1848,0.297275,-0.5017375
1692466515999,-0.10605001,0.23595001,8.214001,0.09075,-0.0479875,-0.039049998
1692466516030,-0.46995002,0.22395001,7.7590504,0.136675,-0.301125,0.2858625
1692466516064,-0.20505,-0.30600002,9.27495,0.4203375,-0.296175,0.2063875
1692466516089,0.31395,-0.79905003,11.3550005,0.5434,-0.1175625,-0.0188375
1692466516120,0.201,-1.0000501,11.635051,0.55962497,0.0991375,-0.1161875
1692466516151,0.261,-1.3399501,9.98295,0.46873748,0.074525,0.0262625
1692466516178,0.51705,-1.7329501,10.11495,0.3509,0.0067375,0.183425
1692466516206,0.46695003,-2.0080502,11.059951,0.10285,-0.0985875,0.354475
1692466516234,-0.38895002,-1.5480001,11.070001,-0.0323125,-0.14093749,0.4338125
1692466516269,-0.15195,-1.06005,10.309051,-0.251625,-0.187,0.5663625
1692466516296,0.058050003,-0.84195006,9.468,-0.2591875,-0.021724999,0.327525
1692466516326,-0.04695,-0.64605004,9.15495,-0.19525,0.0691625,0.133375
1692466516353,-0.12105001,-0.78195006,9.3820505,-0.031625,0.1111,-0.096525
1692466516382,0.24000001,-1.14405,9.5140505,0.0378125,0.103675,-0.1379125
1692466516413,0.23700002,-1.1770501,9.198001,0.08305,0.1005125,-0.1654125
1692466516442,0.31395,-1.0890001,8.37705,0.0705375,0.054725,-0.1458875
1692466516472,0.38295,-0.897,7.6639504,-0.0171875,-0.0408375,-0.0180125
1692466516500,0.16800001,-0.81795,7.1470504,-0.0484,-0.0796125,0.054175
1692466516529,0.25395,-0.40395,6.70905,-0.0639375,-0.10835,0.1232
1692466516557,-0.27195,-0.53295004,6.096,-0.0605,-0.1214125,0.1672
1692466516589,-0.279,-0.79200006,6.5119505,0.012375,-0.08965,0.120037496
1692466516612,0.043050002,-1.005,6.90495,0.0532125,-0.040975,0.050049998
1692466516644,0.21795002,-1.1149501,7.0750504,0.066,0.0253,-0.0281875
1692466516672,0.16095,-0.80205005,7.056,0.0028875,0.1057375,-0.117975
1692466516706,-0.573,-0.42105,6.4090505,-0.074525,0.0264,0.0188375
1692466516734,-0.15405001,-0.60300004,5.859,-0.072875,-6.875E-4,0.0814
1692466516763,0.120000005,-0.79395,6.4840503,0.011,0.106975,-0.0400125
1692466516789,0.24195,-0.92100006,6.57,0.045925,0.16499999,-0.1172875
1692466516816,0.055050004,-1.14405,6.4759502,0.0479875,0.1584,-0.105325
1692466516846,-0.441,-0.91200006,7.5919504,-0.025575,0.0166375,0.132825
1692466516875,-0.54705,-1.2040501,9.081,-0.0771375,-0.02915,0.2371875
1692466516902,-0.39600003,-1.62705,9.76305,-0.1452,0.0594,0.1511125
1692466516932,-0.312,-1.5439501,11.091001,-0.145475,0.1456125,0.027775
1692466516963,-0.372,-1.4599501,11.698951,-0.13915,0.1984125,-0.04235
1692466516991,-0.99195004,-1.23195,12.286051,-0.1351625,0.1676125,-0.0064625
1692466517017,-0.83400005,-1.5439501,12.717001,-0.06435,0.1285625,0.0207625
1692466517047,-0.33600003,-1.7350501,13.665001,-0.0088,0.152625,-0.0198
1692466517079,-0.72405005,-1.113,12.834001,0.0468875,0.1753125,-0.0254375
1692466517108,-1.26705,-0.507,11.92395,0.046475,0.1343375,0.060225
1692466517137,-1.0489501,-0.56205004,12.0730505,0.097075,0.0735625,0.1527625
1692466517165,-0.51795,-1.02705,12.934051,0.1607375,0.10395,0.0627
1692466517197,-0.85800004,-0.86100006,13.477951,0.2618,0.1623875,-0.1491875
1692466517225,-0.93705004,-0.81795,13.071001,0.2630375,0.1343375,-0.1412125
1692466517253,-0.68295,-0.91905004,13.902,0.2398,0.086075,-0.0653125
1692466517282,-0.56595004,-0.58605003,13.203001,0.188375,0.0133375,0.1530375
1692466517309,-0.528,-0.411,13.224001,0.173525,-0.013612499,0.2534125
1692466517340,-0.20205002,-0.78705,14.656051,0.166925,-0.0394625,0.324775
1692466517368,-0.85305005,-0.75795,15.502951,0.1632125,-0.0836,0.38953748
1692466517398,-1.2720001,-0.624,15.666,0.1401125,-0.1010625,0.413325
1692466517425,-1.3770001,-0.56700003,14.119051,0.125125,-0.078925,0.3806
1692466517455,-1.059,-0.8880001,14.301001,0.1137125,0.0358875,0.1901625
1692466517479,-0.98505,-1.43805,14.911951,0.1087625,0.091437496,0.0969375
1692466517510,-1.3990501,-1.39005,14.614951,0.0917125,0.1216875,0.0342375
1692466517541,-1.00395,-1.48905,14.778001,0.0031625,0.1183875,-0.059125
1692466517570,-0.669,-1.2060001,14.586,-0.0495,0.1079375,-0.105325
1692466517597,-0.537,-1.1389501,13.81095,-0.1153625,0.0675125,-0.056649998
1692466517628,-0.23295002,-1.04805,12.640051,-0.123475,0.025575,0.0353375
1692466517660,0.18495001,-1.0510501,12.573001,-0.0983125,-0.0655875,0.1563375
1692466517688,-0.14205001,-1.23705,12.360001,-0.0831875,-0.110825,0.18727499
1692466517718,-0.08505,-1.455,10.6390505,-0.0715,-0.2046,0.22893749
1692466517747,0.28305,-1.383,9.057,-0.0765875,-0.224125,0.20047499
1692466517779,-0.37395,-0.88095003,6.2250004,-0.1287,-0.2072125,0.097075
1692466517807,-0.21195,-1.041,6.4840503,-0.164725,-0.197725,0.0598125
1692466517836,-0.00795,-1.422,5.9670005,-0.18933749,-0.18053749,0.00935
1692466517864,1.3810501,-1.623,7.4670005,-0.2184875,-0.1115125,-0.1287
1692466517892,1.3219501,-1.338,7.52505,-0.2498375,-0.0983125,-0.1522125
1692466517918,-0.44400004,-0.30795002,7.0720506,-0.29205,-0.1417625,-0.083325
1692466517948,-1.7629501,0.31305,5.42595,-0.3125375,-0.3922875,0.30745
1692466517978,-0.46800002,-0.80595005,3.7170002,-0.17875,-0.1797125,-0.08085
1692466518009,1.6999501,-2.01495,5.5740004,-0.0859375,0.154275,-0.6303
1692466518039,0.74700004,-1.7539501,5.77995,0.011,0.4027375,-1.0456874
1692466518073,-1.128,-0.58905005,3.8890502,-0.1689875,0.1672,-0.71335
1692466518093,-1.1550001,-0.24105,4.74795,-0.36685,-0.1315875,-0.2853125
1692466518124,-0.51795,-0.63900006,7.0530005,-0.4156625,-0.103125,-0.2638625
1692466518155,-0.34305,-1.6660501,8.592,-0.0793375,0.4653,-0.9813375
1692466518182,-0.252,-1.48395,8.69505,0.05335,0.5424375,-1.07195
1692466518214,0.43395,-0.89505005,9.552,0.0301125,0.3383875,-0.7431875
1692466518241,0.75195,-0.57195,10.00905,-0.013062499,0.1874125,-0.4983
1692466518269,0.19395001,-0.024,8.51295,0.0088,0.023375,-0.2391125
1692466518299,-0.01995,0.15,8.923051,0.105325,-0.1307625,-0.0075625
1692466518326,-0.36705002,0.21495001,9.729,0.40713748,-0.25753748,0.1467125
1692466518361,0.216,-0.21300001,9.84405,0.594275,-0.15235,-0.013475
1692466518385,0.24705002,-0.43095002,10.1959505,0.6062375,-0.083875,-0.0617375
1692466518415,0.97905004,-1.12905,11.091001,0.5680125,-0.0523875,-0.0207625
1692466518443,1.25205,-1.4860501,11.236951,0.3620375,-0.1379125,0.2844875
1692466518481,0.32805002,-1.05495,10.345051,0.0686125,-0.32505,0.6314
1692466518507,0.10605001,-0.72300005,9.528001,-0.052525,-0.3883,0.7220125
1692466518532,-0.10395,-0.57705003,9.64095,-0.122925,-0.3848625,0.70661247
1692466518561,-0.010950001,-0.49005002,9.724951,-0.11495,-0.2008875,0.424325
1692466518589,0.043050002,-0.675,9.658051,-0.0721875,-0.091299996,0.249975
1692466518617,0.16095,-0.84000003,9.03495,0.0055,0.0507375,-0.03795
1692466518647,0.18705001,-1.01505,8.724,0.020624999,0.0792,-0.1192125
1692466518675,-0.030000001,-0.95205003,8.52105,0.014575,0.080575,-0.1266375
1692466518705,-0.18105,-0.88305,8.406,-0.0433125,0.0463375,0.004125
1692466518731,-0.09,-0.92595005,8.46105,-0.0760375,0.0444125,0.0364375
1692466518762,-0.16095,-0.77295005,8.08695,-0.108899996,0.0925375,-0.05335
1692466518793,-0.13695,-0.82800007,7.5820503,-0.10725,0.114125,-0.0897875
1692466518821,-0.27195,-0.79395,7.1130004,-0.0969375,0.1203125,-0.0746625
1692466518849,-0.19695,-0.73005,7.221,-0.072325,0.1131625,0.032175
1692466518879,-0.14205001,-0.88500005,7.2640505,-0.0715,0.1219625,0.072875
1692466518906,0.039,-0.99105006,6.7039504,-0.0748,0.124575,0.0710875
1692466518936,-0.0010500001,-0.91605,5.94495,-0.0807125,0.11715,0.070675
1692466518966,-0.28395,-0.64395005,5.4739504,-0.117975,0.07095,0.073699996
1692466518995,-0.17295001,-0.28905,5.57595,-0.1401125,0.0473,0.057475
1692466519024,-0.32700002,-0.60795003,6.4480505,-0.1340625,0.0628375,-0.03575
1692466519051,0.30405003,-1.24905,7.5079503,-0.1057375,0.09955,-0.0666875
1692466519081,0.30405003,-1.32105,7.9510503,-0.05555,0.0922625,0.029424999
1692466519114,0.08205,-1.4260501,8.96805,-0.0702625,0.0105875,0.146025
1692466519143,-0.123,-1.28295,9.54705,-0.1144,-0.0922625,0.2652375
1692466519171,-0.33105,-0.97395,9.583051,-0.180125,-0.1907125,0.3284875
1692466519198,-0.59895,-1.2589501,10.014001,-0.16115,-0.154275,0.246675
1692466519229,-0.14505,-2.082,11.833051,-0.060775,0.006325,0.004125
1692466519258,0.094050005,-1.8859501,12.622951,-0.0202125,0.1549625,-0.1973125
1692466519287,-0.9799501,-0.96405005,11.88405,-0.05335,0.15455,-0.1854875
1692466519316,-1.0159501,-0.96405005,11.979001,-0.0884125,0.104225,-0.091025
1692466519344,-0.13695,-1.45305,12.463051,-0.0089375,0.104225,-0.022275
1692466519374,-0.48000002,-1.4239501,12.310051,0.0790625,0.17173749,-0.08965
1692466519402,-0.62595004,-1.4430001,12.504001,0.13255,0.198275,-0.099
1692466519433,-0.14505,-1.2589501,12.286051,0.11,0.102575,0.0985875
1692466519462,-0.75495005,-0.70305,11.53695,0.067375,0.0320375,0.1593625
1692466519490,-0.67395,-0.62205005,11.802001,0.0697125,0.0154,0.1199
1692466519521,-0.537,-0.35895002,10.96695,0.14135,0.0279125,0.027775
1692466519549,-1.0489501,-0.0139500005,11.206051,0.19167499,0.0451,0.009075
1692466519578,-1.03995,0.022950001,11.665951,0.2726625,0.066825,0.0424875
1692466519609,-0.56805,-0.06705,12.184951,0.3111625,0.095699996,0.036849998
1692466519635,-0.39600003,-0.016050002,12.417001,0.3482875,0.136675,-0.0166375
1692466519665,-0.36705002,0.0139500005,12.53205,0.383625,0.157025,-0.1860375
1692466519693,-0.72405005,-0.28500003,13.252951,0.3768875,0.113025,-0.23127499
1692466519723,-0.15900001,-0.92805004,14.907001,0.3260125,0.011825,-0.1379125
1692466519752,0.10305001,-1.1509501,15.45495,0.2756875,-0.0155375,-0.0066
1692466519781,-0.777,-0.615,14.96205,0.1992375,-0.0435875,0.1665125
1692466519809,-2.2410002,0.34605002,13.308001,0.0100375,-0.1335125,0.5427125
1692466519848,-1.4320501,-0.15795001,14.031001,-0.01375,-0.044,0.380875
1692466519871,-0.76695,-0.81795,15.067051,0.0556875,0.095425,0.061325
1692466519899,-1.0900501,-0.72,14.811001,0.125125,0.2167,-0.20735
1692466519926,-2.2339501,-0.23400001,13.960951,0.11055,0.23375,-0.2006125
1692466519955,-1.38495,-0.41895002,14.517001,0.0165,0.17765,-0.0144375
1692466519984,-0.23595001,-0.92595005,14.112,0.018975,0.2112,-0.0840125
1692466520012,0.264,-0.76305,12.645,0.0363,0.23539999,-0.1991
1692466520042,-0.57600003,-0.54300004,11.7640505,-0.0075625,0.06875,-0.147125
1692466520070,-0.83205,-0.61200005,11.190001,-0.0567875,-0.0749375,0.015262499
1692466520103,-0.65895003,-0.061950002,9.01395,-0.0922625,-0.1892,0.133925
1692466520131,-0.45600003,0.03795,6.71295,-0.078925,-0.1478125,0.0284625
1692466520160,-0.18105,-0.60495,6.93795,-0.0100375,-0.043175,-0.2380125
1692466520185,-0.00795,-1.524,8.415,0.0292875,-0.0187,-0.302775
1692466520215,-0.42195,-1.6680001,8.458051,-0.018424999,-0.0375375,-0.2495625
1692466520245,-0.95895004,-0.94005007,6.9,-0.1340625,-0.072875,-0.137775
1692466520274,-0.34095,-0.67695004,5.9040003,-0.267575,-0.0963875,-0.0226875
1692466520304,-0.066,-0.45000002,5.36595,-0.3834875,-0.0160875,-0.04015
1692466520330,0.094050005,-0.48105,5.181,-0.3454,0.0374,-0.114125
1692466520358,0.62700003,-0.49305,4.42695,-0.21133749,-0.0166375,0.0072875
1692466520388,0.87600005,-0.42105,3.7429502,-0.1623875,-0.1078,0.1868625
1692466520416,0.53400004,-0.804,5.50005,-0.1203125,-0.36135,0.5319875
1692466520444,-0.32700002,-1.1200501,8.49195,-0.1199,-0.496375,0.6543625
1692466520476,-0.89400005,-0.56895,9.238951,-0.13213749,-0.57695,0.6994625
1692466520503,-0.384,-0.094950005,6.46395,-0.147675,-0.32793748,0.2578125
1692466520530,-0.19695,-0.31605002,4.9230003,-0.094875,-0.0603625,-0.159775
1692466520556,-0.537,-1.7899501,7.6210504,0.09075,0.2398,-0.71775
1692466520591,-0.25995,-2.3170502,11.971951,0.10945,0.2457125,-0.7899375
1692466520622,0.12705001,-1.58895,12.148951,-0.1362625,0.15565,-0.6345625
1692466520645,-0.54195005,-0.82305,9.63405,-0.285725,0.0847,-0.4499
1692466520680,-1.107,-0.055050004,9.31095,-0.296175,-0.022,-0.186175
1692466520706,-0.69495004,-0.27,9.208051,-0.1676125,0.011275,-0.2248125
1692466520732,-0.50895,-0.60495,9.564,1.375E-4,0.109725,-0.3531
1692466520761,-0.453,-1.01505,9.897,0.160875,0.2215125,-0.478775
1692466520790,0.027,-1.43595,10.086,0.298375,0.2712875,-0.454025
1692466520821,0.50505,-1.6320001,9.741,0.16335,0.1335125,-0.264
1692466520850,-0.066,-1.0819501,9.049951,0.0510125,0.0347875,-0.1661
1692466520878,-0.657,-0.58905005,8.50395,-0.0548625,-0.0804375,-0.036575
1692466520906,-0.31905,-0.74205005,9.49995,-0.14739999,-0.2171125,0.155375
1692466520933,-0.35295,-0.55005,9.430051,-0.1084875,-0.1777875,0.106425
1692466520963,-0.64005005,-0.49800003,8.889001,0.0391875,-0.02585,-0.1181125
1692466520992,-0.34305,-0.70605004,9.073951,0.0969375,0.0215875,-0.1865875
1692466521021,0.00795,-0.68700004,8.88195,0.16005,0.086625,-0.234025
1692466521049,-0.19305001,-0.59595,8.580001,0.159775,0.095837496,-0.21285
1692466521077,-0.36705002,-0.81405,8.676001,0.1131625,0.0237875,-0.0292875
1692466521107,-0.33900002,-0.91905004,8.281051,0.08855,-0.014712499,0.084975
1692466521140,-0.47295,-0.96405005,8.523001,0.034375,-0.01815,0.2162875
1692466521166,-0.44895002,-0.88095003,7.8030005,-0.002475,-0.001375,0.233475
1692466521196,-0.006,-0.82800007,7.4050503,-0.0671,0.03355,0.20955
1692466521221,0.18705001,-0.72,6.6180005,-0.084425,0.04015,0.1821875
1692466521255,-0.09900001,-0.423,6.40005,-0.0933625,0.021175,0.168025
1692466521282,-0.68100005,-0.36105,6.1459503,-0.0891,-0.087175,0.2138125
1692466521310,-1.164,-0.50505,5.94,-0.0669625,-0.11165,0.2057
1692466521339,-0.36195,-1.302,7.3450503,-6.875E-4,0.0576125,-0.058025
1692466521368,0.45000002,-1.3780501,8.33205,0.001375,0.1926375,-0.22659999
1692466521396,-0.01995,-0.94305,8.133,-0.0444125,0.2569875,-0.2908125
1692466521427,-0.71400005,-0.32295,7.2040505,-0.20047499,0.0724625,-0.0154
1692466521455,-0.15705001,-0.30105,7.3410006,-0.20735,-0.0380875,0.1353
1692466521484,0.063,-0.402,8.535001,-0.012375,-0.01265,0.0969375
1692466521513,-0.16605,-0.19800001,9.234,0.10065,0.0185625,0.0515625
1692466521540,-0.351,-0.12705001,9.18105,0.22385,-0.0803,0.1442375
1692466521572,-0.16905001,-0.16005,9.739051,0.2624875,-0.1258125,0.1420375
1692466521598,-0.11595,-0.27705002,10.663051,0.3287625,-0.0941875,-0.0655875
1692466521626,-0.56595004,-0.109950006,10.363951,0.33715,-0.07205,-0.1238875
1692466521654,-0.87000006,-0.16005,11.14605,0.3234,-0.0680625,-0.099825
1692466521683,-0.78105,-0.69900006,12.37905,0.2699125,-0.0281875,-0.03575
1692466521712,-0.66195005,-0.555,12.934051,0.243375,0.031625,-0.083325
1692466521739,-0.28395,-0.63405,13.059001,0.1555125,0.1288375,-0.1936
1692466521767,-0.48195,-0.19095,11.908051,0.0979,0.126775,-0.1463
1692466521797,-0.71895003,0.076050006,11.89305,0.0281875,0.0430375,0.1093125
1692466521824,-0.726,0.18105,12.396001,0.03575,0.0105875,0.1568875
1692466521854,-0.74505,0.07395,12.994051,0.0691625,0.00605,0.1271875
1692466521882,-0.36495003,0.19305001,13.315051,0.1494625,0.036575,0.1610125
1692466521913,-0.28095,0.47100002,13.437,0.167475,0.043725,0.2695
1692466521939,-0.46800002,0.957,13.462951,0.1714625,0.005225,0.4907375
1692466521970,-0.12105001,0.76305,14.268001,0.18493749,-0.0331375,0.569525
1692466521998,-0.384,0.63405,14.698951,0.247775,-0.0829125,0.6172375
1692466522027,-0.90105003,0.411,15.879001,0.2677125,-0.08965,0.5999125
1692466522055,-0.657,0.21000001,15.627001,0.2393875,-0.0704,0.4327125
1692466522084,-1.04505,0.11895001,15.346951,0.1969,-0.040425,0.2952125
1692466522117,-1.2409501,-0.61695004,16.36005,0.0897875,0.023924999,0.0573375
1692466522145,-1.7170501,-0.837,15.936001,0.0341,0.0537625,-0.0561
1692466522174,-1.2430501,-1.3450501,16.71195,-0.028875,0.088275,-0.1700875
1692466522201,-0.71205,-1.16805,14.77305,-0.17407499,0.158125,-0.308
1692466522227,-0.49395,-0.342,13.246051,-0.2426875,0.1700875,-0.2959
1692466522255,-0.44895002,0.0139500005,12.882001,-0.2949375,0.1519375,-0.2443375
1692466522285,-0.12795001,-0.124050006,13.006051,-0.276375,0.054175,-0.1661
1692466522314,0.36405003,-0.98100007,12.918,-0.2019875,0.004125,-0.15619999
1692466522346,1.1010001,-1.3279501,11.818951,-0.1199,-0.042075,-0.1376375
1692466522375,1.434,-0.95205003,7.9249506,-0.0671,-0.1579875,-0.004675
1692466522404,0.29505002,-0.00705,6.13395,-0.1788875,-0.3408625,0.25245
1692466522434,-0.216,-0.38505003,6.5509505,-0.2094125,-0.452375,0.3004375
1692466522461,-0.19500001,-0.933,6.16305,-0.1626625,-0.4131875,0.1494625
1692466522490,-0.43395,-0.93600005,4.8460503,-0.1145375,-0.31515,-0.087725
1692466522519,0.21300001,-1.503,5.4090004,-0.1384625,-0.074525,-0.5286875
1692466522548,0.24195,-1.13205,5.5410004,-0.20845,0.013612499,-0.6285125
1692466522578,-0.054,-0.73695004,4.59495,-0.29741248,0.054175,-0.6235625
1692466522605,0.19695,-0.55995005,3.7189503,-0.4387625,0.0048125,-0.398475
1692466522633,0.65895003,-0.76605004,5.1790504,-0.4379375,-0.0199375,-0.306625
1692466522660,0.43605003,-0.38295,6.1150503,-0.33673748,-0.0361625,-0.2990625
1692466522691,-1.78005,0.093,7.1010003,-0.2789875,-0.0946,-0.2789875
1692466522716,-1.6189501,0.57105005,8.382,-0.10175,-0.1353,-0.28861248
1692466522748,-0.19305001,0.42105,9.01395,0.0556875,0.0853875,-0.568975
1692466522779,-0.89595,-0.20595,6.03105,0.447425,0.6039,-1.1446875
1692466522808,-1.18095,-0.73005,6.984,0.5682875,0.6268625,-1.0907875
1692466522836,1.04205,-1.335,11.857051,0.5808,0.5484875,-0.9021375
1692466522862,1.11105,-0.78195006,10.929001,0.2935625,0.3317875,-0.516175
1692466522890,-0.16905001,0.12105001,8.42205,0.0713625,0.1062875,-0.2110625
1692466522919,-1.15995,0.75600004,7.4599504,-0.094875,-0.171875,0.1777875
1692466522948,-0.67095006,0.60195005,8.997001,-0.052525,-0.3810125,0.5537125
1692466522977,0.28005,0.09,10.10805,0.2831125,-0.0099,0.0719125
1692466523004,0.48900002,-0.30105,10.467001,0.399575,0.132,-0.136125
1692466523034,0.35700002,-0.49500003,9.66195,0.3565375,0.0298375,0.036025
1692466523067,0.39495003,-0.57405,9.40095,0.24145,-0.0985875,0.26427498
1692466523096,0.381,-0.62895006,9.397051,0.1208625,-0.1918125,0.4252875
1692466523122,0.216,-0.26805001,9.064051,-0.053625,-0.2539625,0.5039375
1692466523154,-0.135,0.061950002,8.784,-0.09955,-0.251075,0.5066875
1692466523181,-0.38205,-0.08595,9.327001,-0.094325,-0.191125,0.46667498
1692466523209,-0.09,-0.43800002,10.09095,-0.045375,-0.1230625,0.4164875
1692466523237,-0.06795,-0.35895002,9.96405,0.006875,-0.0422125,0.3639625
1692466523266,-0.62100005,-0.07395,9.196051,0.024475,0.062975,0.2789875
1692466523297,-0.45795003,-0.08805001,9.09,-0.00715,0.105875,0.1698125
1692466523324,-0.26700002,-0.27,9.009001,6.875E-4,0.1419,0.0771375
1692466523357,-0.48705003,-0.29895002,8.63805,0.0235125,0.18287499,-0.04895
1692466523387,-0.54705,-0.51900005,7.6090503,0.01485,0.16775,-0.0279125
1692466523417,-0.37395,-0.675,6.972,-0.0064625,0.15015,0.026675
1692466523449,-0.13695,-0.67005,7.7119503,-0.0710875,0.1530375,0.090475
1692466523479,-0.53505003,-0.36795002,6.5479503,-0.160875,0.127875,0.064899996
1692466523505,-0.64005005,-0.22005,6.16305,-0.1934625,0.0903375,0.065725
1692466523532,-0.61905,0.04695,6.216,-0.1991,0.06545,0.0710875
1692466523566,-0.52500004,0.033,5.7390003,-0.1057375,0.109037496,0.0345125
1692466523593,-0.38205,-0.16005,5.77995,-0.0240625,0.150975,-0.005775
1692466523620,-0.010950001,-0.40395,7.5700502,0.1038125,0.1860375,-0.0614625
1692466523649,0.02205,-0.186,8.286,0.1159125,0.1643125,-0.0353375
1692466523683,-0.72195005,0.162,5.94705,0.0482625,0.033,0.152075
1692466523711,-0.60195005,-0.246,6.9889503,0.0336875,-0.0281875,0.2085875
1692466523740,-0.123,-0.76095,9.880051,0.103125,0.0114124995,0.0246125
1692466523767,-0.78405005,-0.105000004,10.699051,0.11165,0.060225,-0.0682
1692466523795,-1.4440501,0.82995003,10.243951,-0.005775,0.0158125,0.106975
1692466523831,-0.46500003,0.57405,9.897,-0.0231,-0.00825,0.2105125
1692466523845,-0.15900001,0.52095,10.111951,0.051975,0.0292875,0.1881
1692466523880,-0.76695,0.423,11.86005,0.28985,0.124025,0.014162499
1692466523911,-1.212,0.39195,12.219001,0.3342625,0.09625,0.0199375
1692466523943,-0.92505,0.37500003,11.701951,0.2924625,0.03795,0.0592625
1692466523975,-0.20505,-0.040050004,12.20205,0.212575,0.0848375,-0.0059125
1692466524000,-0.33600003,0.13095,11.967001,0.1595,0.080025,0.043175
1692466524026,-1.5690001,0.897,12.814951,0.0928125,0.0320375,0.18053749
1692466524054,-1.7479501,0.70500004,13.411051,0.0320375,-0.0301125,0.3408625
1692466524083,-1.4760001,0.67200005,12.931951,0.031625,-0.00275,0.3465
1692466524112,-1.02795,0.85095006,12.963,0.0792,0.0873125,0.1821875
1692466524141,-1.437,1.8139501,13.81305,0.136675,0.1859,-0.0369875
1692466524169,-1.9660501,2.295,14.79705,0.1483625,0.1698125,0.0039875
1692466524201,-1.7320501,1.81095,14.770051,0.245025,0.130075,0.199375
1692466524228,-0.3,0.94200003,16.507952,0.3245,0.14093749,0.2215125
1692466524256,0.20895001,0.90900004,16.95795,0.37867498,0.1577125,0.1931875
1692466524292,-0.87495005,1.47405,14.707951,0.2787125,0.0572,0.34045
1692466524324,-0.92505,0.67005,14.131051,0.069299996,-0.1538625,0.6524375
1692466524354,-1.0210501,-0.13095,14.454,0.0416625,-0.1863125,0.60225
1692466524386,-0.86805004,-0.711,15.268051,0.0088,-0.1337875,0.2605625
1692466524419,-1.2049501,-0.36105,13.861051,-0.1904375,-0.0655875,0.0864875
1692466524439,-0.97305006,-0.069000006,12.670951,-0.29975,-0.0441375,0.0708125
1692466524474,0.21300001,-0.57195,12.21195,-0.365475,-0.027775,0.0539
1692466524502,0.453,-1.17495,13.143001,-0.375375,-0.01485,0.0193875
1692466524527,-1.3750501,-0.93600005,13.815001,-0.3372875,-0.0584375,0.0664125
1692466524557,-1.9260001,-0.33,11.89305,-0.4013625,-0.1529,0.2745875
1692466524588,-0.52500004,-0.61995006,10.323001,-0.4191,-0.109725,0.2211
1692466524619,0.37905002,-0.56700003,7.7710505,-0.32615,0.09185,-0.145475
1692466524647,-0.075,-0.21795002,6.2970004,-0.271975,0.1170125,-0.2118875
1692466524676,-1.69305,0.009000001,6.57495,-0.2426875,0.058849998,-0.1359875
1692466524703,-1.75995,-0.01905,5.9040003,-0.179025,-0.0562375,0.002475
1692466524733,-1.47105,-0.057000004,6.0700502,-0.107525,0.02475,-0.1797125
1692466524762,-1.3440001,-0.09105001,7.209,0.0518375,0.336325,-0.84865
1692466524793,-0.48195,0.081,5.56395,0.104637496,0.4371125,-1.0789624
1692466524820,0.71595,-0.37800002,5.7730503,0.1293875,0.4483875,-1.0025125
1692466524849,0.71400005,-0.36105,6.56295,0.097075,0.34485,-0.686675
1692466524879,0.273,-0.01905,4.9900503,-0.039875,-0.098725,0.223575
1692466524906,-0.22395001,-0.025950002,4.2840004,-0.0974875,-0.3364625,0.5775
1692466524936,0.47400004,-0.591,6.2800503,-0.089925,-0.5121875,0.677325
1692466524966,0.32805002,-0.62205005,9.04695,-0.0603625,-0.473,0.5168625
1692466524993,-1.46595,0.29595003,8.69505,-0.0589875,-0.433675,0.368225
1692466525025,-2.079,0.25095,7.932,-0.0974875,-0.3843125,0.2316875
1692466525053,0.18,-0.54495,9.75105,-0.0462,-0.2308625,0.0306625
1692466525081,1.113,-0.22005,9.889951,0.12979999,0.22605,-0.5911125
1692466525111,0.177,0.89205,8.001,0.1233375,0.25135,-0.617925
1692466525144,-0.66195005,1.05495,7.4599504,0.034925,-0.1475375,-0.0086624995
1692466525172,-0.36,0.51405,8.652,0.1153625,-0.2809125,0.20253749
1692466525201,-0.11400001,0.27195,9.562051,0.263725,-0.26221249,0.1940125
1692466525230,-0.36195,0.55695003,9.555,0.42845,-0.0603625,-0.0083875
1692466525259,-0.57105005,1.014,8.595,0.28985,-0.0482625,0.0889625
1692466525286,0.08205,0.66195005,8.590051,0.2303125,-0.055825,0.1060125
1692466525317,0.37605003,0.025950002,9.50205,0.231,-0.033,0.0323125
1692466525345,0.060000002,-0.18195,10.207951,0.2600125,-0.01925,-0.0457875
1692466525374,-0.72900003,-0.025950002,10.075951,0.1863125,-0.069025,0.0748
1692466525403,-0.26205,-0.17400001,10.641001,-0.0501875,-0.1299375,0.242825
1692466525432,-0.015000001,0.025950002,10.45005,-0.1288375,-0.091575,0.1706375
1692466525461,-0.19500001,0.21000001,9.897,-0.1926375,-0.00495,-0.027775
1692466525491,-0.24300002,0.39900002,9.4129505,-0.1907125,-0.004125,-0.070675
1692466525521,-0.45795003,0.14505,8.475,-0.1254,-0.020624999,-0.0638
1692466525550,-0.231,-0.57705003,10.177051,-0.0760375,-0.0105875,-0.0807125
1692466525579,0.11505,-0.88500005,10.675051,-0.0336875,0.0286,-0.1461625
1692466525608,0.010050001,-0.56205004,10.134001,-0.0803,0.033,-0.097075
1692466525636,-0.24000001,-0.19605,9.715051,-0.237325,-0.0265375,0.111375
1692466525667,-0.41295,0.054,9.22395,-0.27335,-0.0556875,0.1478125
1692466525695,-0.21195,0.057000004,9.18105,-0.25905,-0.0556875,0.1073875
1692466525723,-0.19695,-0.0139500005,8.81505,-0.1299375,0.006875,-0.0548625
1692466525754,-0.16095,-0.08595,8.31,-0.0616,0.03135,-0.100375
1692466525782,0.14895001,-0.23700002,8.2240505,0.0075625,0.032449998,-0.1106875
1692466525811,-0.13305001,-0.36105,8.466001,0.011825,0.0196625,-0.1034
1692466525840,0.097950004,-0.54300004,8.54895,-0.0171875,-0.0295625,-0.094325
1692466525868,-0.018000001,-0.45195,7.3960505,-0.0463375,-0.055275,-0.0842875
1692466525898,-0.018000001,-0.58095,6.8089504,-0.1167375,-0.073975,-0.055825
1692466525925,0.26805001,-0.84195006,7.9459505,-0.1450625,-0.0697125,-0.0548625
1692466525957,0.079050004,-0.768,7.5510006,-0.1923625,-0.0650375,-0.0297
1692466525991,-0.50100005,-0.52905005,6.1699505,-0.2239875,-0.0782375,0.0287375
1692466526017,-0.15900001,-0.85395,5.6269503,-0.2644125,-0.069025,0.115637496
1692466526045,0.50505,-1.314,6.5820003,-0.2594625,-0.0176,0.079475
1692466526072,0.65895003,-1.33305,7.66095,-0.2600125,0.0336875,0.03135
1692466526100,0.097950004,-1.1200501,7.4890504,-0.290125,0.0308,0.0562375
1692466526132,-0.23295002,-0.89295006,6.66795,-0.4035625,-0.1672,0.374825
1692466526161,-0.43005002,-0.69600004,7.4989505,-0.3917375,-0.20487499,0.4109875
1692466526191,-0.71205,-0.63600004,9.33405,-0.3312375,-0.1120625,0.2789875
1692466526220,-1.1740501,-0.18900001,9.92805,-0.1574375,0.0952875,0.0455125
1692466526250,-0.59505004,-0.67695004,10.342051,-0.0506,0.20185,-0.0925375
1692466526286,-0.16095,-0.72705,10.77105,0.1714625,0.390775,-0.4742375
1692466526314,0.072000004,-0.66795003,11.173051,0.2299,0.4063125,-0.5869875
1692466526343,-0.042000003,-0.52605003,11.89095,0.198275,0.22935,-0.3938
1692466526366,-0.27195,-0.51000005,12.1710005,0.1681625,0.097625,-0.1936
1692466526394,-0.15195,-0.47100002,11.53905,0.150975,-0.0787875,0.052249998
1692466526423,-0.59205,-0.028050002,11.26095,0.1508375,-0.10285,0.099825
1692466526451,-0.72405005,0.34605002,10.97595,0.152625,-0.0961125,0.1194875
1692466526480,-0.9990001,0.22695,12.694951,0.208175,-0.0155375,0.0144375
1692466526510,-1.09305,0.21495001,13.344001,0.2641375,0.0460625,-0.0801625
1692466526538,-1.0639501,0.41295,11.955001,0.3383875,0.1563375,-0.145475
1692466526566,-0.81495005,0.21705002,12.04905,0.337425,0.188375,-0.1243
1692466526596,0.29700002,-0.37305,14.689051,0.3012625,0.1962125,-0.132
1692466526626,-0.37905002,0.33705002,14.194051,0.26633748,0.157025,-0.122237496
1692466526655,-1.31505,0.72495,13.49205,0.2077625,0.072325,-0.0279125
1692466526683,-0.70500004,0.45195,15.373951,0.1104125,-0.090475,0.2145
1692466526719,0.13005,0.102000006,16.434,0.1689875,-0.015125,0.1296625
1692466526750,-1.0879501,0.52605003,14.6320505,0.1871375,0.016224999,0.1120625
1692466526776,-1.1380501,0.21495001,14.086051,0.170225,-0.001375,0.1500125
1692466526805,-0.63795,-0.98100007,14.433001,0.11275,-0.0268125,0.120175
1692466526836,-0.70995003,-1.7490001,14.682001,0.0224125,0.0386375,-0.026124999
1692466526867,-0.91800004,-1.65795,16.00305,-0.0801625,0.045925,-0.031075
1692466526897,-0.96795005,-1.21305,15.31095,-0.3245,0.0243375,0.0584375
1692466526937,-1.00905,-0.22695,12.372001,-0.4065875,0.0325875,0.0804375
1692466526963,-0.18495001,-0.55695003,12.25905,-0.3598375,0.0545875,0.0158125
1692466526988,0.43605003,-1.31595,13.06095,-0.27445,0.0787875,-0.0859375
1692466527018,-0.11400001,-1.5289501,13.453951,-0.1876875,0.0785125,-0.1632125
1692466527049,-1.8079501,-0.77805007,11.71905,-0.14465,-0.0477125,-0.089237496
1692466527074,-1.4419501,-0.67905,10.28205,-0.17655,-0.1043625,-0.0468875
1692466527104,-0.09195001,-1.2970501,7.8220506,-0.18205,-0.0044,-0.274175
1692466527134,0.48600003,-1.146,6.0000005,-0.137225,0.1291125,-0.4230875
1692466527168,-0.50595003,-0.531,5.3179502,-0.164725,0.08965,-0.2627625
1692466527196,-1.7509501,0.25500003,5.3869505,-0.2512125,-0.0691625,0.1549625
1692466527224,-1.18095,0.294,4.42995,-0.224675,-0.0561,0.1557875
1692466527252,0.99600005,-1.1080501,6.0859504,-0.1249875,0.0594,-0.0317625
1692466527281,1.10895,-1.539,6.9259505,0.117837496,0.2850375,-0.429
1692466527307,0.21105,-1.01205,5.64795,0.1057375,0.171875,-0.2979625
1692466527338,-0.62805,-0.045,4.4950504,-0.0182875,-0.0826375,0.0309375
1692466527362,-0.36195,-0.16005,3.867,-0.245575,-0.3938,0.363275
1692466527394,0.34305,-1.0390501,5.5740004,-0.2102375,-0.2913625,0.1606
1692466527422,0.34305,-1.0390501,5.5740004,-0.2102375,-0.2913625,0.1606
1692466527452,-0.23595001,-1.13205,8.985001,-0.066,-0.015125,-0.1959375
1692466527478,0.29205,-1.5169501,9.624001,-0.143825,-0.0048125,-0.1573
1692466527509,0.39795002,-0.82305,10.275001,-0.213125,0.0974875,-0.1992375
1692466527537,0.52005005,-0.28905,9.688951,-0.2101,0.0246125,-0.0510125
1692466527566,-0.18495001,0.30795002,7.9840503,-0.1379125,-0.2806375,0.4310625
1692466527596,-0.20505,0.13095,7.46295,0.147675,-0.35805,0.485375
1692466527627,-0.786,-0.23400001,9.33405,0.2993375,-0.2853125,0.3381125
1692466527652,-1.28205,0.105000004,10.167001,0.402875,-0.17655,0.140525
1692466527682,-0.70500004,0.53805,9.303,0.4412375,0.0661375,-0.2831125
1692466527713,0.04095,0.53805,8.44905,0.4288625,0.1920875,-0.46254998
1692466527742,0.33105,0.078,8.752951,0.4607625,0.29645,-0.52415
1692466527778,-0.16905001,-0.62205005,10.543051,0.456775,0.102575,-0.206525
1692466527806,-0.10395,-0.70095,10.972051,0.3840375,-0.0158125,-0.0094875
1692466527833,-0.33405003,-0.08805001,10.210951,0.2657875,-0.0897875,0.1464375
1692466527862,-0.44595003,0.46095002,9.63405,0.0334125,-0.101475,0.2479125
1692466527890,-0.42195,0.62895006,9.45705,-0.0083875,-0.071225,0.20047499
1692466527923,-0.57600003,0.693,9.330001,0.08525,0.014575,-0.03025
1692466527946,-0.453,0.43305,9.427951,0.1755875,0.05335,-0.14533749
1692466527978,-0.058050003,-0.20805001,10.31805,0.293425,0.0944625,-0.234025
1692466528006,-0.10395,-0.097950004,10.066951,0.2778875,0.0903375,-0.20927499
1692466528033,-0.27405003,0.042000003,9.648001,0.211475,0.0658625,-0.147125
1692466528063,-0.29505002,0.16395001,9.550051,0.0416625,-0.0066,-0.0154
1692466528094,-0.64500004,0.354,9.40095,-0.0053625,-0.02475,-0.007975
1692466528122,-0.56595004,0.36105,9.366,-0.0053625,-0.010175,-0.0785125
1692466528151,-0.51795,0.31005,9.22395,0.0213125,0.015125,-0.11
1692466528180,-0.48000002,0.15,9.543,0.0730125,0.070125,-0.145475
1692466528209,-0.34095,0.0,9.571051,0.0823625,0.082775,-0.1777875
1692466528239,-0.44895002,0.03795,9.294001,0.0512875,0.0666875,-0.2264625
1692466528268,-0.453,0.034950003,9.1050005,0.01705,0.0473,-0.1689875
1692466528298,-0.39600003,0.025950002,8.950951,-0.037125,0.024475,-0.01485
1692466528327,-0.29295,-0.03795,8.929951,-0.0482625,0.0231,-0.009075
1692466528357,-0.3,-0.052050002,8.36295,-0.0573375,0.018975,-0.054725
1692466528386,-0.36705002,-0.057000004,7.5150003,-0.062425,0.0116875,-0.052525
1692466528414,-0.22395001,-0.08295,7.1389503,-0.069299996,0.003575,-0.01595
1692466528443,-0.24000001,-0.10005,7.31895,-0.0752125,5.5E-4,0.0504625
1692466528472,-0.50595003,0.009000001,7.1659503,-0.0768625,0.0044,0.1450625
1692466528500,-0.43695003,0.23400001,7.1179504,-0.0726,-0.0015125,0.08305
1692466528532,-0.47295,0.53295004,6.53595,-0.0600875,0.0089375,0.0254375
1692466528558,-0.74295,0.55695003,6.2370005,0.02145,0.0517,-0.076175
1692466528589,-0.33900002,0.25095,6.498,0.0886875,0.071225,-0.1051875
1692466528616,-0.19305001,0.14295001,6.6319504,0.1555125,0.0917125,-0.129525
1692466528652,-0.3,0.27495003,6.70905,0.2055625,0.1038125,-0.1714625
1692466528677,-0.39405003,0.34395,5.81295,0.14135,0.0336875,-0.1012
1692466528702,-0.32700002,0.27705002,6.5479503,0.113437496,0.0064625,-0.0543125
1692466528730,0.079050004,0.363,8.31495,0.1018875,1.375E-4,-0.03355
1692466528761,-0.81195,0.42495003,9.403951,0.0991375,-0.0182875,0.0353375
1692466528793,-0.32700002,0.117000006,10.41195,0.08855,-0.0529375,0.148775
1692466528817,0.01905,-0.20805001,11.002951,0.0705375,-0.0804375,0.275275
1692466528847,-0.09,-0.32295,11.922001,0.0023375,-0.0829125,0.3870625
1692466528877,-0.83205,0.20295002,11.527051,-0.1485,-0.1332375,0.43353748
1692466528907,-0.882,0.531,11.677951,-0.209825,-0.1502875,0.43285
1692466528937,-0.79305005,0.63405,12.20205,-0.1618375,-0.0506,0.219725
1692466528966,-0.90300006,0.59295005,12.154051,-0.072325,0.0254375,0.0715
1692466529001,-0.20205002,0.22200002,13.38195,0.0803,0.1010625,-0.0650375
1692466529027,-0.252,0.15195,13.416,0.104225,0.09735,-0.022824999
1692466529057,-0.71205,0.47295,12.690001,0.091299996,0.0682,0.0730125
1692466529087,-0.59505004,0.906,12.645,0.0226875,-0.01045,0.1607375
1692466529115,-0.80100006,1.2060001,12.898951,0.0132,-0.0187,0.07975
1692466529144,-0.88005006,1.3090501,13.722001,0.089375,0.022275,-0.1403875
1692466529175,-1.3080001,1.35405,13.722001,0.2014375,0.0644875,-0.1876875
1692466529203,-0.99195004,0.98505,13.45905,0.2365,0.087725,-0.122237496
1692466529231,0.055050004,0.58305,14.18595,0.2509375,0.1159125,-0.0386375
1692466529259,0.29700002,0.55695003,15.14595,0.2013,0.11935,0.0760375
1692466529291,-0.33405003,1.01205,14.794051,0.130075,0.0496375,0.159225
1692466529319,-0.49905002,0.72900003,15.040951,0.050325,-0.0493625,0.2737625
1692466529347,-0.83205,-0.021000002,16.04595,-0.0265375,-0.157575,0.36025
1692466529376,-0.70500004,-1.0890001,16.417051,-0.064075,-0.10505,0.172425
1692466529406,-0.717,-1.146,16.03395,-0.13475,-0.06325,0.077
1692466529437,-0.76905006,-1.1179501,15.015,-0.238425,-0.0284625,0.0243375
1692466529463,-0.52995,-0.70605004,12.325951,-0.423225,0.00825,0.0187
1692466529492,-0.39795002,-1.21605,12.39105,-0.4560875,0.016224999,0.0067375
1692466529523,-0.010950001,-1.5510001,12.637951,-0.4162125,0.01595,-0.0814
1692466529553,-0.85305005,-0.75795,11.88105,-0.388025,-0.016224999,-0.0845625
1692466529582,-1.2,-0.56895,10.79895,-0.3938,-0.0361625,-0.013475
1692466529611,-0.65505004,-0.94305,9.52095,-0.3788125,-0.033,0.038775
1692466529638,0.22095,-1.28505,8.14995,-0.3301375,0.010175,0.0092124995
1692466529665,-0.40305,-0.873,6.3420005,-0.2187625,0.1164625,-0.1769625
1692466529699,-1.026,-0.37095,4.65705,-0.2057,0.1120625,-0.2083125
1692466529727,-0.64005005,-0.624,3.8869503,-0.2063875,0.0955625,-0.27115
1692466529757,0.29205,-1.23,5.24595,-0.13475,0.2380125,-0.5468375
1692466529784,0.25905,-1.419,7.93905,-0.1271875,0.2734875,-0.5960625
1692466529812,-1.0900501,-0.684,7.3450503,-0.1788875,0.2112,-0.4789125
1692466529842,-0.42195,-0.66495,5.30595,-0.3432,-0.07315,0.021175
1692466529872,1.3219501,-1.2780001,5.3560505,-0.3419625,-0.1007875,0.1027125
1692466529901,0.9480001,-1.2280501,6.73005,-0.2828375,-0.0361625,0.04235
1692466529929,-1.3300501,-0.84000003,7.4719505,-0.2396625,-0.1302125,0.1929125
1692466529958,-0.86805004,-0.39000002,7.8480005,-0.2866875,-0.4214375,0.5416125
1692466529987,-0.74100006,-0.57405,6.63,-0.2162875,-0.306075,0.3315125
1692466530017,-1.66005,-0.85695004,6.8209505,0.038225,0.16005,-0.41085
1692466530042,-0.21195,-1.2060001,9.234,0.1128875,0.3056625,-0.6037625
1692466530069,0.87900007,-1.125,11.7640505,0.12155,0.3829375,-0.6617875
1692466530097,-0.12795001,-0.06705,9.603001,0.0897875,0.3711125,-0.6032125
1692466530127,-1.107,0.57600003,6.912,0.056925,1.375E-4,-0.1346125
1692466530156,-1.047,0.018000001,8.904,0.2388375,-0.1813625,0.026675
1692466530187,-0.81195,-0.177,9.871051,0.3669875,-0.0592625,-0.1516625
1692466530216,-0.62805,-0.12900001,10.191001,0.4569125,0.0946,-0.351175
1692466530244,0.16305001,-0.10695001,9.942,0.4659875,0.22385,-0.44907498
1692466530273,0.48105,-0.47400004,9.765,0.3559875,0.06655,-0.0704
1692466530300,0.441,-0.61995006,9.745951,0.3559875,0.06655,-0.0704
1692466530327,0.45795003,-0.80205005,9.80805,0.20845,-0.2212375,0.451825
1692466530356,0.32805002,-0.62700003,9.885,0.02585,-0.4008125,0.7238
1692466530383,-0.034950003,-0.36105,10.266001,-0.0517,-0.4257,0.7783875
1692466530415,-0.027,-0.33195,10.321051,-0.0961125,-0.416075,0.802175
1692466530444,-0.13305001,0.022950001,9.66495,-0.0719125,-0.3045625,0.661925
1692466530473,-0.312,0.14295001,9.121051,-0.02585,-0.2234375,0.4835875
1692466530500,-0.20205002,-0.112050004,9.46395,0.0792,-0.07865,0.077825
1692466530531,-0.03195,-0.42600003,9.648001,0.1285625,-0.0207625,-0.0754875
1692466530559,-0.26700002,-0.49005002,9.448951,0.1618375,0.0455125,-0.1791625
1692466530593,-0.47505003,-0.39495003,9.33405,0.1255375,0.0490875,-0.1659625
1692466530618,-0.54195005,-0.40905002,9.49695,0.0683375,0.0473,-0.161975
1692466530647,-0.48495004,-0.51195,9.700951,-0.0215875,0.0792,-0.20899999
1692466530676,-0.46800002,-0.42600003,9.20505,-0.040425,0.10725,-0.214225
1692466530705,-0.53505003,-0.35205,8.67405,-0.0562375,0.1381875,-0.1557875
1692466530734,-0.46305,-0.45195,8.62605,-0.059125,0.139425,-0.1238875
1692466530763,-0.23595001,-0.462,8.2879505,-0.05335,0.13585,-0.1095875
1692466530797,-0.39405003,-0.15300001,7.55805,-0.05115,0.128975,-0.10835
1692466530825,-0.62100005,0.117000006,6.6460505,-0.0460625,0.0878625,-0.0358875
1692466530861,-0.25695002,-0.055050004,6.70095,0.014575,0.07975,0.0198
1692466530885,-0.492,0.025950002,6.13395,0.0616,0.094325,-0.0075625
1692466530913,-0.47295,-0.07395,6.249,0.0985875,0.0979,-0.0433125
1692466530938,0.076950006,-0.43305,7.0530005,0.1203125,0.0752125,-0.0735625
1692466530971,0.12495001,-0.33705002,7.9339504,0.1078,0.06655,-0.0752125
1692466530997,-0.69495004,-0.064050004,7.1059504,0.074525,0.0380875,-0.0419375
1692466531025,-0.52995,-0.54795,7.1899505,-0.0187,-0.095837496,0.1469875
1692466531053,0.513,-1.0860001,8.500951,-0.0411125,-0.113437496,0.1601875
1692466531081,0.031050002,-0.78705,9.18105,-0.09075,-0.059675,0.080025
1692466531108,-1.27695,0.052050002,7.1610003,-0.1667875,-0.114125,0.2074875
1692466531139,-0.67800003,0.076050006,7.2379503,-0.2501125,-0.2123,0.4236375
1692466531165,0.52695,-0.40905002,8.844001,-0.1687125,-0.0955625,0.228525
1692466531195,0.333,-0.61995006,9.885,-0.0438625,0.067375,-0.0394625
1692466531224,-1.452,0.11400001,10.858951,0.0705375,0.067925,0.017875
1692466531256,-0.99000007,0.112050004,10.701,0.0554125,-0.0746625,0.2767875
1692466531285,0.058050003,-0.11505,11.338051,0.1034,0.0204875,0.094325
1692466531314,-0.147,-0.08805001,11.70705,0.1705,0.1452,-0.1445125
1692466531342,-0.64305,0.010950001,11.352,0.215875,0.1456125,-0.1736625
1692466531371,-0.73605,0.076050006,11.509951,0.1918125,0.0617375,9.625E-4
1692466531397,-0.31695002,-0.26295,12.424951,0.1643125,0.00825,0.14575
1692466531430,-0.62295,-0.040050004,11.838,0.13145,0.02475,0.1329625
1692466531458,-0.64695,0.282,11.09895,0.10505,0.0295625,0.0793375
1692466531487,-0.87000006,0.45600003,10.92405,0.0507375,0.0023375,0.1153625
1692466531516,-0.77400005,0.034950003,11.829,0.0991375,0.025575,0.0935
1692466531545,-0.66195005,-0.08595,12.51105,0.1381875,0.0466125,0.02365
1692466531574,-0.36,0.72495,12.58005,0.153175,0.0631125,-0.0418
1692466531602,-0.42705002,0.93000007,13.819951,0.115775,0.058025,-0.047575
1692466531631,-1.3270501,0.61200005,15.262951,0.1155,0.027775,0.023375
1692466531663,-0.96795005,0.27,16.956001,0.1830125,-0.022824999,0.084975
1692466531693,-0.42195,0.19095,16.839,0.198,-0.0044,0.00275
1692466531720,0.043050002,0.66,15.687,0.122375,0.0441375,-0.11605
1692466531750,-1.023,0.79200006,15.771001,0.0644875,0.0149875,-0.0523875
1692466531779,-1.5469501,-0.47595003,16.924952,0.022275,-0.0853875,0.1211375
1692466531807,-1.3770001,-1.644,18.028051,0.0297,-0.0812625,0.1043625
1692466531838,-1.3770001,-1.644,18.028051,0.0297,-0.0812625,0.1043625
1692466531865,-1.03005,-1.64205,15.382951,-0.214225,0.078099996,-0.1802625
1692466531896,0.24195,-1.4599501,11.938951,-0.4285875,0.10505,-0.2921875
1692466531921,0.16305001,-1.2780001,11.371051,-0.4626875,0.0842875,-0.28985
1692466531951,0.20400001,-1.28295,11.87205,-0.4654375,0.02915,-0.229075
1692466531981,0.60105,-1.95105,11.5990505,-0.4192375,-0.130625,-0.0435875
1692466532006,0.81405,-2.2690501,9.523951,-0.385275,-0.1890625,4.125E-4
1692466532039,0.24000001,-1.74195,7.7119503,-0.385,-0.2776125,0.08855
1692466532067,-1.7359501,-0.42600003,6.5820003,-0.4246,-0.319825,0.188375
1692466532096,-1.6720501,-0.36600003,6.5869503,-0.45374998,-0.3240875,0.2402125
1692466532125,-0.65205,-0.86595005,6.2800503,-0.3427875,-0.03795,-0.163625
1692466532153,0.82395005,-1.572,6.0019503,-0.21779999,0.2017125,-0.51425
1692466532184,1.03695,-1.52205,5.1049504,-0.0969375,0.364375,-0.735075
1692466532211,0.39795002,-1.0390501,4.4370003,-0.1549625,0.2061125,-0.5093
1692466532242,-0.65895003,-0.081,4.329,-0.335775,-0.2470875,0.1491875
1692466532272,-0.13995,-0.18195,6.02895,-0.3449875,-0.3345375,0.2820125
1692466532298,0.58695,-0.87795,6.3829503,-0.121275,-0.1252625,-0.053625
1692466532329,0.26595002,-1.1530501,7.45095,0.018975,-0.0198,-0.237325
1692466532356,-0.09,-1.09095,9.30105,0.0919875,-0.0276375,-0.253275
1692466532385,-0.84105,-0.055050004,7.0150504,0.0413875,-0.1782,-0.0628375
1692466532416,-1.18605,0.066,6.6510005,0.0517,-0.0237875,-0.2498375
1692466532444,-0.549,-0.76095,8.50605,0.141625,0.1456125,-0.4483875
1692466532473,0.38805002,-0.77805007,9.946951,0.24475,0.298375,-0.627825
1692466532503,0.71400005,0.124050006,8.69505,0.30085,0.3524125,-0.6868125
1692466532532,0.015000001,0.79200006,6.6850505,0.2486,-0.014025,-0.1447875
1692466532561,-0.58500004,0.94995004,7.1130004,0.2957625,-0.1989625,0.137775
1692466532591,-0.46305,0.59505004,8.84595,0.39545,-0.27445,0.25753748
1692466532619,-0.46305,0.363,10.390051,0.5995,-0.1051875,0.033825
1692466532648,-0.09900001,0.09,9.97095,0.6323625,0.017875,-0.1131625
1692466532678,0.74205005,-0.43095002,10.452001,0.523325,0.1183875,-0.1505625
1692466532708,1.1179501,-0.80595005,10.510051,0.4101625,0.085525,-0.0477125
1692466532737,0.91005003,-0.81105006,10.053,0.2706,-0.01045,0.141625
1692466532765,0.26805001,-0.53295004,10.143001,-0.0323125,-0.29755,0.6593125
1692466532793,-0.025050001,-0.294,9.99495,-0.1439625,-0.3906375,0.832425
1692466532821,-0.44895002,0.14805001,9.672001,-0.2124375,-0.3397625,0.762025
1692466532853,-0.549,0.26700002,9.579,-0.17545,-0.2228875,0.5652625
1692466532876,-0.054,-0.057000004,9.954,-0.0207625,0.0452375,0.11935
1692466532908,0.108,-0.13905,9.8560505,0.054725,0.1417625,-0.0356125
1692466532936,-0.066,0.14805001,9.16395,0.100925,0.1865875,-0.113575
1692466532967,-0.31905,0.20295002,9.258,0.1093125,0.14135,-0.0779625
1692466533002,-0.123,0.018000001,9.564,0.109037496,0.0842875,-0.0188375
1692466533029,-0.16095,0.0019500001,9.922951,0.1145375,0.0792,-0.0438625
1692466533057,-0.27195,0.078,9.568951,0.111925,0.0792,-0.0864875
1692466533085,-0.33105,0.081,9.406051,0.0818125,0.07645,-0.1266375
1692466533113,-0.252,-0.036000002,9.38895,0.06765,0.078099996,-0.110275
1692466533142,-0.35295,-0.057000004,9.306001,0.05115,0.0906125,-0.052249998
1692466533171,-0.324,-0.12195001,9.05895,0.0389125,0.0947375,-0.0202125
1692466533202,-0.31905,-0.094950005,8.785951,0.0039875,0.09625,-0.013612499
1692466533230,-0.28395,-0.13605,8.30805,-0.01045,0.094325,-0.0650375
1692466533260,-0.37005,-0.10695001,7.9099503,-0.0257125,0.083875,-0.1478125
1692466533290,-0.39405003,0.042000003,7.2709503,-0.0309375,0.0798875,-0.13365
1692466533325,-0.50100005,0.27,6.9649506,-0.0389125,0.08855,-0.0895125
1692466533353,-0.74805003,0.52605003,6.735,-0.028875,0.09955,-0.100375
1692466533378,-0.86505,0.47100002,5.9809504,0.056649998,0.139425,-0.16115
1692466533404,-0.39795002,-0.13395001,7.1280003,0.1249875,0.1780625,-0.19195
1692466533433,-0.03705,-0.49800003,7.9560003,0.1837,0.22165,-0.2132625
1692466533462,-0.20700002,-0.036000002,7.7070003,0.14739999,0.2195875,-0.14025
1692466533489,-0.52500004,0.43695003,6.7639503,0.0529375,0.1397,-0.0292875
1692466533518,-0.573,0.40905002,6.19605,-0.0477125,-0.0262625,0.10725
1692466533548,-0.21195,-0.16005,7.5420003,-0.003575,-0.0320375,0.056925
1692466533579,-0.33600003,-0.48105,7.73295,0.0903375,0.02365,0.0081124995
1692466533608,-0.34095,-0.37995002,7.5460505,0.050325,0.0193875,0.0699875
1692466533636,0.12705001,-0.124050006,7.7710505,-0.0418,2.75E-4,0.13213749
1692466533665,-0.55395,0.55005,7.6900506,-0.2047375,-0.03135,0.2432375
1692466533694,-1.2940501,0.363,8.973001,-0.21175,-0.0605,0.340175
1692466533724,-0.79800004,-0.30600002,10.60095,-0.058025,-0.0460625,0.3469125
1692466533751,0.108,-0.70305,11.45505,0.0356125,0.053075,0.17613749
1692466533789,-0.56595004,-0.14295001,11.836051,0.0177375,0.164175,-0.041249998
1692466533813,-1.30095,0.24105,11.54895,-0.164175,-0.0416625,0.2209625
1692466533843,-1.15695,0.064050004,11.866951,-0.177375,-0.1027125,0.3144625
1692466533873,-0.78105,-0.21495001,13.107,-0.1255375,-0.0671,0.2633125
1692466533903,-1.0830001,-0.20595,13.614,0.0017875,0.097075,0.0202125
1692466533932,-1.4970001,0.246,12.336,0.014025,0.12155,0.01485
1692466533962,-1.2030001,0.21000001,12.835951,-0.00385,0.1232,0.0985875
1692466533991,-1.047,0.42495003,12.255,0.011275,0.1403875,0.1071125
1692466534021,-1.1190001,0.49695003,12.148951,0.0402875,0.1544125,0.11385
1692466534048,-1.94895,1.1050501,12.39105,0.1005125,0.1384625,0.1406625
1692466534076,-1.31505,0.933,13.240951,0.213125,0.1640375,0.010175
1692466534106,-0.966,1.17495,13.641001,0.2831125,0.1915375,-0.1181125
1692466534136,-0.702,1.04805,14.304001,0.3317875,0.189475,-0.20955
1692466534165,-0.69495004,0.88305,14.766001,0.332475,0.078925,-0.11
1692466534193,-0.82395005,0.78000003,15.199051,0.2454375,-0.0625625,0.20075
1692466534223,-0.88005006,0.33705002,15.723001,0.188925,-0.1111,0.3067625
1692466534250,-0.85605,-0.22005,16.084951,0.1326875,-0.1375,0.347875
1692466534281,-1.6620001,-0.933,17.20005,0.004125,-0.139425,0.3227125
1692466534309,-1.47105,-1.1179501,17.383951,-0.0886875,-0.121,0.3092375
1692466534340,-1.5619501,-0.79905003,16.04895,-0.3025,-0.0429,0.2481875
1692466534370,-1.2,-0.70605004,14.50695,-0.37454998,-0.0,0.1816375
1692466534398,-0.039,-1.4239501,13.897051,-0.40315,0.0484,0.0383625
1692466534424,-0.73800004,-1.4479501,13.380001,-0.39325,0.034925,0.01815
1692466534455,-1.128,-1.4650501,12.4129505,-0.40301248,-0.0611875,0.1034
1692466534484,-0.50895,-1.608,10.705951,-0.410575,-0.08525,0.09405
1692466534512,-0.67395,-1.0699501,9.552,-0.40645,-0.0716375,-0.0
1692466534542,-1.5330001,-0.10695001,7.2829504,-0.378125,-0.0108624995,-0.2726625
1692466534572,-1.00395,0.18405001,5.15805,-0.3433375,0.01925,-0.4241875
1692466534601,0.177,-0.71505004,4.90605,-0.2706,0.075075,-0.6254875
1692466534630,0.72300005,-2.0059502,8.34105,-0.0567875,0.2256375,-0.968825
1692466534659,0.027,-1.36395,7.4890504,-0.1060125,0.05995,-0.5644375
1692466534686,-0.04695,-0.48105,5.9160004,-0.2618,-0.1450625,-0.1419
1692466534715,0.56805,-0.29205,4.32,-0.3898125,-0.3075875,0.19305
1692466534750,0.68505,0.11400001,3.1639502,-0.34485,-0.353925,0.2893
1692466534787,-0.38895002,0.59505004,3.69705,-0.110275,-0.3634125,0.22605
1692466534814,-0.20505,0.33900002,5.6119504,0.0165,-0.3851375,0.2105125
1692466534841,0.024,-0.43800002,8.608951,0.29067498,-0.25135,-0.0567875
1692466534869,0.40500003,-0.21300001,6.6199503,0.3982,-0.1266375,-0.23265
1692466534896,0.14895001,0.49500003,3.13995,0.446325,-0.0457875,-0.31295
1692466534929,-1.1719501,-1.3230001,7.83405,0.3757875,-0.1078,-0.07755
1692466534957,0.108,-1.2199501,12.829051,0.24585,-0.0713625,0.0572
1692466534985,1.18005,-0.8880001,10.878,0.125125,0.0779625,-0.071225
1692466535012,-0.50595003,0.68895006,8.32905,-0.032449998,0.16499999,-0.1243
1692466535043,-1.7340001,1.57395,8.17395,-0.1395625,-0.0543125,0.2674375
1692466535072,-0.64500004,0.79200006,8.868,0.0202125,-0.08965,0.2806375
1692466535101,-0.64995,0.30600002,10.440001,0.26895,0.0429,0.003025
1692466535129,-0.37005,0.34905002,10.785001,0.631125,0.3554375,-0.6021125
1692466535160,-0.01995,0.44700003,10.290001,0.507375,0.27445,-0.4587
1692466535194,0.29700002,0.23595001,10.026,0.3832125,0.18205,-0.2671625
1692466535213,0.32295,0.21495001,10.17195,0.28435,0.0903375,-0.088825
1692466535248,0.14205001,0.40395,9.99495,0.1434125,-0.103675,0.1859
1692466535277,-0.372,1.143,9.17595,0.0908875,-0.1868625,0.2998875
1692466535310,-0.41295,1.2540001,9.354,0.06215,-0.2435125,0.4043875
1692466535332,-0.33105,1.3300501,9.4470005,0.11275,-0.2047375,0.3157
1692466535358,-0.31500003,1.3399501,9.282001,0.295625,-0.07095,-0.0287375
1692466535383,-0.25695002,1.2580501,9.00405,0.3647875,-0.0243375,-0.1604625
1692466535410,-0.36705002,1.2030001,9.283951,0.3993,0.001375,-0.2233
1692466535439,-0.058050003,0.97605,9.427951,0.39214998,0.022275,-0.19085
1692466535466,-0.18300001,0.933,9.436951,0.3576375,0.0224125,-0.1381875
1692466535493,-0.231,0.80100006,9.354,0.3026375,0.0144375,-0.0672375
1692466535521,-0.025050001,0.81105006,9.28695,0.16225,-0.0039875,0.104225
1692466535549,-0.384,0.98295003,9.14295,0.1005125,-0.0042625,0.160325
1692466535576,-0.46800002,0.96900004,9.366,0.027775,-0.00825,0.0851125
1692466535603,-0.25005,0.64995,9.552,0.0215875,-0.0088,-0.0416625
1692466535631,-0.21900001,0.41805002,9.330001,0.0242,-0.0017875,-0.168575
1692466535664,-0.52005005,0.53805,8.974951,-0.018424999,0.0092124995,-0.2446125
1692466535693,-0.68595004,0.33900002,9.114,-0.06325,0.0081124995,-0.198
1692466535722,-0.51600003,0.07095,9.10005,-0.126775,0.045925,-0.1331
1692466535754,-0.37695003,0.010950001,8.21205,-0.1489125,0.085525,-0.140525
1692466535774,-0.54195005,0.21705002,7.221,-0.1794375,0.11495,-0.1436875
1692466535806,-0.61605,0.48000002,5.787,-0.247775,0.1067,-0.1258125
1692466535837,-0.753,0.61395,4.80795,-0.2077625,0.105325,-0.1843875
1692466535869,-0.31905,0.68100005,5.0280004,-0.1373625,0.1282875,-0.2209625
1692466535896,-0.21405001,0.23595001,6.084,-0.0539,0.154825,-0.2437875
1692466535922,0.075,-0.21300001,7.6210504,0.075625,0.158675,-0.1951125
1692466535951,0.156,-0.00405,7.9410005,0.0727375,0.1164625,-0.07645
1692466535978,-0.43395,0.69795,7.4890504,0.0077,0.0460625,0.0864875
1692466536005,-0.28395,0.64305,6.3619504,-0.1596375,-0.122925,0.2800875
1692466536031,0.34305,0.08505,6.1249504,-0.1524875,-0.15619999,0.2088625
1692466536061,0.642,-0.624,8.67105,-0.005225,-0.1203125,-0.0573375
1692466536089,0.73305005,-0.9979501,10.94505,0.003025,-0.1489125,-0.044825
1692466536119,0.39795002,-0.23400001,9.81795,-0.2556125,-0.3312375,0.324225
1692466536146,0.028950002,-0.25095,9.592951,-0.414425,-0.400675,0.50985
1692466536171,-0.40605003,-0.25305,9.67905,-0.4890875,-0.4107125,0.6029375
1692466536199,-0.77400005,-0.59805006,10.893001,-0.3958625,-0.2638625,0.4477
1692466536228,-0.564,-1.1029501,12.192,-0.3229875,-0.1368125,0.2278375
1692466536257,-0.25500003,-0.66300005,11.10105,-0.2827,0.125125,-0.2338875
1692466536283,-0.15705001,-0.40905002,10.825951,-0.3102,0.1978625,-0.3422375
1692466536312,-0.18495001,-0.68205005,11.194051,-0.323675,0.2101,-0.348975
1692466536336,0.31605002,-1.2610501,12.57495,-0.2391125,0.13475,-0.2704625
1692466536366,0.34995002,-1.39005,12.528001,-0.1931875,0.087175,-0.24585
1692466536395,0.12705001,-1.02195,12.267,-0.187,0.0303875,-0.18535
1692466536420,0.64395005,-1.0720501,13.066051,-0.24915,-0.0988625,0.087725
1692466536449,0.3,-0.77805007,12.373951,-0.25575,-0.144925,0.203775
1692466536478,-0.20895001,-0.109950006,11.118001,-0.18727499,-0.2028125,0.309375
1692466536507,-0.123,-0.060000002,11.60805,-0.127875,-0.2006125,0.3003
1692466536535,0.08400001,-0.39195,12.54405,0.034375,-0.09405,0.1104125
1692466536562,0.112950005,-0.45000002,13.168951,0.1056,-0.0350625,0.011275
1692466536590,-0.24495001,-0.031050002,13.096951,0.14355,-0.0028875,-0.024475
1692466536617,-0.48900002,0.021000002,13.960951,0.150425,0.0070125,-0.0072875
1692466536652,0.37395,-0.74205005,15.679951,0.1643125,0.0495,0.0094875
1692466536675,0.63495004,-1.3039501,16.89105,0.1643125,0.0495,0.0094875
1692466536703,0.91695005,-1.59105,17.17395,0.143275,0.0444125,0.1467125
1692466536729,0.21105,-1.0339501,16.105951,0.0743875,-0.0088,0.29535
1692466536760,-0.92505,-0.68205005,15.132001,-0.0906125,-0.1282875,0.478225
1692466536789,-1.23405,-1.113,16.11795,-0.1252625,-0.122925,0.3801875
1692466536816,-1.34595,-1.9120501,16.261951,-0.0994125,0.069575,-0.1123375
1692466536849,-0.59895,-2.532,15.667951,-0.0895125,0.191125,-0.333575
1692466536876,0.14895001,-2.5849502,15.328051,-0.1775125,0.3133625,-0.5163125
1692466536905,0.75900006,-2.3449502,13.024951,-0.2597375,0.28985,-0.482075
1692466536932,0.52005005,-1.35195,11.701951,-0.3328875,0.211475,-0.3689125
1692466536962,-1.03995,-0.76995003,11.709001,-0.3887125,-0.010175,-0.10505
1692466536989,-0.89595,-0.294,10.078951,-0.3542,-0.08415,-0.0801625
1692466537016,0.010050001,-0.46905002,9.229051,-0.162525,-0.0331375,-0.308
1692466537045,0.61095005,-0.99300003,7.37895,-0.045925,0.0617375,-0.4797375
1692466537073,1.22595,-1.8379501,6.5719504,0.044825,0.124025,-0.578875
1692466537101,1.764,-2.3689501,6.43305,0.0375375,0.001925,-0.336875
1692466537128,0.73995006,-1.6560001,6.09105,-0.0760375,-0.158675,-0.041525
1692466537160,-0.35805002,-0.76305,5.4619503,-0.3647875,-0.5005,0.5803875
1692466537180,0.031050002,-0.45000002,4.887,-0.4415125,-0.56374997,0.69135
1692466537213,0.864,-0.25605002,3.5130002,-0.4343625,-0.488675,0.558525
1692466537243,0.74205005,-0.21495001,2.6230502,-0.2347125,-0.1909875,0.0697125
1692466537272,1.008,-0.68895006,3.31395,-0.11825,-0.18095,0.0556875
1692466537302,0.52695,-0.46905002,5.88495,0.0279125,-0.3982,0.352825
1692466537329,-0.86805004,0.04695,6.6319504,0.0512875,-0.485925,0.4257
1692466537358,-0.68295,0.33195,6.6340504,0.1188,-0.341825,0.0961125
1692466537388,-0.44595003,-0.18900001,6.2299504,0.211475,-0.0389125,-0.3293125
1692466537418,-0.078,-1.7689501,7.077,0.4225375,0.58341247,-1.119525
1692466537447,2.43,-2.118,10.500001,0.421575,0.6936875,-1.243275
1692466537476,0.90000004,-0.60795003,10.290001,0.0210375,0.4241875,-0.7382375
1692466537505,-0.44400004,0.08295,8.69295,-0.1896125,0.086625,-0.1434125
1692466537533,-0.59205,-0.44505003,9.66705,-0.2256375,-0.2121625,0.391875
1692466537562,0.22095,-1.3470001,11.326051,0.0818125,-0.16555,0.3738625
1692466537590,-0.34800002,-0.69405,10.821,0.2041875,0.0501875,0.039049998
1692466537624,-0.41805002,0.028050002,10.143001,0.168025,0.24805,-0.2910875
1692466537653,0.63900006,-0.19800001,9.85095,0.1329625,0.2552,-0.32175
1692466537682,0.76905006,-0.462,9.0709505,0.22659999,0.2393875,-0.3114375
1692466537710,0.38805002,-0.62895006,9.59805,0.2748625,0.1546875,-0.2022625
1692466537743,0.06705,-0.61995006,10.290001,0.2413125,-0.0845625,0.07975
1692466537760,0.18705001,-0.66,10.783051,0.18645,-0.14245,0.1551
1692466537794,0.26805001,-0.58905005,10.194,0.129525,-0.1397,0.17379999
1692466537823,0.23295002,-0.33195,9.777,0.0493625,-0.0639375,0.16115
1692466537851,0.25905,-0.32295,9.574051,0.0350625,-0.0444125,0.1837
1692466537883,0.381,-0.55305004,9.672001,0.0561,-0.038225,0.2388375
1692466537915,0.15795001,-0.62700003,9.67905,0.0771375,-0.0418,0.2684
1692466537943,0.120000005,-0.555,9.59805,0.0771375,-0.0418,0.2684
1692466537969,0.10605001,-0.47805002,9.399,0.036575,-0.0438625,0.2761
1692466538005,-0.20505,-0.34695002,9.82995,0.0056375,-0.0031625,0.1879625
1692466538032,-0.20205002,-0.35895002,10.00695,0.0061875,0.02365,0.136675
1692466538066,-0.16605,-0.23205002,9.45705,0.0301125,0.0840125,0.1144
1692466538093,-0.09900001,-0.22500001,9.20505,0.0466125,0.1153625,0.13213749
1692466538121,-0.11100001,-0.124050006,9.045,0.0752125,0.1472625,0.0790625
1692466538149,-0.043950003,-0.47400004,9.271951,0.0884125,0.1423125,0.0262625
1692466538179,-0.08505,-0.55305004,9.49695,0.0968,0.105325,0.0210375
1692466538208,-0.21900001,-0.42600003,9.057,0.0759,0.084975,0.04675
1692466538237,-0.25995,0.009000001,7.7310004,0.041525,0.0697125,0.057475
1692466538266,-0.48495004,0.291,6.8500504,0.0067375,0.0748,-0.021724999
1692466538294,-0.027,-0.0019500001,7.6759505,0.033,0.096525,-0.0972125
1692466538324,-0.063,0.141,8.025001,0.1364,0.1496,-0.171325
1692466538349,-0.65205,0.32205,7.3090506,0.1716,0.1461625,-0.1084875
1692466538381,-0.38205,-0.060000002,7.03695,0.18535,0.0895125,0.045649998
1692466538410,0.09105001,-0.22905001,7.7520003,0.1925,0.0999625,0.0088
1692466538437,0.003,-0.00405,8.2240505,0.16499999,0.13805,-0.118525
1692466538467,-0.46800002,0.28905,6.8910003,0.106837496,0.0862125,-0.0594
1692466538497,-0.44895002,0.39705002,5.9950504,0.03355,-0.033825,0.1282875
1692466538525,-0.36705002,0.16905001,7.08195,0.065725,-0.0127875,0.1057375
1692466538557,-0.573,0.21705002,7.6399503,0.1188,0.0451,0.0202125
1692466538585,-0.72195005,-0.016050002,7.9560003,0.169125,0.1313125,-0.141075
1692466538616,-0.058050003,-0.39705002,8.248051,0.1205875,0.17215,-0.2556125
1692466538641,-0.32700002,-0.246,8.38395,0.070675,0.1736625,-0.28215
1692466538671,-0.60705,-0.34905002,8.691,0.006875,0.1392875,-0.240625
1692466538702,-0.34800002,-0.97200006,9.745951,-0.1189375,0.0298375,-0.007425
1692466538730,0.14205001,-1.4650501,10.744051,-0.1694,0.0138875,0.0697125
1692466538761,-0.22605,-1.09095,11.190001,-0.3221625,-0.025575,0.1518
1692466538791,-1.18095,-0.13395001,10.057051,-0.41635,-0.0968,0.256575
1692466538821,-0.69000006,0.033,9.933001,-0.465025,-0.15853749,0.36355
1692466538850,-0.003,-0.651,11.23305,-0.3051125,-0.07645,0.2459875
1692466538878,-0.549,-0.76305,11.491051,-0.06325,0.0375375,0.021175
1692466538906,-0.54405004,-0.67695004,11.653951,-0.028875,0.011275,0.0422125
1692466538938,0.003,-0.49995002,11.295,-0.047025,-0.0306625,0.09405
1692466538966,-0.09900001,-0.615,11.623051,-0.047575,-0.0295625,0.092675
1692466538994,-0.53205,-0.294,11.580001,-0.0383625,-0.042625,0.1189375
1692466539024,-0.84105,0.064050004,11.601001,-0.0144375,-0.0859375,0.250525
1692466539051,-0.47700003,-0.06705,12.183001,0.0103124995,-0.0735625,0.291775
1692466539081,-0.55200005,0.16695,12.183001,0.107525,0.0199375,0.2795375
1692466539110,-0.60705,0.16395001,11.838,0.153725,0.0548625,0.2501125
1692466539146,-0.564,0.38895002,12.609,0.2017125,0.0658625,0.1522125
1692466539176,0.26805001,0.47595003,13.248001,0.2127125,0.06435,0.09845
1692466539204,0.34305,0.354,13.767,0.2286625,0.0389125,0.061049998
1692466539234,-0.006,0.14505,14.754001,0.2336125,-0.0149875,0.15015
1692466539263,-0.62595004,0.15,15.27105,0.210925,-0.15235,0.4368375
1692466539292,-0.73095006,0.009000001,15.331051,0.1821875,-0.1716,0.48014998
1692466539322,-0.69495004,-0.31095,15.658051,0.1491875,-0.14025,0.43725
1692466539352,-0.76695,-0.92805004,16.245,0.0803,-0.013612499,0.2336125
1692466539381,-1.8030001,-1.386,17.44395,-0.02915,0.0638,-0.00715
1692466539411,-1.83,-1.0000501,16.639952,-0.1087625,0.0939125,-0.110825
1692466539441,-1.09695,-0.34005,13.19505,-0.24475,0.2028125,-0.3353625
1692466539472,-0.69495004,-0.109950006,11.946,-0.2589125,0.257675,-0.4439875
1692466539502,-0.23595001,-1.0339501,13.282051,-0.173525,0.25795,-0.490875
1692466539529,-0.087000005,-1.5820501,13.468051,-0.12045,0.1956625,-0.4027375
1692466539565,-0.57795,-1.572,12.37695,-0.1199,0.01375,-0.1208625
1692466539591,-0.13305001,-2.154,11.89095,-0.16885,-0.058025,-0.0501875
1692466539620,0.61605,-2.8290002,11.06295,-0.2761,-0.0903375,-0.1953875
1692466539650,0.28995,-2.15205,8.29605,-0.34155,-0.095699996,-0.263175
1692466539680,-0.46500003,-1.51005,7.0150504,-0.512325,-0.1991,-0.1010625
1692466539709,1.302,-2.18505,7.1040006,-0.5682875,-0.247775,0.041525
1692466539740,0.86205006,-0.91905004,5.92395,-0.57585,-0.2822875,0.2800875
1692466539770,-0.34305,0.342,5.184,-0.5555,-0.3403125,0.4283125
1692466539800,-0.81195,0.87795,4.0470004,-0.39214998,-0.4719,0.5874
1692466539827,-0.24000001,1.1839501,1.641,-0.2024,-0.3938,0.3876125
1692466539858,0.96495,0.34605002,2.697,0.2864125,0.0191125,-0.40645
1692466539886,1.5630001,-0.73200005,4.4490004,0.4959625,0.155375,-0.66165
1692466539913,-0.57105005,-0.094950005,4.12305,0.6169625,0.1310375,-0.6395125
1692466539945,-1.863,0.83505005,7.1710505,0.4653,-0.28215,0.0265375
1692466539975,-1.84905,1.299,5.964,0.327525,-0.3246375,0.1538625
1692466540003,-0.846,-0.49800003,4.30305,0.319275,-0.069025,-0.14355
1692466540031,2.16195,-2.6809502,9.897,0.6809,0.7566625,-1.18745
1692466540060,2.2789502,-1.8690001,13.498951,0.3546125,0.6246625,-0.91162497
1692466540088,0.38805002,-0.012,10.57005,-0.168025,0.0567875,-0.0562375
1692466540119,0.46695003,0.186,8.607,-0.54395,-0.55935,0.9299125
1692466540148,0.83595,-0.03795,8.614051,-0.38747498,-0.8903125,1.507
1692466540177,-1.014,0.42795002,8.941951,-0.143825,-0.704275,1.1895125
1692466540207,-1.18095,0.46605003,9.540001,0.1694,-0.359425,0.598675
1692466540237,0.01905,-0.25095,10.440001,0.254925,-0.160875,0.2905375
1692466540265,0.513,-0.624,10.79895,0.3664375,0.3273875,-0.438075
1692466540295,0.29700002,-0.72495,9.45705,0.3491125,0.4162125,-0.5735125
1692466540324,0.33495003,-0.65295005,9.43305,0.136125,0.1926375,-0.24007499
1692466540352,0.216,-0.483,9.92595,0.018975,0.0559625,-0.0334125
1692466540385,-0.030000001,-0.32505003,9.705001,-0.108075,-0.067925,0.1551
1692466540405,-0.28605002,-0.23700002,9.34395,-0.113025,-0.0760375,0.1898875
1692466540439,-0.34095,-0.112050004,9.724951,-0.0526625,-0.0097624995,0.18095
1692466540466,-0.32700002,-0.081,9.946951,-0.0122375,0.0504625,0.125125
1692466540495,-0.27600002,-0.15495001,10.189051,0.0264,0.109725,0.05335
1692466540524,-0.29805002,-0.069000006,9.52095,0.082225,0.173525,-0.033
1692466540556,-0.22605,-0.01905,8.76,0.095837496,0.1599125,0.0477125
1692466540585,-0.32205,-0.20595,9.54705,0.092125,0.1423125,0.1054625
1692466540612,-0.513,-0.26505002,10.43805,0.086625,0.1265,0.1398375
1692466540643,-0.549,-0.17400001,9.82995,0.06215,0.115637496,0.1648625
1692466540672,-0.34605002,0.00405,9.21,0.0429,0.1247125,0.15785
1692466540701,-0.51105005,0.18105,8.97105,0.02805,0.138325,0.1285625
1692466540730,-0.753,0.294,8.75805,0.03795,0.149325,0.0581625
1692466540760,-0.78405005,0.23400001,7.8739505,0.09735,0.1527625,0.0380875
1692466540789,-0.846,-0.0139500005,7.7239504,0.128425,0.1703625,0.0196625
1692466540818,-0.65205,-0.27,8.604,0.1480875,0.2204125,-0.07645
1692466540847,-0.58995,-0.19395001,8.343,0.1241625,0.233475,-0.1351625
1692466540876,-0.59205,0.33195,7.39095,0.0361625,0.2036375,-0.216975
1692466540904,-0.95400006,0.78195006,6.6870003,0.0111375,0.167475,-0.207075
1692466540930,-1.0999501,0.69105005,6.42105,0.0251625,0.137225,-0.172425
1692466540963,-0.59505004,0.126,7.5030003,0.169675,0.154275,-0.201575
1692466540984,-0.35805002,0.066,7.9750504,0.169675,0.154275,-0.201575
1692466541016,-0.88905007,0.55200005,7.5439506,0.2486,0.1964875,-0.1868625
1692466541045,-0.93705004,0.67005,6.8280005,0.1632125,0.094325,0.0138875
1692466541076,-0.93705004,0.67005,6.8280005,0.1632125,0.094325,0.0138875
1692466541102,-0.40305,0.094950005,6.29895,0.20253749,0.078375,-0.10615
1692466541136,-0.39795002,-0.27705002,7.4410505,0.2008875,0.0518375,-0.14795
1692466541161,-0.64005005,-0.354,8.18505,0.1287,0.0078375,-0.101475
1692466541189,-0.79095006,-0.27495003,9.217051,0.0165,-0.0364375,-0.0312125
1692466541217,-1.1520001,0.033,7.5030003,-0.2074875,-0.0642125,0.0561
1692466541248,-0.89895004,-0.29895002,7.6639504,-0.2523125,-0.0350625,0.0275
1692466541273,-0.063,-1.0720501,9.253051,-0.2382875,0.0174625,-0.051425
1692466541302,-0.58695,-0.78495,11.776051,-0.20019999,0.0906125,-0.17173749
1692466541335,-1.6840501,-0.028050002,10.55805,-0.3702875,-0.0603625,0.1373625
1692466541364,-1.6890001,0.483,10.206,-0.4041125,-0.11385,0.27101249
1692466541393,-0.60195005,-0.47400004,11.817,-0.330275,-0.06875,0.2223375
1692466541421,0.156,-0.82095003,12.7240505,-0.0499125,0.115775,-0.1271875
1692466541450,0.38595003,-0.67905,12.592051,0.0061875,0.0902,-0.124437496
1692466541477,0.07005,-0.38700002,12.469951,-0.0251625,-0.0342375,0.055825
1692466541508,-0.68100005,-0.42105,12.07995,-0.1486375,-0.3311,0.5240125
1692466541537,-0.324,-0.76995003,12.4459505,-0.132,-0.3843125,0.5836875
1692466541566,-0.10395,-0.87795,12.999001,-0.098175,-0.3243625,0.4717625
1692466541593,-0.61905,-0.58905005,14.026051,-0.08195,-0.2536875,0.34595
1692466541624,-1.2049501,0.291,12.694951,-0.1084875,-0.1772375,0.2286625
1692466541653,-0.53205,0.47805002,12.652051,-0.103675,-0.13695,0.199375
1692466541682,-0.22095,-0.29205,13.84395,0.0297,0.0235125,-0.0081124995
1692466541713,-0.063,-0.73905003,15.3810005,0.1197625,0.0724625,-0.117425
1692466541741,0.01695,-0.90000004,16.37895,0.15853749,0.0048125,-0.0386375
1692466541770,-0.18795002,-0.83505005,15.319051,0.09625,-0.0639375,0.10505
1692466541799,-0.82005006,-0.55005,15.109951,-0.047025,-0.1560625,0.3081375
1692466541829,-0.58305,-0.66,15.565051,-0.0864875,-0.1568875,0.3133625
1692466541855,-0.67605,-0.75405,15.201001,-0.0991375,-0.1219625,0.2508
1692466541885,-0.693,-1.40205,16.594051,-0.082499996,-0.011,0.0666875
1692466541912,-0.64995,-1.6699501,16.803001,-0.078099996,0.0259875,0.00385
1692466541942,-1.54005,-1.2229501,15.117001,-0.1145375,0.0638,-0.0977625
1692466541976,-2.3089502,-0.79905003,13.96905,-0.1442375,0.084975,-0.1513875
1692466542004,-1.8180001,-1.338,13.425,-0.1475375,0.1918125,-0.363
1692466542034,-0.303,-1.9579501,12.71205,-0.1175625,0.279675,-0.5341875
1692466542062,0.23505001,-1.797,11.356951,-0.0933625,0.355025,-0.666325
1692466542091,0.063,-1.5870001,10.351951,-0.14533749,0.3025,-0.5443625
1692466542122,-0.010950001,-1.7899501,8.82705,-0.262625,0.016224999,-0.1013375
1692466542147,-0.11595,-1.8360001,7.89795,-0.2963125,-0.104225,0.0782375
1692466542177,-0.17805001,-1.9699501,5.991,-0.319275,-0.1786125,0.19855
1692466542207,0.19395001,-1.7179501,5.1600003,-0.3928375,-0.207625,0.2910875
1692466542235,-0.441,-0.72300005,5.1670504,-0.500775,-0.1579875,0.2586375
1692466542266,0.109950006,-0.411,5.8780503,-0.5126,-0.1258125,0.180675
1692466542295,0.47205,-0.57705003,5.95905,-0.4549875,-0.0763125,0.0385
1692466542323,0.50100005,-0.67695004,6.7710004,-0.183425,-0.010725,-0.219725
1692466542352,0.01695,-0.60495,6.3499503,-0.0562375,-0.0738375,-0.2057
1692466542383,-0.77205,-0.21300001,3.35505,0.089925,-0.26565,-0.0752125
1692466542412,-1.00905,-0.06705,3.2040002,0.1276,-0.26895,-0.109175
1692466542441,0.052950002,-0.00405,5.71995,0.15619999,-0.169125,-0.2619375
1692466542472,0.094050005,1.02405,8.21895,0.2305875,0.2446125,-0.81675
1692466542500,-2.055,0.43500003,3.6379502,0.443575,0.35475,-0.9466875
1692466542528,-0.71400005,-0.92805004,4.3819504,0.6076125,0.28861248,-0.86088747
1692466542557,3.05205,-2.0269501,13.432051,0.718575,0.3069,-0.887425
1692466542587,0.68505,0.141,11.380951,0.4054875,0.23567499,-0.763125
1692466542616,0.08895,0.54300004,7.3570504,-0.108899996,-0.631675,0.5179625
1692466542644,-0.025050001,0.50895,6.9480004,-0.0666875,-0.84425,0.85153747
1692466542672,-0.93705004,0.25095,8.17395,0.08965,-0.7684875,0.7404375
1692466542701,-1.2360001,0.23895001,9.658051,0.3408625,-0.3067625,0.0642125
1692466542733,0.40005,-0.60105,10.61295,0.38115,-0.0598125,-0.246675
1692466542759,1.19505,-1.20105,10.515,0.38225,0.16885,-0.506
1692466542795,0.70605004,-0.99105006,8.85795,0.2431,0.2776125,-0.54614997
1692466542821,0.034050003,-0.591,8.71695,-0.0721875,-0.1192125,0.14973749
1692466542849,0.08895,-0.58095,9.92595,-0.18755,-0.274175,0.4459125
1692466542878,0.19695,-0.68205005,10.27005,-0.2330625,-0.30965,0.5412
1692466542906,0.30900002,-0.53805,9.50895,-0.1879625,-0.16225,0.2613875
1692466542934,-0.066,-0.21795002,8.614051,-0.1491875,-0.092125,0.0831875
1692466542963,-0.279,-0.27,8.98305,-0.078099996,-0.0339625,-0.0510125
1692466542997,0.12705001,-0.74700004,9.708,0.0075625,0.03135,-0.071775
1692466543017,0.01905,-0.684,9.20505,0.038225,0.0735625,-0.0798875
1692466543048,0.04095,-0.61200005,8.679001,0.0396,0.0944625,-0.052525
1692466543079,0.22305001,-0.73005,8.32005,-0.018424999,0.0713625,0.0242
1692466543104,0.18495001,-0.61995006,8.248051,-0.0473,0.0528,0.0303875
1692466543135,0.112950005,-0.30105,7.6849504,-0.0686125,0.032725,0.0361625
1692466543166,-0.18795002,0.112050004,6.7039504,-0.076175,-0.014712499,0.104637496
1692466543196,-0.38595003,0.363,5.24595,0.0103124995,-0.0111375,0.2039125
1692466543223,0.17505,-0.40695003,6.2749505,0.081675,0.0248875,0.1948375
1692466543252,0.74205005,-0.711,7.6060505,0.146575,0.0669625,0.1324125
1692466543282,-0.03705,0.022950001,7.4430003,0.1445125,0.0532125,0.065725
1692466543309,-0.76500005,0.26505002,6.735,0.074525,-0.01815,0.1376375
1692466543340,0.62295,-0.66300005,7.2570004,0.0347875,-0.0598125,0.1903
1692466543368,0.69000006,-0.67905,8.39595,0.0856625,0.01595,0.0930875
1692466543398,0.69000006,-0.67905,8.39595,0.0856625,0.01595,0.0930875
1692466543429,-1.3729501,-0.31095,9.19995,0.00165,-0.06985,0.3146
1692466543456,-0.41805002,-0.80595005,10.201051,-0.0526625,-0.0988625,0.376475
1692466543486,0.26805001,-0.81795,10.49505,-0.066,0.1890625,-0.011275
1692466543515,-0.56595004,-0.22200002,10.392,-0.080025,0.2965875,-0.1093125
1692466543543,-0.63105005,0.066,10.46895,-0.11275,0.2695,-0.003025
1692466543572,-0.18795002,-0.28905,10.797001,-0.09625,0.1170125,0.21807499
1692466543601,0.036000002,-0.69900006,11.347051,0.0488125,0.129525,0.057475
1692466543630,0.14595,-0.78495,10.8810005,0.0878625,0.1172875,-0.0059125
1692466543657,0.201,-0.78195006,10.91205,0.0429,0.0138875,0.011
1692466543686,0.094050005,-0.71295005,10.953,-0.00825,-0.0462,0.0859375
1692466543717,-0.52305,-0.38700002,10.431001,-0.0741125,-0.12595,0.3081375
1692466543746,-0.44400004,-0.47595003,10.354051,-0.0735625,-0.121825,0.3664375
1692466543776,-0.33900002,-0.79200006,11.304001,-0.0207625,-0.013475,0.2275625
1692466543804,-0.19005,-1.0189501,11.962951,0.00165,0.045649998,0.1255375
1692466543833,-0.372,-0.81105006,11.616,0.0012375,0.0771375,0.0842875
1692466543863,-0.85095006,-0.42795002,12.204,-0.0567875,0.0688875,0.1662375
1692466543890,-0.46095002,-0.44505003,12.754951,-0.0763125,0.059675,0.2281125
1692466543920,-0.078,-0.32505003,11.845051,-0.03135,0.0848375,0.237325
1692466543950,-0.01995,-0.39000002,12.484051,0.012925,0.08085,0.20487499
1692466543979,0.13695,-0.43095002,12.40095,0.0732875,-0.0099,0.2399375
1692466544008,-0.666,-0.12195001,13.236001,0.0848375,-0.0561,0.2990625
1692466544037,-0.73395,-0.07395,14.29905,0.0917125,-0.0815375,0.3249125
1692466544067,0.43095002,-0.66795003,16.02495,0.1263625,-0.0361625,0.1137125
1692466544096,-0.126,-0.9670501,16.924952,0.1428625,0.027224999,-0.0807125
1692466544124,-0.76500005,0.033,14.78505,0.1071125,-0.0072875,-0.0320375
1692466544155,0.43800002,-0.19605,13.39605,0.0592625,-0.056375,0.0352
1692466544181,0.59400004,-0.29700002,14.686951,0.0323125,-0.0515625,0.0066
1692466544210,-1.0020001,-0.028050002,16.237951,0.0506,-0.044,-0.0191125
1692466544241,-1.2240001,-0.87105006,16.09605,0.077275,-0.087725,0.0108624995
1692466544268,-0.63495004,-1.43805,15.11505,0.077825,-0.0457875,-0.066275
1692466544297,-0.915,-1.2400501,14.0449505,0.0094875,0.1285625,-0.41181248
1692466544328,-1.014,-1.0000501,13.653001,-0.058849998,0.16733749,-0.5157625
1692466544359,-0.50100005,-1.1029501,12.441001,-0.1601875,0.1810875,-0.526075
1692466544387,0.924,-2.283,12.765,-0.1689875,0.1887875,-0.5061375
1692466544415,1.82895,-2.973,12.1710005,-0.1797125,0.1255375,-0.3799125
1692466544450,-0.34605002,-1.5960001,10.88805,-0.2451625,0.001375,-0.16555
1692466544467,-1.332,-0.711,9.8539505,-0.3540625,-0.1722875,0.16335
1692466544501,-0.83400005,-0.77805007,8.382,-0.4541625,-0.3221625,0.4767125
1692466544532,0.54105,-1.5820501,7.1080503,-0.4235,-0.25753748,0.3526875
1692466544562,0.16995001,-1.00695,5.2579503,-0.2336125,0.023924999,-0.3427875
1692466544591,0.10095,-0.49995002,3.7789502,-0.2036375,0.0369875,-0.4346375
1692466544620,0.264,-0.072000004,3.07995,-0.2135375,-0.017875,-0.3488375
1692466544649,0.48600003,0.75600004,1.4280001,-0.2019875,-0.105875,-0.0735625
1692466544677,0.57195,0.60705,1.01205,-0.023924999,-0.152625,0.0496375
1692466544705,0.546,-0.079050004,3.4410002,0.1249875,-0.2008875,0.039049998
1692466544734,0.68700004,-0.78495,6.6319504,0.2767875,-0.2616625,0.01155
1692466544764,-0.702,-0.29205,5.98605,0.3672625,-0.360525,0.008525
1692466544793,-1.6380001,0.79200006,4.0230002,0.1247125,-0.246675,-0.156475
1692466544821,-2.3760002,-0.48600003,3.9180002,0.0605,-0.0187,-0.449625
1692466544848,-0.126,-3.6160502,7.2300005,0.12155,0.326975,-0.8595125
1692466544878,3.41595,-4.296,15.567,0.092125,1.019975,-1.5247375
1692466544910,0.26595002,-1.55805,13.80105,-0.3620375,0.92097497,-1.299925
1692466544938,-1.0830001,0.04695,9.32505,-1.1121,-0.4420625,0.69025
1692466544966,-0.28605002,0.43695003,8.93505,-0.90255,-0.8102875,1.2353
1692466544995,-0.96795005,0.51600003,9.61905,-0.500225,-0.6908,1.0412875
1692466545023,-1.23405,0.19995001,10.31595,0.26221249,-0.0726,0.1420375
1692466545053,-0.05595,-0.19605,10.08405,0.51094997,0.1288375,-0.11495
1692466545082,0.86700004,-0.80895007,10.012051,0.70042497,0.348425,-0.4387625
1692466545110,0.90495,-1.0170001,9.7560005,0.645975,0.3097875,-0.445775
1692466545137,0.51000005,-0.83295006,9.7560005,0.5160375,0.15675,-0.2919125
1692466545168,-0.22800002,-0.00705,8.98995,0.2046,-0.2231625,0.19085
1692466545199,-0.3,0.33900002,8.805,0.1065625,-0.2987875,0.2883375
1692466545228,-0.55605,0.504,7.9510503,0.111375,-0.17379999,0.099
1692466545253,-0.79605,0.15,8.334001,0.191125,-0.059675,-0.061049998
1692466545281,-0.054,-0.52395004,9.67695,0.34814999,0.12815,-0.3268375
1692466545311,0.17505,-0.54105,10.005,0.364925,0.1915375,-0.4162125
1692466545338,-0.40800002,-0.094950005,9.516001,0.2195875,0.1651375,-0.34759998
1692466545368,-0.35505003,-0.061950002,8.997001,0.1172875,0.090475,-0.210925
1692466545395,-0.23295002,-0.11895001,9.34395,0.043725,0.0319,-0.04235
1692466545425,-0.26895002,-0.186,9.35805,0.058575,0.051975,-0.0295625
1692466545455,-0.34800002,-0.19605,8.920051,0.073699996,0.069299996,-0.0174625
1692466545485,-0.52005005,-0.27,8.6640005,0.0647625,0.0726,0.0713625
1692466545513,0.24705002,-0.47805002,8.743051,0.0460625,0.069299996,0.1227875
1692466545541,0.13395001,-0.14805001,7.9150505,-0.003575,0.0507375,0.185625
1692466545572,-0.58305,0.282,7.353,-0.032175,0.010725,0.24213749
1692466545602,-0.49905002,0.34395,7.5780005,-0.0479875,-0.0435875,0.3174875
1692466545629,0.15795001,0.20805001,7.6180506,0.021175,-0.0515625,0.3271125
1692466545658,-0.039,0.20295002,7.2379503,0.1522125,0.038225,0.12773749
1692466545687,-0.72900003,0.51405,6.8809505,0.1837,0.0275,0.0864875
1692466545718,-0.81705004,0.48795003,7.3020005,0.19167499,-0.0028875,0.095425
1692466545747,-0.312,0.483,7.9150505,0.2204125,0.0484,0.01925
1692466545774,-0.058050003,0.48000002,7.7640004,0.253,0.12705,-0.1057375
1692466545803,0.36195,0.186,7.695,0.2827,0.1772375,-0.2993375
1692466545832,0.28995,0.28395,7.6759505,0.2619375,0.113299996,-0.281325
1692466545860,0.25605002,0.38505003,7.8480005,0.168575,-0.0732875,0.022275
1692466545892,0.25905,0.48495004,8.202001,0.1274625,-0.1419,0.203225
1692466545915,-0.10605001,0.68895006,7.8840003,0.104499996,-0.1848,0.31707498
1692466545947,-0.384,0.624,8.23305,0.0988625,-0.2116125,0.3465
1692466545975,-0.23295002,0.41595003,8.86305,0.11495,-0.1860375,0.2883375
1692466546008,-0.20895001,0.109050006,11.106001,0.1472625,-0.0628375,0.0418
1692466546036,-0.48705003,0.22395001,10.857,0.0705375,0.0254375,-0.16555
1692466546065,-0.609,0.34605002,10.75905,0.0012375,0.0466125,-0.2101
1692466546094,-0.54195005,0.162,10.4740505,-0.0561,0.0686125,-0.2410375
1692466546123,0.15105,-0.040050004,11.379001,-0.0902,0.126225,-0.27005
1692466546152,0.20595,-0.13905,11.946,-0.094325,0.1384625,-0.2176625
1692466546187,-0.47295,0.45195,11.26605,-0.1519375,0.0507375,0.07755
1692466546204,-0.24795002,0.41595003,10.96905,-0.1791625,-0.0182875,0.2264625
1692466546238,-0.29805002,0.29895002,11.74995,-0.124575,-0.0323125,0.2387
1692466546267,-0.44400004,0.40605003,11.2879505,-0.065725,1.375E-4,0.1940125
1692466546296,-0.95595,0.64095,11.11995,-0.0226875,0.020075,0.194425
1692466546335,-0.95100003,0.708,12.769051,0.0176,0.0488125,0.132
1692466546362,-0.81000006,0.77205,12.505951,0.0763125,0.13475,-0.197175
1692466546389,-1.00905,1.0720501,12.408001,0.10175,0.172425,-0.322575
1692466546417,-0.171,0.89895004,12.858001,0.1423125,0.19139999,-0.33275
1692466546446,-0.41805002,0.86295,13.19295,0.1665125,0.1766875,-0.248325
1692466546473,-0.98700005,0.76500005,13.789051,0.16665,0.0812625,0.0771375
1692466546510,-0.279,0.41805002,14.62005,0.1417625,0.031625,0.20955
1692466546534,-0.10605001,0.39405003,14.755951,0.1120625,0.0075625,0.2487375
1692466546563,-1.026,0.55905,14.928,0.0235125,-0.018424999,0.218625
1692466546591,-1.53495,0.231,15.109951,-0.0275,-0.045375,0.23485
1692466546620,-0.97305006,-0.0019500001,14.32995,-0.0815375,-0.032175,0.17215
1692466546649,-0.56595004,-0.64395005,14.553,-0.0961125,0.0235125,0.0537625
1692466546678,-0.39405003,-1.16505,15.216001,-0.1189375,0.0760375,-0.069299996
1692466546706,-0.48900002,-1.1580001,14.67195,-0.2124375,0.0702625,-0.1573
1692466546736,-0.82005006,-0.69405,13.17405,-0.355575,-0.0191125,-0.063525
1692466546766,-0.15705001,-0.91200006,13.227,-0.396825,-0.037125,-0.0356125
1692466546793,-0.049050003,-1.0720501,12.798,-0.4008125,-0.0341,-0.069575
1692466546823,-0.71895003,-1.0720501,13.72395,-0.3540625,-0.04455,-0.23567499
1692466546852,-0.79605,-1.29495,13.104001,-0.3273875,-0.064899996,-0.3042875
1692466546880,-0.83400005,-1.1509501,11.44305,-0.3012625,-0.067375,-0.3738625
1692466546910,-1.2220501,-0.624,10.045051,-0.2600125,-0.0023375,-0.4767125
1692466546939,-0.441,-1.2900001,9.12405,-0.2233,0.0900625,-0.4873
1692466546967,0.72105,-2.11995,8.724,-0.195525,0.134475,-0.49885
1692466546997,0.85695004,-2.2380002,8.65905,-0.1859,0.14905,-0.474925
1692466547024,-0.71400005,-1.4620501,7.4599504,-0.3229875,-0.030524999,-0.125675
1692466547054,-1.11405,-0.60495,5.5690503,-0.4368375,-0.18259999,0.1398375
1692466547081,-0.50100005,0.006,4.7509503,-0.50888747,-0.2629,0.3020875
1692466547113,0.55305004,0.52395004,3.183,-0.4137375,-0.0551375,0.097625
1692466547142,0.9889501,-0.43095002,4.61205,-0.1032625,0.1051875,-9.625E-4
1692466547171,1.45605,-1.194,5.9430003,0.047849998,0.0078375,0.18645
1692466547200,1.24995,-1.2730501,5.11695,0.1414875,-0.3892625,0.729025
1692466547234,0.36405003,-0.67695004,3.903,0.07645,-0.6172375,1.019975
1692466547260,0.21300001,0.33,3.2980502,-0.1431375,-0.9040625,1.394525
1692466547290,-1.8250501,0.025950002,4.17105,-0.181225,-0.8630875,1.319725
1692466547317,-0.726,-1.70595,7.5220504,-0.0188375,-0.41415,0.6554625
1692466547345,2.2740002,-2.33295,10.677,0.060775,-0.0281875,0.1500125
1692466547375,2.4109502,-1.2199501,10.876051,0.0143,0.314325,-0.2558875
1692466547404,-0.12795001,-0.555,9.4800005,-0.297,0.0171875,0.253825
1692466547430,-1.0489501,-0.01905,10.07205,-0.2861375,-0.39655,0.79145
1692466547458,-1.5499501,0.29595003,9.660001,0.0523875,-0.3634125,0.5611375
1692466547487,-1.9399501,0.303,9.741,0.224125,0.0099,-0.014712499
1692466547518,-0.43695003,-0.402,9.672001,0.4912875,0.69025,-0.9889
1692466547548,0.75705004,-1.1890501,10.4740505,0.559075,0.856075,-1.2150875
1692466547577,0.37095,-1.2060001,9.784051,0.42955,0.6763625,-0.9609875
1692466547606,0.015000001,-1.2730501,9.504001,0.24915,0.391875,-0.5768125
1692466547637,0.22500001,-1.35,10.075951,-0.0792,-0.0664125,0.0864875
1692466547661,0.108,-1.10595,9.816001,-0.17215,-0.1555125,0.269775
1692466547693,-0.43695003,-0.51900005,8.89605,-0.223575,-0.1860375,0.3806
1692466547722,-0.67800003,-0.54300004,7.7470503,-0.2132625,-0.1672,0.4389
1692466547750,-0.123,-0.99300003,8.382,-0.153175,-0.1122,0.3851375
1692466547780,0.21795002,-1.12695,9.13095,-0.0312125,0.047575,0.206525
1692466547808,-0.291,-0.88500005,8.57295,-0.0243375,0.077,0.1769625
1692466547839,-0.57105005,-0.37800002,7.36005,-0.0708125,0.01485,0.20487499
1692466547866,-0.28395,-0.32295,6.66795,-0.067925,0.0092124995,0.142175
1692466547897,-0.25500003,-0.34005,6.6940503,-0.034375,0.0419375,0.034925
1692466547930,-0.71895003,-0.27495003,6.47205,0.0647625,0.1084875,-0.109725
1692466547951,-0.82905006,-0.23700002,6.19395,0.1007875,0.119075,-0.149875
1692466547983,-0.62295,-0.40395,6.3739505,0.1480875,0.1956625,-0.3125375
1692466548017,-0.59205,-0.74205005,7.03695,0.16445,0.2635875,-0.4316125
1692466548044,-0.025050001,-0.96405005,8.241,0.1450625,0.326975,-0.5638875
1692466548073,-0.09,-0.73695004,7.9339504,0.088275,0.2902625,-0.5075125
1692466548100,-0.59505004,-0.43995002,7.6900506,-0.0540375,0.1032625,-0.1816375
1692466548131,-0.432,-0.39495003,8.028001,-0.07865,0.0133375,-0.0240625
1692466548162,-0.609,-0.24405001,9.14805,-0.015262499,-0.041249998,0.1216875
1692466548199,0.28305,-0.66,10.05,0.0792,-0.0155375,0.1596375
1692466548224,0.18195,-0.56505,10.086,0.113575,-0.0213125,0.186725
1692466548260,-0.372,-0.61995006,9.97095,0.1243,-0.067375,0.256575
1692466548287,-0.312,-0.531,10.1959505,0.0792,-0.2132625,0.44825
1692466548315,-0.291,-0.76095,10.9810505,0.03575,-0.188925,0.4049375
1692466548339,-0.59895,-1.161,11.87205,0.0253,-0.14025,0.3441625
1692466548367,-0.42000002,-1.2079501,11.592001,0.0155375,-0.1038125,0.311025
1692466548395,0.29505002,-1.0030501,11.331,-0.0048125,-0.077275,0.29865
1692466548425,0.321,-0.66495,11.223001,-0.0793375,-0.0402875,0.2838
1692466548454,-0.56100005,-0.45900002,11.403001,-0.1078,-0.0647625,0.3136375
1692466548488,-0.45795003,-0.53295004,11.304001,-0.08305,-0.14973749,0.3548875
1692466548519,0.06705,-0.95205003,11.580001,0.0396,-0.0474375,0.138875
1692466548546,-0.29295,-0.98100007,11.43795,0.07645,0.0122375,0.06765
1692466548580,-0.33405003,-0.75600004,11.517,0.0317625,-4.125E-4,0.144375
1692466548609,-0.13695,-0.73200005,11.09895,-0.00385,-0.01265,0.135575
1692466548635,-0.24795002,-0.44295,11.053051,-0.02145,-9.625E-4,0.0383625
1692466548662,-0.22095,-0.27495003,11.173051,-0.008525,0.0204875,-0.176
1692466548692,0.012,-0.261,11.529,0.018424999,0.013612499,-0.2102375
1692466548723,0.039,-0.069000006,11.482051,0.101475,-0.006325,-0.1885125
1692466548754,-0.42705002,0.17895001,12.015,0.1375,-0.02695,-0.1230625
1692466548783,-0.9799501,0.57105005,11.709001,0.1915375,-0.062975,0.0551375
1692466548813,-0.76695,0.79200006,11.757001,0.2206875,-0.0424875,0.0699875
1692466548842,-0.027,0.62895006,12.472951,0.2916375,0.072875,-0.1043625
1692466548872,0.33795002,0.40905002,13.21905,0.329175,0.1167375,-0.2068
1692466548902,0.10605001,0.045,14.389951,0.3551625,0.0664125,-0.192225
1692466548933,-0.33105,0.066,15.228001,0.327525,-0.0078375,-0.07865
1692466548958,-0.33900002,0.12900001,14.116951,0.2096875,-0.1040875,0.120037496
1692466548984,-0.62295,0.16695,13.416,0.1486375,-0.098725,0.1293875
1692466549016,0.21300001,-0.402,14.035951,0.076725,-0.032725,-0.0097624995
1692466549044,-0.432,-0.85200006,14.196001,0.0543125,-0.004675,-0.071225
1692466549072,-1.1050501,-0.95205003,14.043,0.0191125,-5.5E-4,-0.0595375
1692466549103,-1.2030001,-1.01205,13.738951,-0.1120625,-0.0122375,0.0727375
1692466549128,-0.80100006,-1.6489501,13.834051,-0.1797125,0.03135,0.057475
1692466549158,-0.82395005,-1.51005,13.753051,-0.27101249,0.164725,-0.0933625
1692466549189,-1.401,-1.113,12.903001,-0.3106125,0.1890625,-0.1469875
1692466549220,-0.36495003,-1.45305,11.70705,-0.3482875,0.1777875,-0.2646875
1692466549250,0.41205,-1.6369501,9.74895,-0.3282125,0.1786125,-0.341
1692466549277,-0.46800002,-1.8280501,11.106001,-0.30827498,0.10945,-0.2919125
1692466549307,-0.97800004,-1.9579501,11.2900505,-0.33055,0.0275,-0.14685
1692466549336,-1.095,-1.7490001,9.50895,-0.3568125,-0.0363,-0.0081124995
1692466549364,-0.60705,-1.29495,7.1610003,-0.3859625,0.003575,0.0297
1692466549394,0.25605002,-1.7590501,6.1009502,-0.3829375,0.1232,-0.069299996
1692466549424,2.13105,-3.2599502,8.158951,-0.3832125,0.124025,-0.0204875
1692466549451,0.04095,-2.09205,9.50205,-0.40535,0.047025,0.1508375
1692466549483,-2.11905,-0.41400003,7.4100003,-0.541475,-0.383075,0.877525
1692466549517,-0.38205,0.07395,3.7740002,-0.5451875,-0.4962375,1.038125
1692466549543,2.193,-0.72300005,2.223,-0.2173875,-0.0248875,0.2347125
1692466549573,2.301,-1.0170001,4.131,-0.014575,0.2014375,-0.1676125
1692466549608,0.08400001,-0.282,6.0550504,0.0583,-0.2156,0.2231625
1692466549636,-2.0400002,-0.012,5.6080503,-0.0237875,-0.6985,0.786225
1692466549665,-1.7530501,0.52605003,4.38,-0.0026125,-0.9238625,0.9255125
1692466549693,0.10305001,-0.26805001,4.8370504,0.117975,-0.42515,0.2234375
1692466549726,0.50295,-1.2970501,6.07905,0.4587,0.704825,-1.283425
1692466549754,0.93600005,-1.6470001,9.61905,0.441375,0.59235,-1.1045375
1692466549784,1.19505,-1.74195,12.42195,0.2195875,0.2426875,-0.6329125
1692466549811,-0.10395,-1.2780001,10.845,-0.0086624995,-0.08305,-0.2140875
1692466549842,-0.62805,-0.99105006,9.981001,-0.1687125,-0.407825,0.1485
1692466549873,-0.15405001,-0.99495006,10.962001,-0.131175,-0.3614875,0.076725
1692466549899,-0.492,-0.31995,10.593,-0.0188375,-0.0400125,-0.315975
1692466549931,0.17295001,-0.21000001,9.66495,0.0408375,0.0946,-0.45815
1692466549958,1.008,-0.72,9.468,0.2052875,0.2055625,-0.53267497
1692466549989,0.81705004,-1.08405,9.693001,0.2784375,0.17407499,-0.48688748
1692466550012,0.261,-0.93600005,9.468,0.297,0.0688875,-0.3546125
1692466550046,-0.043950003,-0.94305,9.33705,0.1771,-0.1997875,0.03025
1692466550076,0.072000004,-0.88995004,9.14505,0.1032625,-0.2407625,0.12925
1692466550110,-0.24300002,-0.40695003,8.470051,0.0177375,-0.1299375,0.115225
1692466550140,-0.657,-0.24105,7.6420503,0.0121,-0.00715,0.05775
1692466550167,-0.54405004,-0.60105,8.071051,0.0383625,0.0449625,0.01155
1692466550199,0.18900001,-1.1410501,9.069,0.07425,0.1123375,-0.083325
1692466550230,0.30900002,-1.09395,8.488951,0.09515,0.221375,-0.3144625
1692466550261,0.21300001,-0.64605004,7.36005,-0.0229625,0.11605,-0.2030875
1692466550294,-0.291,-0.00705,6.10305,-0.083325,0.0253,-0.0561
1692466550316,-0.63795,0.009000001,5.52405,-0.10285,-0.039875,0.0622875
1692466550351,-0.55200005,-0.15300001,5.63595,0.00165,-0.024475,0.0867625
1692466550385,0.22800002,-0.70305,6.8040004,0.15853749,0.1588125,-0.147125
1692466550413,0.44295,-0.85395,8.113951,0.1775125,0.2162875,-0.22453749
1692466550443,-0.025050001,-0.54300004,7.7640004,0.1370875,0.18865,-0.1874125
1692466550473,-0.025050001,-0.54300004,7.7640004,0.1370875,0.18865,-0.1874125
1692466550500,-0.45600003,-0.15300001,6.6889505,0.0075625,-0.02255,0.0334125
1692466550529,0.22500001,-0.60105,9.32205,0.087725,0.107525,-0.1739375
1692466550559,-0.65205,-0.049950004,10.30605,0.1821875,0.223025,-0.3817
1692466550587,-1.12605,0.53805,9.22395,0.18095,0.1634875,-0.2971375
1692466550627,0.32295,-0.25800002,9.6,0.2382875,0.133925,-0.1915375
1692466550651,0.81900007,-0.49305,9.859051,0.3130875,0.2024,-0.2611125
1692466550681,0.34500003,-0.60795003,11.674951,0.320375,0.1390125,-0.1142625
1692466550709,-0.384,-0.16005,11.26605,0.2080375,-0.025575,0.1661
1692466550740,-0.22095,-0.23400001,11.734951,0.007425,-0.24145,0.53295
1692466550765,0.22500001,-0.67200005,12.460951,-0.0042625,-0.21133749,0.4598
1692466550792,0.44295,-1.1010001,11.661,0.0251625,-0.0881375,0.1909875
1692466550820,-0.22395001,-0.41895002,11.60805,-0.0077,-0.0889625,0.2066625
1692466550849,-0.513,0.11400001,11.812051,-0.06435,-0.1194875,0.3048375
1692466550878,-0.762,0.93795,10.189051,-0.0950125,-0.1054625,0.345125
1692466550907,-0.657,1.0690501,9.90705,-0.03135,-0.0372625,0.19085
1692466550938,-0.69795,0.71505004,11.448001,0.07975,0.0446875,-0.0397375
1692466550967,-0.70695,0.081,12.89595,0.33825,0.1640375,-0.4560875
1692466550996,-0.44595003,-0.531,13.057051,0.40301248,0.1885125,-0.5198875
1692466551024,-0.55395,-0.27495003,12.40995,0.285725,0.17379999,-0.319825
1692466551052,-1.32,0.19095,12.27105,0.152075,0.1412125,-0.177375
1692466551080,-1.2720001,0.53805,12.219001,-0.0264,0.1057375,-0.1027125
1692466551113,-0.50595003,0.66,12.02295,-0.0165,0.1434125,-0.1915375
1692466551147,-0.19500001,0.83205,12.967951,0.105325,0.22013749,-0.298925
1692466551177,0.08400001,0.84705,13.590001,0.181225,0.105325,-0.0309375
1692466551203,0.055050004,0.76305,13.55895,0.1945625,0.0176,0.13213749
1692466551233,-0.39600003,0.92805004,14.062051,0.1967625,-0.0603625,0.266475
1692466551262,-0.66195005,0.83505005,14.422951,0.180125,-0.1546875,0.4307875
1692466551293,0.097950004,0.55905,13.5379505,0.169675,-0.1535875,0.4379375
1692466551322,-0.09,0.109050006,15.48795,0.1428625,-0.0862125,0.3664375
1692466551351,-0.34605002,-0.60105,15.93105,0.1109625,-0.07315,0.3421
1692466551380,0.177,-1.125,15.187051,-0.016775,-0.0985875,0.2440625
1692466551412,0.69195,-1.33095,15.160951,-0.1098625,-0.09625,0.150975
1692466551440,-0.06105,-1.005,14.65095,-0.3125375,-0.1078,0.0669625
1692466551469,-1.5589501,-0.39495003,13.734,-0.38995,-0.14093749,0.089375
1692466551498,-1.8250501,-0.24900001,12.589951,-0.4153875,-0.1142625,-0.0103124995
1692466551528,-0.20505,-0.31305,9.580951,-0.36313748,-0.0012375,-0.214225
1692466551562,-2.40405,1.0360501,9.59805,-0.2102375,0.2503875,-0.7258625
1692466551589,-1.9470001,0.126,9.837001,-0.128975,0.3067625,-0.897325
1692466551617,0.66795003,-1.04805,7.977,0.069025,0.377575,-1.1730125
1692466551646,2.0659502,-1.8049501,7.5679502,0.1381875,0.392975,-1.257575
1692466551675,0.50805,-1.005,6.3450003,0.1139875,0.3133625,-1.15555
1692466551704,-1.52295,-0.47100002,5.6910005,-0.20955,-0.182325,-0.319275
1692466551734,-1.248,-0.62700003,5.36805,-0.35035,-0.382525,0.07645
1692466551762,1.2550501,-1.8240001,5.67495,-0.3507625,-0.2124375,-0.023924999
1692466551795,1.6830001,-1.7899501,5.9430003,-0.322575,-0.0433125,-0.2503875
1692466551821,0.89595,-0.933,4.01805,-0.48345,-0.2267375,0.0499125
1692466551848,0.003,-0.31305,2.9530501,-0.5957875,-0.5149375,0.5031125
1692466551878,-0.37005,-0.40695003,3.9079502,-0.637175,-0.7426375,0.860475
1692466551910,-0.73800004,-0.84705,7.65705,-0.4819375,-0.67485,0.7964
1692466551939,-0.59895,-1.1920501,6.1650004,-0.22247499,-0.11935,0.136675
1692466551967,-0.75495005,-0.60105,4.25505,-0.129525,0.15125,-0.160875
1692466551996,1.45305,-1.1890501,8.33205,-0.07425,0.3377,-0.344025
1692466552024,3.2940001,-1.3110001,11.788051,-0.0534875,0.40301248,-0.2776125
1692466552052,0.69705003,0.411,10.177051,-0.053075,0.15455,0.1186625
1692466552083,-0.49695003,0.62895006,9.792001,0.12485,-0.7965375,1.4004375
1692466552113,0.36405003,-0.66795003,11.224951,0.3163875,-0.9565875,1.513325
1692466552141,0.252,-0.13395001,10.81095,0.586575,-0.4225375,0.595925
1692466552170,-0.01995,0.81105006,9.49005,0.5775,-0.1458875,0.2360875
1692466552198,-0.049050003,1.2100501,8.746051,0.443575,0.0694375,0.0950125
1692466552227,-0.010950001,0.99705005,8.62395,0.454025,0.1167375,0.058025
1692466552255,0.19905001,0.26295,9.00195,0.6092625,0.1871375,-0.1447875
1692466552285,0.59595,-0.22695,9.162001,0.64556247,0.19607499,-0.21395
1692466552321,0.462,-0.12195001,7.6920004,0.4813875,0.1340625,-0.1040875
1692466552348,-0.18105,0.07395,6.984,0.323675,0.066275,0.0452375
1692466552381,-0.29295,-0.15300001,7.17495,0.083325,-0.021724999,0.237875
1692466552407,0.09105001,-0.40905002,7.5420003,0.0287375,0.00715,0.20019999
1692466552443,0.11505,-0.079050004,7.5679502,-0.03575,0.125675,-0.038775
1692466552468,-0.56595004,0.26505002,6.28695,-0.072325,0.14093749,-0.1098625
1692466552494,-0.95595,0.32700002,5.7390003,-0.097075,0.1265,-0.119625
1692466552525,-0.058050003,-0.10695001,6.2850003,-0.041525,0.1670625,-0.24915
1692466552554,0.10095,-0.47100002,7.2690005,0.0166375,0.2352625,-0.419925
1692466552583,0.40695003,-0.77295005,9.72,0.0374,0.2563,-0.5248375
1692466552612,0.027,-0.15495001,9.294001,-0.0276375,0.1799875,-0.384725
1692466552640,-1.2030001,0.804,6.7780504,-0.1969,0.0048125,-0.038225
1692466552669,-1.0020001,0.53805,6.4069505,-0.1923625,-0.00715,0.0077
1692466552701,0.42195,-0.40905002,9.913951,0.0682,0.2132625,-0.2525875
1692466552730,-0.14505,-0.09105001,10.45005,0.1750375,0.31075,-0.321475
1692466552759,-1.12605,0.423,8.83395,0.097075,0.1827375,-0.0319
1692466552788,-0.48495004,0.0139500005,9.082951,0.0339625,0.0935,0.06215
1692466552818,-0.17295001,-0.29895002,10.1320505,0.029424999,0.0925375,-0.0072875
1692466552847,-0.777,0.19800001,10.94295,0.065175,0.1816375,-0.199925
1692466552875,-1.107,0.46095002,10.44705,0.030524999,0.1456125,-0.1139875
1692466552904,-0.28095,0.102000006,10.573951,-0.022275,0.0473,0.0407
1692466552932,-0.28605002,-0.069000006,10.510051,0.0114124995,0.068475,-0.043449998
1692466552964,-0.86805004,-0.15495001,11.34,0.06215,0.08415,-0.11385
1692466552991,-1.03995,-0.22695,12.255,0.04015,0.045925,-0.049225
1692466553020,-0.64005005,-0.18900001,12.0060005,-0.0317625,0.0380875,-0.0345125
1692466553048,-0.633,0.006,11.343,-0.056375,0.0705375,-0.065725
1692466553080,-0.84405005,0.19605,11.002951,-0.069299996,0.090475,-0.0655875
1692466553108,-0.71895003,0.033,11.472,-0.0576125,0.074525,0.0092124995
1692466553138,-0.13005,-0.18900001,11.44305,-0.0088,0.071225,0.034925
1692466553168,-0.51105005,0.28695002,11.218051,-0.0031625,0.0570625,0.0658625
1692466553197,-1.167,0.94200003,10.500001,-0.025024999,-0.0314875,0.2594625
1692466553224,-1.2940501,1.14795,10.440001,1.375E-4,-0.0493625,0.341825
1692466553256,-0.70995003,0.67695004,11.601001,0.0686125,-0.0187,0.338525
1692466553286,-0.70500004,0.58605003,12.352951,0.239525,0.09735,0.127875
1692466553315,-0.73800004,1.029,12.280951,0.2627625,0.095425,0.07755
1692466553343,-0.59895,1.7179501,12.02505,0.2297625,0.060775,0.1194875
1692466553371,-0.99405,2.391,13.344001,0.211475,0.03025,0.136125
1692466553399,-1.9159501,2.3790002,16.12305,0.3064875,0.0044,0.079475
1692466553435,-1.2240001,1.8930001,14.99295,0.46805,0.041525,-0.0048125
1692466553463,-0.52005005,1.4760001,13.885051,0.4813875,0.078375,-0.0462
1692466553493,-0.003,0.62205005,14.239051,0.442475,0.099825,-0.06435
1692466553522,0.16305001,-0.19800001,14.416051,0.2737625,0.0213125,0.019524999
1692466553550,0.70905006,-0.80595005,14.128951,0.1452,-0.0609125,0.1310375
1692466553582,0.18705001,-0.68700004,13.795951,-0.1804,-0.214225,0.36107498
1692466553611,-0.78405005,-0.31095,13.224001,-0.333025,-0.278575,0.3977875
1692466553639,-0.90795004,-0.21495001,12.493951,-0.49513748,-0.3117125,0.2660625
1692466553667,-0.80805004,-0.46605003,14.019001,-0.485375,-0.2404875,0.0873125
1692466553699,-1.0879501,-0.021000002,13.918051,-0.3876125,-0.0380875,-0.2855875
1692466553728,-0.81705004,0.25095,12.951,-0.34347498,0.027224999,-0.38953748
1692466553757,-0.47505003,0.46095002,12.4129505,-0.2965875,0.06985,-0.457325
1692466553786,-0.20700002,0.36795002,9.885,-0.1601875,0.1128875,-0.5297875
1692466553815,-0.89400005,-0.46395,10.167001,-0.0837375,0.1021625,-0.5049
1692466553844,-0.61095005,-1.3069501,10.906951,0.014575,0.0394625,-0.380325
1692466553871,-0.41505003,-1.2280501,9.76305,-0.0044,0.025575,-0.374
1692466553902,-1.212,-0.79905003,7.04895,-0.194975,0.039875,-0.4852375
1692466553930,-1.131,-0.79200006,3.9630003,-0.29535,0.0485375,-0.52195
1692466553961,-0.20205002,-1.10595,3.2910001,-0.365475,0.129525,-0.5572875
1692466553991,1.1209501,-1.6200001,4.3390503,-0.3592875,0.208175,-0.6109125
1692466554020,1.12995,-1.2559501,4.9110003,-0.425425,0.1852125,-0.482625
1692466554048,0.109950006,-0.56505,4.2910504,-0.5193375,-0.0270875,-0.106975
1692466554076,0.09105001,-0.11505,5.3749504,-0.6226,-0.54202497,0.749925
1692466554105,1.38405,-1.04805,7.0530005,-0.55,-0.604725,0.84122497
1692466554134,1.8529501,-1.6300501,7.3740005,-0.2915,-0.5160375,0.6573875
1692466554162,0.99105006,-0.77295005,5.8660502,-0.23595,-0.629475,0.78375
1692466554194,-1.2030001,0.42495003,2.505,-0.2371875,-0.83435,1.0470625
1692466554223,-2.05005,0.31500003,5.0470505,-0.1518,-0.8705125,1.1086625
1692466554251,2.499,-1.7400001,12.360001,-0.0114124995,-0.52854997,0.6336
1692466554282,1.6350001,-0.44295,12.20205,0.23127499,0.1698125,-0.363825
1692466554310,-0.94200003,0.94200003,8.266951,0.212575,0.0064625,-0.1104125
1692466554339,-1.6189501,1.39995,7.2709503,0.1670625,-0.3718,0.4395875
1692466554369,-0.71895003,0.34605002,8.908051,0.3163875,-0.389675,0.328625
1692466554399,-0.62100005,0.109050006,11.311951,0.57255,0.33275,-0.76835
1692466554425,-0.3,0.27705002,10.668,0.60555,0.54725,-1.004575
1692466554454,-0.22095,0.564,9.0709505,0.567325,0.6252125,-1.0099375
1692466554486,0.28005,0.47595003,7.623,0.4266625,0.516175,-0.71335
1692466554516,0.80895007,0.028050002,8.16405,0.3906375,0.40713748,-0.5537125
1692466554543,0.32595003,0.117000006,8.40795,0.3444375,0.1639,-0.22247499
1692466554572,-0.022950001,0.057000004,8.071051,0.2817375,0.0331375,-0.027224999
1692466554601,0.19395001,-0.08805001,7.8739505,0.1227875,-0.128975,0.1962125
1692466554630,0.19905001,-0.15,7.9680004,0.067375,-0.132,0.1958
1692466554659,0.079050004,-0.07395,7.5270004,-0.0088,-0.0859375,0.1868625
1692466554691,-0.39105,0.186,6.321,-0.0367125,-0.0688875,0.1859
1692466554714,-0.82905006,0.41595003,5.6340003,-0.053075,-0.0485375,0.1485
1692466554749,-0.078,-0.59295005,6.91695,-0.0356125,0.0529375,-0.07645
1692466554776,0.63705003,-0.86595005,8.418,-9.625E-4,0.2134,-0.35694999
1692466554804,-0.05595,-0.40695003,8.829,-0.0424875,0.232925,-0.35145
1692466554832,-1.0180501,0.30795002,7.4790006,-0.127325,0.1808125,-0.208725
1692466554863,-0.11100001,-0.09105001,6.6270003,-0.21065,0.0952875,-0.0540375
1692466554893,0.09105001,-0.31095,8.025001,-0.1551,0.1544125,-0.20075
1692466554922,-0.29295,0.21495001,8.095051,-0.0518375,0.203775,-0.248325
1692466554952,-0.33105,0.60495,8.13,-0.056375,0.1296625,-0.0380875
1692466554981,-0.48000002,0.753,7.668,4.125E-4,0.026675,0.2322375
1692466555011,-0.44595003,0.07095,8.72595,0.102437496,0.0385,0.20185
1692466555039,0.18195,-0.96195006,10.95705,0.2726625,0.089925,0.034925
1692466555067,0.43395,-1.05495,11.836051,0.2508,0.0941875,-0.0224125
1692466555098,-0.67605,-0.11505,10.567051,-0.0457875,-0.0127875,0.1612875
1692466555128,-0.60195005,0.08295,10.974001,-0.205975,-0.0906125,0.3260125
1692466555156,0.12705001,-0.22500001,11.517,-0.2748625,-0.117837496,0.3762
1692466555183,-0.77895004,0.34605002,11.26395,-0.1590875,-0.023375,0.1549625
1692466555213,-0.50100005,0.124050006,11.604,-0.07315,0.0191125,0.0628375
1692466555241,-0.09900001,-0.12195001,12.085051,-0.0078375,0.0405625,0.036849998
1692466555273,-0.56595004,-0.048,12.429001,0.0627,0.0631125,0.108625
1692466555294,-0.61095005,0.14805001,11.950951,0.058849998,0.0534875,0.17655
1692466555330,-0.702,0.61005,11.74005,0.0154,0.0188375,0.228525
1692466555355,-0.74100006,0.67200005,11.647051,0.0507375,0.055275,0.0628375
1692466555385,-0.53205,0.36600003,11.766001,0.1010625,0.0834625,-0.0309375
1692466555415,-0.86295,0.16695,12.013051,0.1813625,0.113025,-0.1901625
1692466555443,-0.72195005,0.034950003,12.279,0.1764125,0.10835,-0.2305875
1692466555472,-0.66405004,0.19095,11.995951,0.144375,0.1007875,-0.22687499
1692466555503,-1.107,0.60705,11.59395,0.101475,0.0974875,-0.1904375
1692466555532,-1.29795,0.86100006,12.099001,0.038775,0.0924,-0.0774125
1692466555561,-0.42495003,0.65295005,13.696051,0.0902,0.1296625,-0.061325
1692466555588,-0.54195005,0.67005,13.960951,0.1408,0.153725,-0.06545
1692466555618,-0.657,0.59295005,14.413951,0.1665125,0.10725,0.138875
1692466555646,-0.28605002,0.55695003,14.15295,0.1450625,0.0548625,0.26125
1692466555681,-0.762,0.282,13.626,0.0944625,-0.0284625,0.3128125
1692466555719,-0.82395005,-0.68205005,15.040951,0.06655,-0.057475,0.2849
1692466555744,-0.32205,-1.07895,15.949951,-0.0163625,-0.0617375,0.1590875
1692466555770,-0.60195005,-0.60105,15.28995,-0.0924,-0.044275,0.072875
1692466555796,-1.2100501,-0.043050002,13.794001,-0.18975,-0.0372625,0.01485
1692466555824,-1.0830001,-0.27705002,13.49505,-0.31075,-0.0422125,-0.0023375
1692466555853,-0.58995,-1.12695,14.646001,-0.2827,-0.014712499,-0.0669625
1692466555881,-0.48900002,-1.74495,15.727951,-0.1830125,0.064899996,-0.269775
1692466555911,-1.3560001,-1.5510001,14.37495,-0.1978625,0.063525,-0.251625
1692466555947,-1.0710001,-1.4670001,12.085051,-0.3348125,0.0182875,-0.0609125
1692466555973,-0.34305,-1.8070501,10.498051,-0.37785,0.036575,-0.0578875
1692466556003,-0.18105,-1.55295,9.36795,-0.3848625,0.08085,-0.14245
1692466556031,-0.64500004,-0.88500005,6.7230005,-0.3815625,0.094875,-0.2376
1692466556059,-0.066,-1.31595,5.37795,-0.3845875,0.0078375,-0.1057375
1692466556086,1.04205,-1.70895,4.5280504,-0.36685,-0.0059125,-0.0946
1692466556115,2.181,-2.6899502,6.6940503,-0.355575,-0.01045,-0.0922625
1692466556144,0.62295,-1.93605,8.599951,-0.4445375,-0.1835625,0.288475
1692466556173,-0.48000002,-0.38505003,6.3300004,-0.5432625,-0.39545,0.68915
1692466556201,0.156,0.09705,4.39605,-0.59565,-0.6551875,1.0745625
1692466556237,0.76905006,0.37005,3.3769503,-0.2487375,-0.3771625,0.437525
1692466556261,0.59595,0.43695003,4.91295,-0.0286,-0.269775,0.1225125
1692466556290,-0.48705003,0.63600004,6.4020004,0.1648625,-0.2630375,-0.0350625
1692466556319,-0.23805001,-0.0019500001,8.81505,0.48014998,-0.2932875,-0.1353
1692466556347,0.57000005,-0.33705002,7.8820505,0.5971625,-0.1843875,-0.3102
1692466556374,0.08895,0.22905001,5.8999505,0.6485875,-0.0270875,-0.5559125
1692466556405,-0.14895001,-1.1179501,7.2349505,0.5119125,0.065175,-0.6760875
1692466556433,-0.003,-1.65795,8.773951,0.3928375,0.0210375,-0.52648747
1692466556465,0.66300005,-1.8070501,11.527051,0.0944625,0.0435875,-0.3216125
1692466556492,0.86895007,-0.531,9.153001,-0.125125,0.0609125,-0.2814625
1692466556521,0.558,0.34395,7.3669505,-0.4085125,-0.0716375,-0.1164625
1692466556551,-0.043950003,0.528,7.6849504,-0.3469125,-0.1766875,0.004125
1692466556580,-0.33900002,0.34905002,8.99895,-0.1782,-0.24213749,0.08965
1692466556607,-0.102000006,0.32505003,8.899051,0.2211,-0.134475,-0.050875
1692466556637,0.69000006,-0.26805001,9.672001,0.4137375,0.1186625,-0.41965
1692466556666,1.26195,-0.78000003,10.11705,0.423225,0.1639,-0.4846875
1692466556695,1.51995,-1.09605,10.516951,0.37661248,0.1183875,-0.407
1692466556724,0.90000004,-0.69900006,10.017,0.1192125,-0.17765,0.060775
1692466556753,0.606,-0.162,8.956051,-0.1203125,-0.4057625,0.4349125
1692466556781,0.49305,0.052050002,8.557051,-0.1203125,-0.4057625,0.4349125
1692466556810,0.039,0.13605,8.487,-0.1051875,-0.32999998,0.4725875
1692466556841,0.38295,-0.52905005,9.45705,0.0504625,-0.13695,0.253
1692466556870,0.25605002,-0.49800003,9.44505,0.1126125,-0.0416625,0.0911625
1692466556898,0.29505002,-0.49005002,8.736,0.1310375,0.0345125,-0.0240625
1692466556926,0.261,-0.16695,7.86705,0.0506,0.102025,-0.0581625
1692466556957,0.441,0.034950003,7.5270004,-0.02145,0.097075,-0.0097624995
1692466556984,0.28305,0.22005,6.9649506,-0.01595,0.082775,0.013612499
1692466557019,-0.39600003,0.69795,5.9350505,0.0697125,0.039049998,0.0638
1692466557037,-0.70500004,0.70995003,5.2840505,0.13475,0.0383625,0.0394625
1692466557071,-0.29505002,-0.282,6.05805,0.20693749,0.0837375,-0.0592625
1692466557100,0.15405001,-0.89295006,6.73995,0.2734875,0.1764125,-0.2160125
1692466557127,0.462,-0.89505005,8.281051,0.2536875,0.33935,-0.41635
1692466557158,-0.61395,-0.12195001,7.4029503,0.1076625,0.312125,-0.335225
1692466557186,-0.034950003,-0.12705001,6.5119505,-0.21807499,0.1354375,-0.0419375
1692466557217,0.22500001,-0.141,7.4410505,-0.1947,0.15675,-0.1357125
1692466557248,-0.22800002,-0.009000001,8.154,-0.122237496,0.1777875,-0.1925
1692466557277,-0.81195,0.042000003,8.596951,-0.0650375,0.15015,-0.146025
1692466557306,-0.61095005,-0.52605003,9.46605,0.02365,0.1288375,-0.0121
1692466557334,0.13695,-1.16805,11.179951,0.0616,0.1978625,-0.0418
1692466557364,-0.09195001,-1.27995,11.314051,0.00935,0.278025,-0.03355
1692466557391,-1.0639501,-0.26505002,10.357051,-0.099,0.20693749,0.1183875
1692466557420,-0.36195,-0.14595,10.396951,-0.2635875,0.0308,0.4519625
1692466557452,-0.30705002,-0.33705002,11.6320505,-0.2365,0.03795,0.4357375
1692466557480,-0.76695,-0.18405001,12.394051,-0.065175,0.1120625,0.207625
1692466557509,-0.88005006,0.058950003,11.944051,0.002475,0.0994125,0.16445
1692466557537,-0.61395,0.41295,11.094001,0.090475,0.081125,0.117837496
1692466557567,-0.64305,0.28395,11.067,0.1342,0.1032625,0.051975
1692466557596,-0.65895003,0.20505,11.2879505,0.1342,0.1032625,0.051975
1692466557626,-0.93495005,-0.15,13.303051,0.2338875,0.115637496,0.00825
1692466557651,-0.50100005,-0.07395,12.661951,0.2146375,0.107525,0.0735625
1692466557679,-0.32700002,0.018000001,12.262051,0.1700875,0.102575,0.1362625
1692466557710,-0.786,0.58605003,11.400001,0.084425,0.0743875,0.1373625
1692466557742,-0.43005002,0.54705,12.607051,0.086075,0.0174625,0.0441375
1692466557770,-0.0010500001,0.483,13.803,0.120725,2.75E-4,0.058025
1692466557797,-0.62595004,1.06005,13.861051,0.1837,-0.0452375,0.2156
