@ HyperIMU - ianovir
@ Date:Sun Aug 20 12:13:25 GMT+03:00 2023, Sampling Rate:25ms

timestamp,bma4xy_accelerometer.x,bma4xy_accelerometer.y,bma4xy_accelerometer.z,oem_pseudo_gyro.x,oem_pseudo_gyro.y,oem_pseudo_gyro.z
1692522805611,-0.29805002,-0.10005,9.79605,-0.3441625,0.153175,2.9574876
1692522805643,0.04605,-0.24900001,9.769951,-0.3218875,0.0941875,2.7168624
1692522805668,-0.264,-0.109950006,9.934951,-0.3064875,0.0576125,2.541275
1692522805698,-0.79095006,0.14805001,9.94005,-0.2695,-0.0174625,2.1038876
1692522805734,-0.46095002,0.23400001,9.387,-0.2008875,-0.0493625,1.5923874
1692522805764,-0.46800002,0.13800001,9.682051,-0.145475,-0.040425,1.318625
1692522805791,-0.17295001,-0.08805001,9.801001,-0.087037496,-0.0221375,1.050775
1692522805817,0.18705001,-0.54495,10.333051,-0.0215875,0.010725,0.71445
1692522805851,0.22095,-0.47595003,10.065001,-0.038225,-0.0020625,0.6826875
1692522805879,0.252,-0.25305,9.871051,-0.1530375,-0.1082125,0.748
1692522805911,0.58695,-0.49500003,10.12395,-0.1997875,-0.1643125,0.74965
1692522805929,0.30900002,-0.27705002,10.026,-0.2138125,-0.202125,0.6997375
1692522805970,-0.034950003,0.09705,9.559051,-0.17875,-0.240625,0.5897375
1692522805998,-0.05595,0.14505,9.327001,-0.104499996,-0.2146375,0.5193375
1692522806023,0.010050001,-0.01905,9.66195,-0.0495,-0.1670625,0.4437125
1692522806048,0.075,-0.30795002,9.993,0.0055,-0.114675,0.3689125
1692522806072,-0.13305001,-0.11895001,10.053,0.0583,-0.0488125,0.3179
1692522806100,-0.19695,-0.031050002,9.74895,0.050875,-0.0341,0.312675
1692522806127,-0.44400004,0.14295001,9.624001,0.0334125,-0.022275,0.2792625
1692522806156,-0.40800002,0.109050006,9.703051,0.020624999,0.0210375,0.1395625
1692522806186,-0.24300002,0.0139500005,10.036051,0.034375,0.0570625,0.0785125
1692522806209,0.024,-0.14595,10.246051,0.0537625,0.09405,0.0430375
1692522806241,-0.13695,-0.060000002,9.85095,0.06215,0.1192125,0.1038125
1692522806267,-0.09900001,0.0,9.691051,0.04675,0.09845,0.18205
1692522806293,-0.09900001,0.07395,9.84195,0.013475,0.0378125,0.23127499
1692522806320,-0.05595,0.064050004,9.97395,0.0086624995,0.015262499,0.1958
1692522806348,-0.022950001,0.025950002,9.7890005,0.0086624995,0.015262499,0.1958
1692522806377,-0.126,0.18405001,9.247951,0.0240625,-0.0119624995,0.1527625
1692522806406,-0.10395,0.18405001,9.59805,0.0372625,-0.0281875,0.1623875
1692522806438,-0.10395,0.18405001,9.59805,0.0372625,-0.0281875,0.1623875
1692522806468,-0.10395,0.18405001,9.59805,0.0372625,-0.0281875,0.1623875
1692522806508,-0.10395,0.18405001,9.59805,0.0372625,-0.0281875,0.1623875
1692522806523,-0.10395,0.18405001,9.59805,0.0372625,-0.0281875,0.1623875
1692522806556,-0.043950003,0.03795,9.933001,0.0231,-0.0127875,-0.0342375
1692522806581,-0.043950003,0.03795,9.933001,0.0231,-0.0127875,-0.0342375
1692522806619,-0.043950003,0.03795,9.933001,0.0231,-0.0127875,-0.0342375
1692522806650,-0.37695003,0.20505,9.79905,0.013612499,0.03355,-0.0429
1692522806698,-0.23295002,0.15495001,9.804001,0.0323125,0.056649998,-0.127875
1692522806718,-0.19995001,0.112050004,9.784051,0.0429,0.0721875,-0.2321
1692522806747,-0.22095,0.078,9.780001,0.0429,0.0721875,-0.2321
1692522806773,-0.16605,0.081,9.877951,0.0301125,0.0510125,-0.3642375
1692522806808,-0.15195,0.09,9.744,0.00825,0.01925,-0.3438875
1692522806836,-0.16095,0.15495001,9.684,-0.00605,-0.0023375,-0.2330625
1692522806868,-0.14505,0.11895001,9.58605,-0.007425,-0.0089375,-0.1885125
1692522806904,-0.126,-0.024,10.066951,-0.0020625,-0.009075,-0.0897875
1692522806925,-0.10605001,-0.0139500005,9.966001,2.75E-4,-0.01045,-0.0341
1692522806953,-0.16095,0.07395,9.777,-0.0056375,-0.011825,0.026675
1692522806978,-0.16905001,0.162,9.535951,-0.031625,-0.0160875,0.2332
1692522807012,-0.16905001,0.11895001,9.739051,-0.0281875,-0.0121,0.4334
1692522807041,-0.147,0.076050006,9.693001,-0.015262499,-0.0072875,0.4258375
1692522807069,-0.16395001,0.058950003,9.8869505,-0.0031625,-0.003575,0.351725
1692522807100,-0.16095,-0.064050004,10.036051,0.00495,-0.002475,0.111925
1692522807125,-0.22095,0.049950004,10.029,6.875E-4,-0.0033,-0.0015125
1692522807163,-0.19305001,0.09,9.741,-0.0166375,-0.001375,-0.0977625
1692522807185,-0.264,0.14295001,9.636001,-0.017324999,-0.0,-0.0837375
1692522807211,-0.3,0.124050006,9.703051,-0.0111375,0.0028875,-0.0385
1692522807237,-0.21195,0.10005,9.816001,0.0056375,0.0180125,0.0468875
1692522807264,-0.30495003,0.13605,9.77505,0.0121,0.0275,0.0495
1692522807293,-0.28800002,0.10695001,9.66705,0.014575,0.0325875,0.0570625
1692522807318,-0.3,0.08295,9.84,0.014025,0.0301125,0.077
1692522807345,-0.22605,-0.0019500001,10.030951,0.01485,0.030524999,0.0889625
1692522807372,-0.26895002,0.061950002,9.8539505,0.012925,0.0356125,0.09625
1692522807400,-0.34800002,0.076050006,9.84,0.0055,0.0356125,0.1079375
1692522807427,-0.3,0.025950002,9.86295,-0.003575,0.0352,0.126225
1692522807455,-0.25995,0.00405,10.012051,-0.0121,0.0386375,0.1332375
1692522807482,-0.252,0.033,9.816001,-0.01375,0.0385,0.1093125
1692522807510,-0.39105,0.13305001,9.708,-0.0165,0.03355,0.073699996
1692522807538,-0.39405003,0.15195,9.68595,-0.0155375,0.0185625,-0.015675
1692522807568,-0.26895002,0.08805001,9.65295,-0.0075625,0.0193875,-0.0320375
1692522807597,-0.21405001,0.064050004,9.64995,0.011825,0.0341,0.0177375
1692522807625,-0.22395001,0.066,9.777,0.013062499,0.0308,0.0257125
1692522807651,-0.20505,-0.049950004,9.969001,0.00935,0.0188375,0.01265
1692522807679,-0.21195,-0.025950002,9.897,-0.0044,-0.0092124995,-0.015125
1692522807708,-0.29295,0.009000001,9.901951,-0.0163625,-0.020075,-0.0097624995
1692522807737,-0.31905,-0.012,9.92595,-0.0396,-0.0287375,0.067375
1692522807764,-0.37005,0.03795,9.89505,-0.044275,-0.024475,0.113025
1692522807794,-0.34800002,0.105000004,9.736951,-0.0391875,-0.0026125,0.1442375
1692522807820,-0.453,0.14805001,9.700951,-0.03135,0.0092124995,0.131725
1692522807848,-0.42495003,0.14805001,9.66195,-0.0198,0.01925,0.1073875
1692522807877,-0.33900002,0.14505,9.636001,0.0154,0.0361625,0.034375
1692522807906,-0.27195,0.10695001,9.62895,0.0331375,0.0419375,0.0122375
1692522807931,-0.27195,0.109050006,9.901951,0.0430375,0.0429,0.0385
1692522807961,-0.20895001,0.049950004,10.048051,0.0358875,0.0257125,0.1848
1692522807988,-0.231,0.030000001,9.978001,0.0270875,0.01155,0.2006125
1692522808016,-0.20205002,0.052050002,9.897,0.00935,-0.012925,0.088825
1692522808047,-0.16395001,0.042000003,9.861,-2.75E-4,-0.0221375,0.0240625
1692522808073,-0.28095,0.126,9.712951,-0.0116875,-0.033825,-0.083325
1692522808099,-0.35805002,0.14805001,9.724951,-0.01155,-0.0356125,-0.0793375
1692522808128,-0.40995002,0.08805001,9.745951,-0.009625,-0.032175,-0.01045
1692522808158,-0.55200005,0.11400001,9.847051,-0.0031625,-0.00275,0.1500125
1692522808186,-0.504,0.078,9.712951,5.5E-4,0.0185625,0.161425
1692522808213,-0.432,0.045,9.727051,0.00385,0.0405625,0.1302125
1692522808242,-0.31695002,0.052050002,9.672001,0.0078375,0.072875,0.0034375
1692522808269,-0.28095,0.042000003,9.72,0.0072875,0.073699996,-0.07535
1692522808297,-0.30705002,0.08295,9.70995,0.001925,0.0429,-0.2096875
1692522808327,-0.37695003,0.07395,9.526051,1.375E-4,0.0213125,-0.237325
1692522808352,-0.43695003,0.102000006,9.684,4.125E-4,-0.001925,-0.164175
1692522808382,-0.24000001,0.025950002,9.717,0.001375,-0.0011,-0.080575
1692522808409,-0.29295,0.034950003,9.81105,0.0015125,0.0020625,0.002475
1692522808438,-0.33105,0.069000006,9.658051,-0.0059125,-0.00165,0.121825
1692522808464,-0.28095,-0.025950002,9.84,-0.0116875,-0.0088,0.1419
1692522808495,-0.609,0.052050002,9.96405,-0.01485,-0.0149875,0.1225125
1692522808522,-0.94200003,0.112050004,9.81795,-0.011,-0.007425,0.0699875
1692522808550,-0.69795,0.13605,9.784051,-0.0099,0.012925,0.0605
1692522808577,-0.70005006,0.33,9.64605,0.0050875,0.1032625,-0.054725
1692522808606,-0.98205006,0.59295005,9.45405,0.0185625,0.1387375,-0.132825
1692522808633,-0.85995007,0.53295004,9.66195,0.0396,0.152075,-0.1876875
1692522808665,-0.81195,0.65295005,9.79605,0.1161875,0.1593625,-0.2611125
1692522808693,-0.45600003,0.43305,9.90705,0.175725,0.159775,-0.219725
1692522808721,0.058050003,-0.18195,10.287001,0.17985,0.1447875,-0.1324125
1692522808749,0.55605,-0.60795003,10.17,0.1632125,0.1104125,-0.0066
1692522808776,0.52695,-0.21000001,9.09,0.0138875,-0.0528,0.3645125
1692522808805,-0.049050003,-0.84900004,10.057051,-0.1018875,-0.1725625,0.5781875
1692522808833,-0.528,-0.933,12.39105,-0.2553375,-0.342925,0.7574875
1692522808864,-0.56100005,-0.028050002,9.354,-0.2963125,-0.3309625,0.6527125
1692522808890,-0.62805,0.28395,9.081,-0.327525,-0.2553375,0.4752
1692522808918,-0.669,-0.040050004,9.772051,-0.26785,-0.0518375,0.117975
1692522808947,-0.762,-0.23700002,9.981001,-0.1722875,0.027224999,-0.02915
1692522808974,-0.46800002,-0.30405003,10.416,-0.0265375,0.122925,-0.2068
1692522809000,-0.27600002,-0.14295001,9.82005,-0.0103124995,0.141625,-0.2121625
1692522809028,-0.41505003,0.32700002,8.81505,-0.01705,0.1375,-0.16995
1692522809054,-0.50100005,0.59505004,8.367001,-0.0163625,0.07205,-0.070125
1692522809083,-0.492,0.141,9.708,0.0242,0.044825,-0.07755
1692522809113,-0.64005005,0.126,10.029,0.0853875,0.0367125,-0.113575
1692522809141,-1.29795,-0.01905,9.90705,0.158125,0.0455125,-0.1007875
1692522809169,-0.966,-0.56895,10.45905,0.146575,0.0583,-0.050875
1692522809195,-0.50895,-0.84900004,10.77105,0.118525,0.0902,-0.0416625
1692522809224,-0.55905,-0.53805,10.218,0.014712499,0.1661,-0.1612875
1692522809253,-0.43905002,-0.52905005,9.8869505,-0.15565,0.1051875,-0.0617375
1692522809279,-0.56100005,-0.55005,9.89505,-0.2063875,0.0484,0.0372625
1692522809310,-0.90105003,-0.246,9.556951,-0.2173875,0.00715,0.0840125
1692522809333,-0.99705005,-0.18405001,9.58605,-0.20295,-0.0122375,0.0804375
1692522809364,-0.88695,-0.38295,9.835051,-0.1414875,0.0166375,-0.0044
1692522809390,-0.59505004,-0.57195,10.234051,-0.1013375,0.0548625,-0.0796125
1692522809418,-0.67395,-0.09105001,9.613951,-0.0578875,0.09735,-0.1832875
1692522809446,-0.57600003,0.15195,9.339001,-0.0620125,0.083875,-0.1546875
1692522809476,-0.57105005,0.342,9.342,-0.02585,0.0295625,0.0182875
1692522809503,-0.67605,0.363,9.49695,0.0303875,0.0083875,0.09515
1692522809532,-0.59505004,0.30105,9.65295,0.095425,-0.005775,0.122099996
1692522809558,-0.528,0.124050006,9.877951,0.20487499,-0.013612499,-0.0232375
1692522809587,-0.48900002,0.10695001,9.880051,0.2283875,-0.0149875,-0.092125
1692522809612,-0.56100005,0.11400001,9.8539505,0.2211,-0.0226875,-0.066825
1692522809644,-0.45600003,0.049950004,9.835051,0.149325,-0.047025,0.134475
1692522809673,-0.67800003,0.21495001,9.703051,0.0867625,-0.0551375,0.16885
1692522809702,-0.66405004,0.25500003,9.603001,0.0867625,-0.0551375,0.16885
1692522809728,-0.64500004,0.28395,9.571051,0.0583,-0.0416625,0.0620125
1692522809759,-0.609,0.19305001,9.777,0.073975,-0.007425,-0.062425
1692522809789,-0.67605,0.162,10.041,0.0856625,0.006325,-0.105325
1692522809816,-0.67095006,0.21705002,9.892051,0.0842875,0.0174625,-0.1483625
1692522809843,-0.71895003,0.26505002,9.898951,0.073975,0.0196625,-0.15345
1692522809872,-0.70695,0.30795002,9.780001,0.0639375,0.021175,-0.1469875
1692522809899,-0.67395,0.23895001,9.80805,0.0572,0.0237875,-0.1021625
1692522809928,-0.57795,0.162,9.74895,0.0578875,0.0264,-0.0801625
1692522809961,-0.64995,0.23400001,9.49005,0.0501875,0.025024999,-0.0897875
1692522809988,-0.633,0.354,9.327001,0.038775,0.018975,-0.080575
1692522810015,-0.57795,0.22905001,9.559051,0.0286,0.011825,-0.0397375
1692522810043,-0.55905,0.186,9.732,0.0292875,0.0028875,0.047025
1692522810072,-0.717,0.31005,9.366,0.0273625,-0.00385,0.0691625
1692522810099,-0.60705,0.33900002,9.19995,0.0070125,-0.0176,0.0908875
1692522810125,-0.609,0.36105,9.114,0.0066,-0.01265,0.0853875
1692522810155,-0.633,0.27195,9.16005,0.029424999,0.00825,0.0862125
1692522810177,-0.70995003,0.34395,9.0379505,0.0391875,0.01375,0.10725
1692522810209,-0.71205,0.34905002,8.740951,0.0435875,0.016224999,0.11385
1692522810236,-0.66195005,0.32505003,8.39595,0.045925,0.0242,0.03795
1692522810266,-0.786,0.24795002,7.8700504,0.049775,0.0328625,-0.0163625
1692522810296,-0.83895004,0.066,7.9510503,0.05775,0.056649998,-0.113437496
1692522810321,-0.666,-0.18900001,8.24505,0.0482625,0.0713625,-0.147675
1692522810350,-0.51795,-0.33195,8.03205,0.0215875,0.0842875,-0.16555
1692522810377,-0.513,-0.097950004,6.9619503,-0.0251625,0.089237496,-0.15895
1692522810407,-0.573,0.18795002,5.42595,-0.148775,0.0584375,-0.0451
1692522810437,-0.58305,0.040050004,5.268,-0.170775,0.0204875,0.062425
1692522810467,-0.11595,-0.273,6.0859504,-0.127875,0.0251625,0.0616
1692522810493,0.058050003,-0.36405003,6.5530505,-0.0831875,0.0369875,0.045649998
1692522810523,0.028950002,-0.51405,6.6150002,-0.0878625,-0.017875,0.100237496
1692522810547,-0.11400001,-0.82605004,6.69705,-0.140525,-0.1012,0.2000625
1692522810577,-0.30705002,-0.86100006,8.34795,-0.27719998,-0.249425,0.3950375
1692522810605,-0.38205,-0.61200005,8.178,-0.346225,-0.2673,0.411125
1692522810634,-0.59895,-0.43995002,7.9459505,-0.41965,-0.198825,0.2343
1692522810663,-0.231,-0.83505005,10.13595,-0.3906375,-0.1425875,0.087725
1692522810691,-0.48705003,-1.041,10.43805,-0.3301375,-0.0935,-0.0510125
1692522810720,-0.28395,-1.02705,10.61295,-0.230175,-0.0510125,-0.174625
1692522810748,-0.003,-1.3930501,10.809001,-0.21573749,-0.0455125,-0.14905
1692522810776,-0.171,-1.31595,10.749001,-0.2182125,-0.044825,-0.0939125
1692522810806,-0.726,-1.5340501,12.135,-0.2523125,-0.1012,0.0562375
1692522810835,-0.85605,-1.09395,13.738951,-0.26633748,-0.1249875,0.108625
1692522810861,-0.63795,-1.218,13.20705,-0.26633748,-0.1249875,0.108625
1692522810891,-0.19995001,-1.47195,12.778951,-0.19167499,-0.02035,-0.0367125
1692522810920,-0.20895001,-1.45305,12.444,-0.091025,0.037675,-0.123475
1692522810948,0.06705,-1.8690001,12.26895,-0.07865,0.0127875,-0.0389125
1692522810975,-0.18300001,-1.7370001,12.987,-0.0900625,-0.0270875,0.1049125
1692522811001,-0.11100001,-1.5679501,14.566951,-0.1296625,-0.1027125,0.4202
1692522811035,-0.171,-1.5679501,14.18595,-0.1593625,-0.1695375,0.6967125
1692522811057,-0.441,-1.23,13.078051,-0.1447875,-0.1882375,0.768625
1692522811089,-0.27405003,-0.61995006,12.078001,-0.1139875,-0.18645,0.7599625
1692522811119,-0.97005004,-1.881,12.504001,-0.02585,-0.1170125,0.537625
1692522811146,-0.43905002,-2.43195,16.23105,0.0202125,-0.067375,0.418275
1692522811173,0.13695,-2.2429502,15.591001,0.037125,-0.0202125,0.3441625
1692522811202,-0.91305006,-1.11,13.806001,-0.0592625,0.0187,0.321475
1692522811234,-0.70500004,-1.6510501,13.614,-0.11715,-0.0105875,0.2882
1692522811261,-0.63795,-1.7590501,14.398951,-0.0884125,0.0094875,0.2072125
1692522811290,-1.143,-1.8430501,14.229001,-0.054175,0.0512875,0.12265
1692522811315,-1.5330001,-2.1370502,14.325001,-0.034649998,0.124025,-0.0160875
1692522811344,-1.1209501,-2.32395,14.019001,-0.0385,0.16293749,-0.1637625
1692522811372,-0.74505,-2.1319501,12.385951,-0.0466125,0.21395,-0.37015
1692522811402,-0.54195005,-2.085,11.65095,-0.0895125,0.2695,-0.599775
1692522811430,-0.432,-2.29305,12.0730505,-0.1199,0.2371875,-0.5275875
1692522811458,-0.60705,-2.568,12.571051,-0.170225,0.1161875,-0.295075
1692522811488,-0.52500004,-2.9179502,12.37005,-0.186725,0.064625,-0.2508
1692522811518,-0.66195005,-3.1710002,11.635051,-0.2239875,0.0143,-0.304975
1692522811547,-0.79605,-3.10695,11.653951,-0.2591875,0.0114124995,-0.328075
1692522811574,-0.68595004,-2.87895,11.13,-0.30525,0.0149875,-0.3125375
1692522811603,-0.19995001,-2.226,9.43995,-0.375925,0.03795,-0.2476375
1692522811630,-0.087000005,-1.575,7.3570504,-0.3768875,0.043725,-0.221375
1692522811659,0.028950002,-1.50495,5.11905,-0.3053875,-0.0122375,-0.117975
1692522811688,0.075,-1.5649501,4.7509503,-0.249425,-0.05775,-0.0559625
1692522811713,-0.48705003,-1.161,4.8700504,-0.2052875,-0.0917125,-0.0092124995
1692522811744,-1.50705,-0.38505003,3.55395,-0.19415,-0.10615,0.0402875
1692522811777,-0.79800004,-0.54105,2.26395,-0.1299375,0.0859375,-0.1791625
1692522811805,0.72795004,-1.67805,3.6450002,-0.0396,0.2915,-0.423775
1692522811832,1.44105,-1.9290001,6.4170003,0.037675,0.4686,-0.6290625
1692522811860,-0.123,-1.077,6.35895,-0.0809875,0.2283875,-0.4351875
1692522811889,-0.83595,-0.56700003,5.301,-0.2123,-0.17655,-0.0716375
1692522811916,0.642,0.34905002,6.5550003,-0.141625,-0.5099875,0.16335
1692522811944,1.317,0.684,7.056,0.0559625,-0.3389375,-0.009075
1692522811972,-0.40995002,-0.54105,6.2299504,0.3117125,-0.2138125,-0.0924
1692522812000,-0.54,-3.8890502,9.753,0.8014875,-0.3927,0.1456125
1692522812027,1.7569501,-4.59495,15.153001,0.801075,-0.376475,0.164175
1692522812057,0.69405,-2.12805,9.97605,0.005225,-0.1060125,0.14245
1692522812083,-0.81705004,-0.47805002,7.5060005,-0.4269375,-0.2250875,0.4079625
1692522812112,-1.36995,0.15705001,7.73295,-0.593175,-0.4494875,0.698225
1692522812137,-1.45395,-0.20295002,8.911051,-0.23567499,-0.30827498,0.3650625
1692522812169,-1.1190001,-1.5010501,10.488001,0.07095,0.0644875,-0.1579875
1692522812195,-0.09195001,-2.5510502,11.158051,0.505175,0.659725,-0.91025
1692522812224,0.67305005,-2.937,10.632001,0.516175,0.72655,-0.9494375
1692522812250,0.30405003,-2.4799502,9.861,0.379775,0.6259,-0.754325
1692522812279,-0.23805001,-1.9219501,9.579,-0.0743875,0.117837496,0.0169125
1692522812307,-0.33600003,-1.5649501,9.703051,-0.2283875,-0.1005125,0.3179
1692522812336,-0.55200005,-1.125,9.318001,-0.27775,-0.2003375,0.434225
1692522812365,-0.83595,-0.96900004,8.98305,-0.14355,-0.1214125,0.2630375
1692522812391,-0.372,-1.2250501,9.291,-0.0292875,-0.0317625,0.12815
1692522812419,-0.01305,-1.4650501,9.468,0.1626625,0.138875,-0.0991375
1692522812445,-0.087000005,-1.4430001,9.021001,0.20515,0.1689875,-0.1516625
1692522812477,-0.025050001,-1.24695,8.097,0.170775,0.0451,-0.016775
1692522812504,-0.26700002,-1.02195,8.08695,0.1255375,-0.043449998,0.119625
1692522812529,-0.17805001,-1.1869501,8.29605,0.086625,-0.10175,0.2325125
1692522812561,-0.03195,-1.04295,7.9339504,0.063525,-0.1101375,0.2514875
1692522812589,0.027,-0.84195006,7.15395,0.073975,-0.086075,0.1739375
1692522812617,-0.16605,-0.624,5.727,0.095425,-0.069575,0.0650375
1692522812647,-0.98700005,-0.57195,4.88205,0.1093125,-0.07755,0.061049998
1692522812684,-0.62595004,-0.624,5.5690503,0.1406625,-0.0100375,-0.0473
1692522812710,0.11805001,-0.97395,5.32305,0.1524875,0.122099996,-0.23155
1692522812743,-0.29295,-0.933,4.54995,0.158125,0.3812875,-0.59565
1692522812771,-0.74805003,-0.94995004,4.617,0.1194875,0.3419625,-0.5737875
1692522812797,-0.33900002,-1.074,5.3830504,-0.0347875,0.114125,-0.3172125
1692522812825,-0.18495001,-0.99495006,6.0340505,-0.102437496,0.096525,-0.2784375
1692522812852,-0.89400005,-0.76995003,6.79995,-0.146025,0.1309,-0.2979625
1692522812881,-1.07595,-1.1869501,7.518,-0.1384625,0.1665125,-0.291225
1692522812911,-0.702,-1.9600501,10.648951,-0.084425,0.1926375,-0.277475
1692522812942,0.015000001,-2.56095,12.559051,0.0048125,0.2875125,-0.2960375
1692522812977,-1.6720501,-1.2919501,10.88805,-0.08965,0.0881375,0.022275
1692522813004,-1.5499501,-1.029,10.717951,-0.148225,-0.0790625,0.2701875
1692522813036,-0.79305005,-1.98195,11.91495,-0.138325,-0.131725,0.374825
1692522813066,-0.57795,-2.5800002,13.497001,0.0367125,0.05775,0.1617
1692522813095,-1.18095,-3.08295,14.14095,0.056925,0.0416625,0.1489125
1692522813123,-0.75495005,-2.973,14.731951,-0.0155375,-0.0339625,0.2341625
1692522813149,0.50805,-3.1999502,14.79195,-0.1035375,-0.085525,0.29755
1692522813185,-0.28800002,-1.9429501,14.038051,-0.223025,-0.1375,0.3876125
1692522813212,-1.5589501,-0.92595005,13.071001,-0.2187625,-0.3628625,0.801625
1692522813243,-2.12205,-0.33195,14.206051,-0.1496,-0.4412375,1.00815
1692522813271,-0.69495004,-0.96000004,14.931001,-0.0253,-0.3889875,1.039225
1692522813298,-0.027,-1.23,14.074051,0.28861248,-0.0496375,0.6782875
1692522813330,-1.1689501,-1.536,14.103001,0.384725,0.0342375,0.557425
1692522813358,-1.2360001,-2.16105,15.795001,0.359975,-0.069025,0.6474875
1692522813387,-1.18605,-2.50605,16.465052,0.286825,-0.1109625,0.7016625
1692522813416,-0.94200003,-2.6140501,16.68795,0.201575,-0.0946,0.6881875
1692522813444,-1.11405,-2.67105,15.43605,0.0254375,-0.023375,0.5253875
1692522813479,-1.9729501,-2.38905,15.946051,-0.104775,-0.0169125,0.32615
1692522813510,-1.9470001,-2.40105,15.64605,-0.1353,0.0020625,0.190025
1692522813543,-2.42595,-2.0059502,14.184001,-0.125675,0.133925,-0.1904375
1692522813578,-2.2099502,-2.32905,12.867001,-0.065725,0.29095,-0.4866125
1692522813603,-1.15995,-2.664,12.20205,-0.0408375,0.34814999,-0.5383125
1692522813641,-0.25995,-3.1350002,12.894001,-0.057475,0.3716625,-0.4937625
1692522813676,0.18,-3.10905,11.047951,-0.1881,0.1450625,-0.2552
1692522813697,-0.066,-3.1570501,9.46605,-0.26565,-0.0174625,-0.108625
1692522813725,0.21300001,-2.69295,7.04895,-0.3293125,-0.15125,-0.009625
1692522813750,0.58005005,-2.74005,7.36005,-0.380875,-0.2388375,0.039875
1692522813779,0.651,-2.532,7.7880006,-0.4725875,-0.3345375,0.13365
1692522813809,0.69195,-2.154,5.9380503,-0.500225,-0.3782625,0.166375
1692522813840,0.54795,-1.503,3.7740002,-0.4819375,-0.4508625,0.0886875
1692522813871,0.031050002,-0.74700004,2.09805,-0.4521,-0.462,0.020624999
1692522813898,-1.09695,0.33900002,2.0650501,-0.4230875,-0.454025,-0.0416625
1692522813927,-1.3270501,0.95400006,2.18205,-0.3377,-0.29535,-0.31515
1692522813955,0.201,-0.24405001,3.9150002,0.0400125,0.36685,-1.2419
1692522813979,1.2349501,-0.85695004,4.827,0.352,0.7558375,-1.764125
1692522814007,0.88605005,-0.45195,3.82695,0.6018375,0.896225,-1.9459
1692522814034,-0.063,-0.33495003,4.67205,0.6180625,0.243375,-1.0731875
1692522814061,0.34695002,-0.92100006,7.3120503,0.52415,-0.1590875,-0.4943125
1692522814090,0.462,-2.3410501,12.267,0.4706625,-0.359975,-0.135025
1692522814122,-1.7680501,-3.7360501,9.43995,0.385,-0.3645125,0.104225
1692522814152,0.91005003,-4.38495,13.02105,-0.0622875,-0.1571625,0.126225
1692522814180,1.9270501,-3.8509502,14.00895,-0.38005,0.0418,0.0496375
1692522814208,-0.32895002,-1.11,9.64095,-0.623425,0.115637496,0.094875
1692522814235,-1.12395,-0.07395,8.299951,-0.6018375,-0.21835,0.5622375
1692522814266,-1.6140001,-0.079050004,8.425051,-0.3488375,-0.2745875,0.594
1692522814294,-1.047,-1.02195,8.78205,-0.029975,-0.130625,0.385275
1692522814324,0.072000004,-1.9909501,9.682051,0.4717625,0.3856875,-0.247225
1692522814350,1.0030501,-2.3770502,10.43805,0.55165,0.5262125,-0.4142875
1692522814378,1.3410001,-2.52705,10.099951,0.3499375,0.31735,-0.2165625
1692522814405,1.4080501,-2.63505,10.00695,0.16499999,0.0323125,0.0798875
1692522814433,0.72795004,-2.29005,10.14795,-0.12595,-0.5174125,0.639925
1692522814460,0.264,-1.93095,9.61005,-0.20185,-0.6719625,0.79254997
1692522814490,-0.09900001,-1.5480001,9.880051,-0.227425,-0.71596247,0.845075
1692522814519,0.23295002,-1.524,8.83395,-0.143825,-0.506275,0.6628875
1692522814548,0.24705002,-1.55805,8.07495,-0.066,-0.3372875,0.49513748
1692522814576,0.42600003,-1.59405,8.158951,0.050875,-0.114675,0.2509375
1692522814602,-0.13305001,-1.1920501,7.7449503,0.066,-0.0699875,0.180675
1692522814629,-0.17805001,-0.98100007,7.1350503,0.062425,-0.0433125,0.1216875
1692522814659,-0.14895001,-0.79695004,5.92605,0.072875,0.0254375,0.01045
1692522814690,-1.4250001,-1.0669501,6.2040005,0.100925,0.0776875,-0.0407
1692522814721,-0.49395,-1.4790001,6.912,0.14533749,0.205425,-0.1628
1692522814747,0.651,-1.7730001,7.12305,0.1401125,0.33055,-0.31295
1692522814779,0.16605,-0.99300003,5.5519505,0.0683375,0.5028375,-0.51301247
1692522814805,-0.07005,-0.64095,4.62405,0.0061875,0.377575,-0.3493875
1692522814831,-0.55605,-0.48795003,4.82205,-0.039049998,0.1755875,-0.12045
1692522814860,-0.46095002,-0.59295005,5.301,0.002475,-0.0023375,-0.0369875
1692522814890,-0.57105005,-0.65805006,4.9159503,0.0620125,0.0554125,-0.1637625
1692522814918,-1.1209501,-0.74700004,4.33395,0.164725,0.2569875,-0.4525125
1692522814946,-0.67095006,-1.5600001,5.6790004,0.1848,0.342375,-0.54821247
1692522814974,0.20895001,-2.7190502,11.106001,0.1082125,0.501875,-0.6367625
1692522815001,-0.35295,-3.05205,12.348001,-0.0292875,0.4664,-0.5399625
1692522815032,-0.432,-2.74005,10.593,-0.203225,0.2938375,-0.3174875
1692522815054,-0.70995003,-2.8549502,10.395,-0.3971,-0.07425,0.12485
1692522815084,-0.46800002,-3.2770503,12.247951,-0.4043875,-0.1265,0.23127499
1692522815114,0.69000006,-3.6160502,13.078051,-0.367675,-0.0897875,0.2534125
1692522815142,-0.17805001,-2.535,12.37905,-0.3535125,-0.099825,0.24447499
1692522815170,-1.9609501,-1.9620001,12.252001,-0.3411375,-0.17985,0.31625
1692522815200,-1.3770001,-2.3410501,13.252951,-0.19139999,-0.25753748,0.4013625
1692522815228,-0.915,-2.8170002,13.561951,-0.0435875,-0.0749375,0.177925
1692522815257,-1.15695,-2.28795,14.248951,0.172425,0.31033748,-0.2165625
1692522815287,-2.0380502,-1.43295,13.264951,0.18727499,0.2998875,-0.0985875
1692522815317,-1.8780001,-0.49800003,12.135,0.1909875,0.1786125,0.2732125
1692522815343,-1.4419501,-0.49500003,11.91195,0.261525,0.201025,0.2943875
1692522815370,-0.61395,-0.96195006,13.49205,0.374825,0.25753748,0.2066625
1692522815402,-1.15005,-0.72300005,13.779,0.5570125,0.2558875,0.0682
1692522815432,-1.3410001,-0.648,14.092951,0.5691125,0.161975,0.141625
1692522815461,-0.96105003,-1.62495,15.835951,0.5050375,0.0044,0.3240875
1692522815486,-0.28095,-1.8720001,15.946051,0.459525,-0.018424999,0.3553
1692522815515,-0.18300001,-1.09095,14.988001,0.300575,-0.09295,0.4742375
1692522815544,-0.78405005,-0.55695003,13.462951,0.1967625,-0.1786125,0.6037625
1692522815572,-0.94395006,-0.58905005,13.566001,0.124437496,-0.2641375,0.7220125
1692522815602,-0.16905001,-1.764,14.440051,0.13805,-0.2765125,0.6345625
1692522815628,-0.72900003,-2.0410502,15.582001,0.17407499,-0.2102375,0.4214375
1692522815658,-1.8900001,-1.8360001,14.440051,0.114675,-0.1428625,0.10395
1692522815689,-1.8250501,-2.0700002,13.84395,0.02695,-0.132,0.055275
1692522815717,0.16995001,-2.8579502,12.990001,-0.095425,6.875E-4,-0.095425
1692522815747,0.08205,-2.60205,11.887951,-0.13585,0.0702625,-0.17847499
1692522815772,-0.83595,-1.9390501,11.61795,-0.1953875,0.0754875,-0.2006125
1692522815800,-0.9799501,-2.07495,10.909051,-0.3235375,-0.048675,-0.138875
1692522815828,0.675,-2.4769502,9.99495,-0.3290375,-0.068475,-0.1703625
1692522815855,0.01695,-2.1420002,9.703051,-0.2718375,-0.0345125,-0.1651375
1692522815884,-2.0760002,-1.6699501,9.073951,-0.2754125,-0.0862125,0.0116875
1692522815910,-1.5280501,-2.13,7.5820503,-0.2905375,-0.1574375,0.1753125
1692522815939,0.31605002,-2.7810001,7.18305,-0.251075,-0.017875,-0.0699875
1692522815966,1.0030501,-2.32605,5.8999505,-0.23375,0.1584,-0.33261248
1692522815997,-0.65205,-0.58395004,4.98495,-0.3559875,0.151525,-0.3224375
1692522816026,-1.2360001,0.19995001,3.594,-0.42625,-0.0400125,-0.0749375
1692522816055,-0.54,0.37695003,2.93595,-0.258775,-0.0787875,-0.16885
1692522816083,0.29205,-0.19800001,3.42705,-0.034925,0.1555125,-0.63085
1692522816113,0.024,-0.42600003,5.5860004,0.18933749,0.37565,-1.0659
1692522816139,0.26595002,-0.78495,5.2699504,0.4302375,0.365475,-1.181675
1692522816166,0.58695,-1.218,5.34705,0.4437125,0.2000625,-0.979
1692522816198,0.35700002,-0.75405,7.7590504,0.3122625,-0.1395625,-0.5247
1692522816223,-0.46305,0.186,8.962951,0.1964875,-0.28985,-0.2932875
1692522816250,-1.7410501,-0.21300001,9.118951,0.1225125,-0.3964125,-0.1040875
1692522816286,-0.43395,-3.1350002,7.8499503,0.287375,-0.21505,-0.2112
1692522816317,2.45595,-4.04295,11.6629505,0.348425,0.3713875,-0.7838875
1692522816344,1.59195,-2.2110002,11.71395,0.0616,0.402325,-0.7492375
1692522816368,-0.09,-0.98595005,8.608951,-0.3427875,0.0826375,-0.2915
1692522816398,-1.0830001,-0.57900006,8.05395,-0.6571125,-0.7926875,0.89705
1692522816426,-1.3579501,-0.83505005,8.82495,-0.47685,-0.81427497,0.9521875
1692522816454,-1.14795,-1.21305,10.5379505,-0.2305875,-0.5468375,0.64033747
1692522816479,-0.07305,-2.0389502,11.203951,0.137225,0.190025,-0.227425
1692522816511,0.61995006,-2.1679502,9.898951,0.2215125,0.411125,-0.47685
1692522816544,1.4080501,-2.4439502,9.10005,0.1511125,0.3339875,-0.3235375
1692522816568,0.975,-2.18505,9.40905,0.0350625,0.1078,-0.00275
1692522816595,0.14400001,-1.6680001,9.696,-0.1881,-0.3843125,0.6567
1692522816623,-0.11400001,-1.33305,10.14795,-0.2363625,-0.517275,0.80685
1692522816650,0.027,-1.2060001,9.792001,-0.2162875,-0.5146625,0.7753625
1692522816681,0.19905001,-0.9979501,8.941951,-0.0383625,-0.25245,0.4167625
1692522816713,0.13695,-0.80205005,7.8240004,0.1387375,-0.07755,0.2479125
1692522816742,0.063,-0.837,7.8529506,0.1929125,-0.06215,0.2773375
1692522816768,-0.30495003,-0.75405,7.4149504,0.2250875,-0.0609125,0.3003
1692522816796,-0.303,-0.84705,6.8980503,0.24419999,-0.0237875,0.1945625
1692522816823,-0.135,-0.9480001,6.4069505,0.2376,0.0268125,0.0968
1692522816851,-0.36,-1.12905,6.0379505,0.2198625,0.0864875,0.0034375
1692522816883,0.132,-1.3930501,6.1720505,0.143275,0.146025,-0.0658625
1692522816913,-0.13305001,-0.9670501,5.8660502,-0.0044,0.1266375,-0.0242
1692522816941,-0.372,-0.75105006,5.1460505,-0.0840125,0.1106875,-0.0276375
1692522816965,-0.52305,-0.67905,4.293,-0.131175,0.09955,-0.050049998
1692522816992,-0.31005,-0.97200006,4.3650002,-0.1318625,0.1078,-0.08635
1692522817021,0.01905,-0.96900004,4.7460003,-0.0829125,0.1890625,-0.180125
1692522817044,-0.08205,-1.161,5.37795,-0.0886875,0.21779999,-0.20295
1692522817074,-1.18605,-1.3759501,7.4080505,-0.142175,0.1612875,-0.124575
1692522817101,-0.80100006,-1.52205,8.767051,-0.159775,0.13213749,-0.070675
1692522817130,-0.231,-1.761,9.670051,-0.1593625,0.1791625,-0.08635
1692522817161,-0.50895,-1.7260501,10.227,-0.102437496,0.3278,-0.2024
1692522817186,-0.77895004,-1.8859501,10.984051,-0.06985,0.2699125,-0.150975
1692522817217,-0.96795005,-2.22105,12.046051,-0.0265375,0.07865,0.036575
1692522817245,-0.72405005,-2.4049501,12.111001,-0.0119624995,0.061325,0.0809875
1692522817272,-1.04505,-1.9240501,11.802001,-0.0092124995,0.0713625,0.114125
1692522817300,-1.7410501,-1.422,11.680051,-0.0308,0.0556875,0.2294875
1692522817328,-2.1649501,-1.2079501,13.003951,-0.022824999,0.0570625,0.279675
1692522817360,-1.7700001,-1.7160001,14.782051,0.103125,0.20899999,0.1500125
1692522817386,-2.0050502,-1.845,14.389951,0.1978625,0.3122625,-5.5E-4
1692522817419,-2.091,-1.7209501,14.6320505,0.28765,0.3650625,-0.124025
1692522817447,-1.1520001,-2.4409502,14.566951,0.2668875,0.3370125,-0.080025
1692522817472,-1.437,-1.9069501,15.034051,0.1706375,0.23815,0.076725
1692522817498,-2.1070502,-0.81405,14.260951,0.1123375,0.1475375,0.1610125
1692522817527,-2.29395,0.39405003,12.453001,0.072875,0.0594,0.2138125
1692522817554,-2.8969502,0.246,12.979951,0.1835625,0.061325,0.109037496
1692522817582,-1.9609501,-1.1340001,15.7570505,0.3311,0.1464375,-0.036025
1692522817612,-1.5780001,-1.9740001,17.655,0.4719,0.2311375,-0.1852125
1692522817641,-2.4829502,-1.6660501,16.353,0.465025,0.2145,-0.157025
1692522817666,-2.3110502,-1.4290501,15.795001,0.3108875,0.11385,0.0499125
1692522817694,-1.2030001,-1.314,15.847951,0.04895,-0.0042625,0.245025
1692522817720,-1.49205,-0.86100006,14.667001,0.010175,-0.0064625,0.1549625
1692522817749,-2.1030002,-1.1179501,13.64805,0.007975,-0.0221375,0.067925
1692522817777,-1.332,-1.8360001,13.600051,0.0367125,-0.06875,0.0023375
1692522817806,-0.64500004,-2.295,13.444051,0.047575,-0.053075,-0.05995
1692522817833,-1.0489501,-2.0700002,12.937051,-0.022,-0.037125,-0.1527625
1692522817862,-0.80100006,-2.13,11.362051,-0.10065,-0.0779625,-0.104499996
1692522817889,-0.31695002,-2.32905,11.817,-0.17655,-0.1260875,-0.02365
1692522817918,-0.33600003,-2.02005,11.30895,-0.267025,-0.1749,0.082225
1692522817944,-0.36195,-1.36905,9.495001,-0.29205,-0.202675,0.126775
1692522817974,-0.55395,-1.455,8.049001,-0.3003,-0.2732125,0.2396625
1692522818005,-0.06105,-1.8570001,6.4240503,-0.271425,-0.27775,0.2616625
1692522818032,0.20400001,-1.4860501,6.8760004,-0.23567499,-0.2574,0.24915
1692522818061,-0.049050003,-0.86595005,8.434051,-0.2338875,-0.2308625,0.25959998
1692522818090,-0.40305,-0.24405001,6.84705,-0.2501125,-0.253,0.312125
1692522818122,-0.59505004,0.20505,4.71705,-0.1359875,-0.2740375,0.2629
1692522818157,0.312,-0.30405003,3.8580003,0.13145,-0.1467125,-0.09405
1692522818173,-0.45600003,-0.040050004,4.6410003,0.2360875,-0.076725,-0.27115
1692522818207,-0.46095002,0.21705002,5.064,0.2946625,-0.0336875,-0.40094998
1692522818236,0.33105,-0.24900001,3.9439502,0.351725,0.038225,-0.609675
1692522818264,0.606,-0.98295003,4.2259502,0.3917375,0.078375,-0.699875
1692522818293,0.40995002,-1.12695,6.7489505,0.4005375,0.0611875,-0.697125
1692522818322,-0.63795,-0.186,8.47995,0.1645875,-0.2110625,-0.3488375
1692522818351,-1.5139501,0.15195,8.272051,0.0108624995,-0.344575,-0.17173749
1692522818380,-1.72905,-0.92595005,7.6330504,0.066275,-0.1678875,-0.35433748
1692522818411,0.90000004,-2.3380501,9.79905,0.2275625,0.1205875,-0.644325
1692522818440,1.9750501,-2.0700002,10.95495,0.241175,0.4785,-0.8606125
1692522818467,0.83805007,-1.161,10.14795,-0.0039875,0.313225,-0.5753
1692522818495,-0.32205,-0.58095,9.018001,-0.4126375,-0.4312,0.400125
1692522818526,-0.915,-0.48600003,9.85095,-0.3741375,-0.6164125,0.6161375
1692522818554,-0.79605,-0.55695003,9.880051,-0.23127499,-0.557975,0.5154875
1692522818586,-0.54405004,0.078,9.37005,0.058025,-0.110825,-0.040975
1692522818614,-0.09705,-0.069000006,9.294001,0.23265,0.1665125,-0.291775
1692522818645,0.51705,-1.0890001,10.13895,0.30525,0.1915375,-0.30153748
1692522818672,0.48900002,-1.386,10.584001,0.354475,0.158675,-0.2655125
1692522818700,-0.39105,-0.9480001,10.357051,0.2528625,-0.020075,-0.0144375
1692522818729,-0.18300001,-0.67200005,10.246051,0.121275,-0.1057375,0.1461625
1692522818759,-0.20895001,-0.186,9.40095,-0.0353375,-0.1183875,0.2514875
1692522818786,-0.19005,0.094950005,8.953951,-0.0237875,-0.073699996,0.206525
1692522818816,-0.058050003,-0.043050002,9.495001,0.0917125,-0.01155,0.1013375
1692522818844,-0.48495004,-0.012,9.01605,0.1618375,0.00165,0.0705375
1692522818874,-0.25500003,-0.112050004,8.973001,0.2512125,0.014162499,0.0765875
1692522818900,0.26595002,-0.507,9.64605,0.2605625,0.028875,0.076175
1692522818930,-0.006,-0.34395,9.43995,0.247775,0.042625,0.06325
1692522818958,-0.17295001,0.042000003,8.604,0.1571625,-0.0022,0.099275
1692522818988,-0.07005,0.00405,9.27,0.1093125,-0.0397375,0.1167375
1692522819016,-0.29805002,0.22695,8.841001,0.089375,-0.0539,0.087725
1692522819045,-0.84105,0.14505,7.82595,0.12773749,-0.024475,-0.013062499
1692522819073,-0.48900002,-0.53295004,8.986951,0.185075,0.0457875,-0.099
1692522819101,-0.21405001,-0.76605004,9.279,0.1874125,0.100237496,-0.168575
1692522819138,-0.23295002,-0.80205005,8.875051,0.060775,0.1610125,-0.202675
1692522819161,-0.43695003,-0.75600004,8.51595,-0.050325,0.1310375,-0.106425
1692522819190,-0.12105001,-0.73005,7.4719505,-0.151525,0.080025,0.0259875
1692522819224,-0.24000001,-0.76605004,7.2949505,-0.2525875,0.0257125,0.2003375
1692522819250,-0.52005005,-0.88500005,7.4790006,-0.26125,0.0188375,0.22893749
1692522819278,-0.63795,-1.00695,7.0270505,-0.2542375,0.0105875,0.2063875
1692522819305,-0.0010500001,-1.27995,6.5670004,-0.25135,0.0367125,0.1167375
1692522819333,-0.33600003,-1.0699501,6.6919503,-0.25905,0.0774125,-0.0037125
1692522819364,-0.77895004,-1.07895,7.116,-0.3262875,0.085525,-0.0600875
1692522819392,-0.00795,-1.266,7.7980504,-0.3557125,0.0616,0.00605
1692522819419,-0.58500004,-0.90000004,7.4340005,-0.3334375,0.079475,0.067375
1692522819448,-1.167,-0.66495,7.3290005,-0.2998875,0.0735625,0.127875
1692522819476,-0.55905,-0.90405005,8.923051,-0.2046,0.058575,0.2102375
1692522819504,-0.08505,-0.94305,10.972051,-0.1376375,0.124437496,0.0859375
1692522819535,-0.95100003,-0.282,9.922951,-0.0105875,0.1552375,-0.045925
1692522819563,-1.19505,-0.32805002,10.09095,0.0468875,0.0710875,0.0312125
1692522819592,-0.27405003,-0.75105006,10.60995,0.1159125,0.0182875,0.0455125
1692522819617,-0.15900001,-0.804,11.470051,0.238425,0.0724625,-0.118525
1692522819646,-0.59505004,-0.38295,11.175,0.2410375,0.062975,-0.0548625
1692522819678,-0.86505,0.14505,9.93795,0.180125,-0.0671,0.30415
1692522819709,-0.46305,-0.31800002,10.857,0.1896125,-0.079475,0.319
1692522819734,0.18705001,-0.90000004,13.16205,0.27885,0.0045375,0.028875
1692522819763,-0.135,-0.39495003,12.609,0.28325,0.0045375,-0.036025
1692522819791,-1.15995,0.49695003,11.644051,0.2319625,-0.055825,0.0501875
1692522819819,-1.14795,0.43995002,12.019951,0.125675,-0.17435,0.3251875
1692522819847,-1.08105,0.32505003,13.270051,0.1557875,-0.126775,0.264
1692522819877,-1.31805,0.19095,12.793051,0.2893,0.075625,-0.1035375
1692522819899,-1.9950001,0.67200005,13.152,0.3168,0.132825,-0.2129875
1692522819933,-0.291,0.32205,13.49205,0.312125,0.187,-0.3317875
1692522819961,0.40995002,0.12105001,13.746,0.3100625,0.210375,-0.3832125
1692522819990,0.31395,-0.34695002,16.365002,0.2937,0.1827375,-0.3339875
1692522820017,0.29700002,0.076050006,15.328051,0.173525,-0.086899996,0.1398375
1692522820047,-0.042000003,0.83205,14.352,0.094875,-0.2281125,0.3818375
1692522820077,-0.147,0.26505002,15.58905,0.014025,-0.33715,0.564025
1692522820104,-1.5469501,-0.15795001,15.814051,0.0284625,-0.3234,0.5179625
1692522820133,-1.2409501,-0.71295005,13.85805,0.0517,-0.275,0.40039998
1692522820161,0.01905,-1.0890001,12.21195,0.022,-0.0763125,0.0066
1692522820189,-0.13305001,-1.194,12.59895,-0.0363,0.028324999,-0.1731125
1692522820223,-0.46500003,-1.4290501,13.272,-0.1885125,0.0719125,-0.156475
1692522820247,0.00795,-1.8930001,13.582951,-0.2580875,0.0264,-0.003025
1692522820275,-0.22095,-1.7020501,12.870001,-0.3573625,-0.043449998,0.13915
1692522820304,-0.63795,-1.2919501,11.974951,-0.39421248,-0.058575,0.098037496
1692522820331,-0.9990001,-1.21605,11.556001,-0.41965,-0.0671,0.0617375
1692522820370,-0.564,-1.7209501,10.005,-0.3916,-0.0231,0.0111375
1692522820398,-1.116,-1.71105,10.18395,-0.3047,0.0922625,-0.1676125
1692522820426,-1.9380001,-0.93600005,8.81505,-0.298375,0.1208625,-0.2189
1692522820454,-1.6480501,-0.51405,5.67,-0.3158375,0.1750375,-0.2649625
1692522820484,-0.19005,-1.1700001,5.47095,-0.265925,0.284075,-0.4123625
1692522820513,0.41700003,-1.79295,7.45305,-0.179575,0.4203375,-0.6149
1692522820541,-0.62100005,-1.1770501,6.3850503,-0.1054625,0.436425,-0.6370375
1692522820571,-1.36995,-0.48105,4.55205,-0.1714625,0.2778875,-0.3969625
1692522820598,0.54405004,-0.94995004,3.1369503,-0.2586375,0.11055,-0.150975
1692522820628,2.052,-0.99300003,3.6139503,-0.29645,0.0598125,-0.097625
1692522820660,0.8880001,-1.18005,6.45195,-0.31185,-0.21573749,0.2288
1692522820687,-0.042000003,-1.2970501,9.226951,-0.35433748,-0.6337375,0.7506125
1692522820714,-0.57600003,-0.79695004,7.58895,-0.298925,-1.0731875,1.276825
1692522820743,-1.2580501,0.62595004,5.19105,-0.20693749,-0.870375,1.0280875
1692522820770,-0.88905007,-0.27705002,7.293,-0.0862125,-0.5269,0.6095375
1692522820801,1.4820001,-2.3790002,10.93605,0.242,0.128975,-0.2459875
1692522820829,1.4080501,-1.9530001,9.96195,0.3598375,0.3034625,-0.4761625
1692522820857,-0.135,-0.36795002,8.382,0.1874125,-0.0044,-0.0048125
1692522820887,-1.18605,0.13095,8.86095,0.0240625,-0.315975,0.4378
1692522820916,-2.3130002,0.46800002,9.603001,0.043175,-0.3617625,0.4393125
1692522820946,-2.328,0.34395,10.36095,0.211475,-0.0474375,-0.0562375
1692522820973,-1.45905,0.44205,9.63105,0.571175,0.6776,-1.1884125
1692522821003,-0.68805003,0.37695003,8.059051,0.682,0.8669375,-1.494625
1692522821034,-0.19005,-0.07395,8.146951,0.7286125,0.8949875,-1.53945
1692522821060,0.24405001,-1.299,9.816001,0.6422625,0.605825,-1.0630125
1692522821090,-0.34800002,-1.40205,10.543051,0.4995375,0.372075,-0.6777375
1692522821117,-0.30705002,-1.21605,10.366051,0.054175,-0.0473,0.056649998
1692522821147,-0.52305,-0.88995004,10.395,-0.14533749,-0.1606,0.2809125
1692522821176,-0.71895003,-0.15795001,9.990001,-0.2679875,-0.204325,0.38775
1692522821205,-0.52500004,0.021000002,9.315001,-0.260425,-0.15413749,0.3689125
1692522821236,-0.53205,-0.069000006,9.16395,-0.0350625,-0.0515625,0.2275625
1692522821264,-0.23295002,-0.69900006,9.79395,0.0730125,-0.022,0.161975
1692522821293,-0.16395001,-0.873,9.78705,0.14135,-0.0119624995,0.117425
1692522821321,-0.34095,-0.72705,9.526051,0.117699996,-0.0468875,0.1618375
1692522821351,-0.30495003,-0.67005,9.79395,0.0463375,-0.0818125,0.2479125
1692522821380,-0.36495003,-0.45705003,9.48495,-0.07095,-0.1175625,0.3223
1692522821410,-0.513,-0.08805001,8.83905,-0.089925,-0.11165,0.278025
1692522821439,-0.63105005,0.069000006,8.599951,-0.053625,-0.072325,0.1095875
1692522821467,-0.56805,-0.040050004,8.34795,0.0028875,-0.03575,-0.0012375
1692522821496,-0.48495004,-0.17895001,8.425051,0.073975,0.00715,-0.1016125
1692522821524,-0.40305,-0.49500003,8.169001,0.1749,0.070125,-0.1815
1692522821553,-0.27600002,-0.60105,7.7400002,0.1725625,0.0759,-0.1527625
1692522821584,-0.303,-0.45705003,7.2330003,0.0713625,0.045649998,0.0028875
1692522821611,-0.19005,-0.423,6.79995,-0.0468875,0.005775,0.0985875
1692522821643,-0.22800002,-0.39900002,7.3639503,-0.077275,-0.0089375,0.0628375
1692522821670,-1.0180501,-0.079050004,6.5719504,-0.085525,-0.0198,-0.0020625
1692522821701,-1.4419501,-0.079050004,5.45205,-0.055275,-0.00495,-0.0988625
1692522821730,-0.20895001,-1.077,6.9310503,-0.0154,0.0683375,-0.1606
1692522821758,-0.039,-1.3570501,8.928,0.031625,0.1903,-0.2671625
1692522821787,-0.99000007,-0.22005,7.1250005,-0.0048125,0.312125,-0.4280375
1692522821816,-0.85800004,0.09705,6.29895,-0.18205,0.1060125,-0.19305
1692522821842,-0.49695003,-0.49800003,8.323951,-0.1659625,0.0628375,-0.0991375
1692522821873,-0.23295002,-1.182,10.000051,0.0088,0.1214125,-0.1417625
1692522821903,-0.64695,-0.69105005,9.342,0.0270875,0.0864875,-0.0968
1692522821929,-0.08505,-0.53295004,9.42105,-0.0213125,-0.0034375,0.05555
1692522821963,-0.64695,-0.21495001,10.074,-0.1071125,-0.14575,0.3749625
1692522821990,-1.1400001,-0.23700002,10.15095,-0.0886875,-0.161975,0.425975
1692522822019,-1.35105,-0.13095,10.030951,0.022275,-0.1128875,0.321475
1692522822047,-0.81000006,-0.49800003,10.71105,0.08415,-0.036849998,0.1837
1692522822076,-0.54,-0.94005007,11.500951,0.1342,0.0523875,0.037675
1692522822105,-1.0489501,-0.58605003,11.248951,0.1412125,0.125675,-0.0510125
1692522822133,-1.38705,-0.31305,11.332951,0.0323125,0.0570625,0.0902
1692522822164,-1.06095,-0.522,11.814,0.003575,0.049775,0.1139875
1692522822192,-1.251,-0.49305,11.944051,0.0075625,0.0715,0.088825
1692522822222,-1.1689501,-0.79905003,12.463051,0.031075,0.102437496,0.0193875
1692522822251,-1.1689501,-0.89295006,12.315001,0.027775,0.0930875,0.0015125
1692522822280,-1.3249501,-0.65595,12.8220005,-0.0187,0.059675,0.0367125
1692522822307,-1.0710001,-0.44295,12.99705,-0.0517,0.0451,0.0807125
1692522822336,-1.401,0.39195,11.653951,-0.0501875,0.0286,0.0342375
1692522822366,-1.16205,0.26295,11.6320505,-0.00385,0.0251625,-0.0166375
1692522822399,0.23295002,-1.21095,14.079,0.1461625,0.043725,-0.0396
1692522822431,0.19395001,-0.75600004,14.656051,0.188375,0.0323125,-0.0012375
1692522822460,-0.07305,-0.0019500001,14.614951,0.0633875,-0.1670625,0.36685
1692522822488,-0.46995002,0.28695002,14.887951,-0.022275,-0.2982375,0.5773625
1692522822518,-0.44400004,-0.016050002,15.205951,-0.00605,-0.3950375,0.626175
1692522822546,-0.69000006,-0.22500001,14.96205,0.0625625,-0.3603875,0.5292375
1692522822577,-0.64995,-1.0669501,14.749051,0.1370875,-0.230725,0.31845
1692522822608,-0.61395,-1.7160001,14.65305,0.117425,-0.16335,0.1991
1692522822639,-0.693,-1.5409501,13.50195,-0.0312125,-0.065175,0.0317625
1692522822671,-0.492,-1.5600001,12.963,-0.1375,-0.0413875,0.027224999
1692522822697,-0.51600003,-1.67295,12.898951,-0.290125,-0.013612499,0.002475
1692522822725,-0.40095,-1.8600001,13.26,-0.3177625,-0.004125,-0.0339625
1692522822755,-0.91305006,-1.386,12.67395,-0.3260125,-6.875E-4,-0.0603625
1692522822783,-1.026,-1.00995,11.058001,-0.3227125,0.0020625,-0.1227875
1692522822816,-0.62100005,-1.3399501,10.701,-0.2470875,0.0661375,-0.23705
1692522822842,-0.65895003,-1.4860501,10.876051,-0.2470875,0.0661375,-0.23705
1692522822869,0.177,-1.7040001,8.938951,-0.1475375,0.1285625,-0.3267
1692522822899,-0.50895,-1.3590001,8.17395,-0.1604625,0.0831875,-0.2715625
1692522822929,-2.0070002,-0.39705002,6.5509505,-0.1970375,0.0207625,-0.185625
1692522822957,-1.6309501,-0.43095002,5.13105,-0.22893749,-0.0108624995,-0.19525
1692522822986,-0.058050003,-1.0669501,6.249,-0.16995,0.136675,-0.4492125
1692522823016,1.7209501,-1.7809501,6.1750503,-0.0086624995,0.4772625,-0.951225
1692522823044,0.14400001,-0.8880001,6.4140005,-0.03025,0.401225,-0.83709997
1692522823073,-0.57795,-0.26805001,6.1920004,-0.124025,0.1425875,-0.4813875
1692522823099,-0.025050001,0.0139500005,5.418,-0.223025,-0.330275,0.168025
1692522823130,0.00795,-0.261,5.03805,-0.13859999,-0.3509,0.2105125
1692522823161,-0.312,-0.84000003,5.9500504,0.1326875,-0.2129875,0.0554125
1692522823189,-0.666,-1.14405,6.8569503,0.2102375,-0.171875,0.0088
1692522823217,-1.29795,-0.90000004,7.116,0.1538625,-0.0759,-0.09955
1692522823250,-1.88505,-0.51900005,7.17495,0.1538625,-0.0759,-0.09955
1692522823279,1.05795,-1.149,8.734051,5.5E-4,0.3389375,-0.39421248
1692522823307,1.6690501,-1.1010001,8.667001,0.0441375,0.47465,-0.48345
1692522823335,0.47895002,-0.22695,8.20905,0.0710875,0.407825,-0.359425
1692522823364,-0.73800004,-0.22500001,8.67405,0.02915,-0.307175,0.54835
1692522823392,-1.08105,-0.75105006,9.8230505,0.1406625,-0.5779125,0.86294997
1692522823423,-1.3630501,-0.651,10.488001,0.2066625,-0.397375,0.59675
1692522823452,-0.85800004,-0.31800002,10.07205,0.2299,-0.1456125,0.2380125
1692522823481,-0.537,0.16905001,9.418051,0.2110625,0.2387,-0.2701875
1692522823509,-0.36705002,-0.18405001,9.042001,0.224125,0.303325,-0.351175
1692522823537,-0.291,-1.02195,9.825001,0.2990625,0.2190375,-0.3037375
1692522823566,-0.123,-1.48395,10.60305,0.2992,0.1370875,-0.2283875
1692522823596,-0.231,-1.149,10.479,0.095837496,-0.0121,0.0345125
1692522823625,-0.441,-0.531,10.28505,-0.052525,-0.077275,0.20899999
1692522823653,-0.68295,0.0139500005,9.92595,-0.19373749,-0.148775,0.404525
1692522823683,-0.82905006,0.21000001,9.745951,-0.150425,-0.1307625,0.357225
1692522823710,-0.54,-0.07395,9.556951,-0.05115,-0.081675,0.2431
1692522823741,-0.492,-0.273,9.330001,0.1706375,0.033275,0.00825
1692522823769,-0.23595001,-0.49995002,9.3820505,0.227975,0.0633875,-0.0526625
1692522823798,-0.17595,-0.55995005,9.64605,0.197725,0.047575,-0.0661375
1692522823830,-0.26895002,-0.402,9.427951,0.1401125,0.01155,-0.0515625
1692522823858,-0.36195,-0.46395,9.625951,0.031625,-0.062425,-0.0507375
1692522823887,-0.48495004,-0.32805002,9.591001,0.006875,-0.0746625,-0.0790625
1692522823917,-0.44895002,-0.29205,9.378,0.0023375,-0.06875,-0.114125
1692522823944,-0.62595004,-0.31800002,9.33405,0.0204875,-0.03135,-0.11825
1692522823979,-0.33900002,-0.43995002,9.342,0.0394625,0.0122375,-0.069299996
1692522824002,-0.33405003,-0.42795002,9.16695,0.0419375,0.0287375,-0.0743875
1692522824032,-0.312,-0.39495003,8.57295,0.0375375,0.034925,-0.0856625
1692522824063,-0.50100005,-0.45195,8.413051,0.014712499,0.010725,-0.0682
1692522824093,-0.33405003,-0.55695003,8.145,0.0023375,-0.004675,-0.056925
1692522824122,-0.20700002,-0.46395,7.79295,-0.0235125,-0.0088,-0.0471625
1692522824150,-0.39600003,-0.30795002,7.4700003,-0.0372625,-0.006875,-0.0319
1692522824176,-0.67800003,-0.26295,6.9550505,-0.055275,-0.017324999,0.0078375
1692522824208,-0.80805004,-0.37095,6.117,-0.0517,-0.0127875,0.02915
1692522824235,-0.61395,-0.52905005,5.9160004,-0.0248875,0.0763125,-0.009075
1692522824267,-0.61395,-0.38505003,5.61,-0.020075,0.1445125,-0.0889625
1692522824295,-0.669,-0.31800002,5.34705,-0.0474375,0.21945,-0.208725
1692522824324,-0.42705002,-0.29205,5.11905,-0.061049998,0.2212375,-0.225225
1692522824353,-0.13995,-0.522,5.8969502,-0.0627,0.2149125,-0.233475
1692522824380,-0.549,-0.41895002,6.5820003,-0.05115,0.165825,-0.198825
1692522824419,-0.61395,-0.31305,7.2400503,-0.056375,0.069575,-0.077825
1692522824445,-0.291,-0.744,9.255,-0.03135,0.0686125,-0.070675
1692522824474,-0.15900001,-0.35595003,9.44505,0.047025,0.0917125,-0.0831875
1692522824503,-0.54405004,-0.24900001,10.1629505,0.04455,0.015675,0.0242
1692522824527,-0.92505,-0.522,11.142,0.0297,-0.0977625,0.1739375
1692522824564,-0.91095006,-0.96900004,12.87195,0.034375,-0.1769625,0.27445
1692522824594,-0.05595,-1.6009501,13.818001,0.0578875,-0.1370875,0.2519
1692522824620,-0.291,-0.82995003,12.475051,0.015262499,-0.08965,0.2391125
1692522824648,0.44595003,-0.79695004,11.830951,-0.1727,-0.1357125,0.423775
1692522824678,-0.51105005,-0.55305004,12.693001,-0.203775,-0.265375,0.6285125
1692522824707,-1.0830001,-0.36795002,13.85805,-0.1442375,-0.3051125,0.6678375
1692522824735,-1.4830501,0.006,12.978001,-2.75E-4,-0.2217875,0.5363875
1692522824763,-1.9930501,0.10695001,12.664051,0.070125,-0.097625,0.3614875
1692522824793,-1.9420501,0.141,12.484051,0.1969,0.1695375,-0.03795
1692522824822,-1.30095,0.042000003,13.011001,0.245025,0.2864125,-0.2344375
1692522824850,-0.453,-0.0019500001,13.246051,0.27665,0.374825,-0.4035625
1692522824880,-0.564,0.48000002,13.49505,0.274725,0.3510375,-0.44055
1692522824909,-0.93000007,0.49005002,14.269951,0.246125,0.23265,-0.29205
1692522824938,-1.0690501,0.81600004,14.956951,0.2244,-0.0037125,-0.0493625
1692522824966,-0.79095006,0.84900004,14.422951,0.2459875,-0.0501875,-0.0457875
1692522824996,-0.25995,0.71505004,14.395051,0.275,-0.0598125,-0.075075
1692522825024,-0.597,0.13800001,14.352,0.304975,-0.0759,-0.082225
1692522825055,-1.1329501,-0.402,14.14095,0.2446125,-0.1288375,0.0493625
1692522825084,-0.753,-1.29495,15.064951,0.173525,-0.1351625,0.1197625
1692522825113,-0.441,-1.491,14.790001,0.0807125,-0.111925,0.14465
1692522825141,-0.46500003,-1.05795,12.61095,-0.1551,-0.049225,0.0842875
1692522825171,-0.80295,-0.87105006,11.842951,-0.2684,-0.0518375,0.033825
1692522825199,-0.453,-1.46895,12.652051,-0.3405875,-0.0686125,-0.0270875
1692522825229,0.333,-2.3170502,13.236001,-0.3499375,-0.07755,-0.1122
1692522825259,-1.0879501,-1.67295,12.394051,-0.385,-0.1106875,0.0059125
1692522825289,-1.164,-1.26795,11.616,-0.440825,-0.1535875,0.134475
1692522825323,-0.32700002,-1.50495,9.670051,-0.462825,-0.12155,0.1362625
1692522825352,-0.80100006,-1.81605,9.088051,-0.4142875,-0.04455,-0.01815
1692522825380,-0.54,-1.797,8.69295,-0.3383875,0.0287375,-0.169675
1692522825408,0.16995001,-1.848,7.3000503,-0.3419625,0.0341,-0.137775
1692522825438,-1.8370501,-0.82995003,7.3810506,-0.381425,0.0394625,-0.065725
1692522825467,-2.05695,-0.59595,7.1350503,-0.3862375,0.0303875,-0.0570625
1692522825496,-1.401,-0.47400004,7.0290003,-0.3499375,0.0748,-0.1401125
1692522825521,0.69405,-0.864,5.184,-0.1243,0.416075,-0.612975
1692522825552,1.3050001,-0.933,5.064,0.0341,0.4390375,-0.571725
1692522825581,0.66795003,-0.79395,6.07905,-2.75E-4,0.1568875,-0.1628
1692522825612,-0.46995002,-0.08295,6.50505,-0.069299996,-0.2156,0.33673748
1692522825641,-0.44595003,-0.13605,5.7340503,-0.0803,-0.6274125,0.803825
1692522825671,-0.079950005,-1.0699501,5.8330503,0.0144375,-0.5380375,0.650375
1692522825700,-0.73395,-1.524,6.5410504,0.1876875,-0.191125,0.18205
1692522825731,-1.2550501,-1.623,7.8409505,0.1535875,-0.08855,0.046475
1692522825759,-1.8079501,-1.40505,7.8,-0.098725,0.113575,-0.1571625
1692522825787,0.333,-1.503,8.70705,-0.2058375,0.29425,-0.2993375
1692522825816,0.94605005,-1.1509501,8.667001,-0.2674375,0.5270375,-0.4236375
1692522825852,-0.702,-0.56895,8.028001,-0.2237125,0.070125,0.1654125
1692522825880,-1.353,-0.81105006,9.21195,-0.152625,-0.22275,0.48125
1692522825907,-1.059,-1.3470001,10.929001,-0.045375,-0.340725,0.5556375
1692522825935,-0.94200003,-1.125,10.64595,0.1535875,-0.0620125,0.1032625
1692522825963,-0.69495004,-0.66300005,9.904051,0.1956625,0.1016125,-0.1155
1692522825989,-0.49695003,-0.483,10.02105,0.2028125,0.1750375,-0.203775
1692522826024,-0.372,-0.77805007,9.84195,0.211475,0.1324125,-0.0881375
1692522826049,-0.37695003,-1.00695,9.61005,0.23127499,0.0748,0.0111375
1692522826078,-0.33405003,-1.1700001,9.375,0.2303125,-0.031075,0.13585
1692522826106,-0.303,-1.5169501,10.32495,0.1882375,-0.0682,0.16555
1692522826134,-0.22800002,-1.623,10.653001,0.0493625,-0.1079375,0.1464375
1692522826165,-0.56595004,-1.182,10.01895,-0.0265375,-0.121825,0.1153625
1692522826196,-0.58695,-0.897,9.63105,-0.09075,-0.1342,0.098725
1692522826227,-0.71895003,-0.49800003,9.46395,-0.114675,-0.10615,0.07535
1692522826255,-0.453,-0.66795003,9.705001,0.0083875,-0.0094875,-0.0105875
1692522826284,-0.41295,-0.71805006,9.576,0.083325,0.0308,-0.0572
1692522826313,-0.55395,-0.71805006,9.46395,0.1370875,0.0496375,-0.0911625
1692522826341,-0.68100005,-0.74895006,9.33405,0.1601875,0.0290125,-0.1243
1692522826371,-0.49395,-1.0000501,9.64605,0.1483625,0.018975,-0.124437496
1692522826399,-0.19500001,-1.1869501,9.990001,0.113025,0.0389125,-0.1291125
1692522826429,-0.32895002,-1.1410501,9.550051,0.08195,0.041525,-0.1348875
1692522826459,-0.57795,-0.61005,8.68305,-0.0226875,-0.0303875,0.0232375
1692522826488,-0.46305,-0.462,8.50905,-0.0583,-0.066275,0.1557875
1692522826515,-0.28605002,-0.51195,8.62605,-0.0169125,-0.0474375,0.253
1692522826545,-0.17595,-0.58605003,8.53995,0.036575,-0.02145,0.2052875
1692522826571,-0.62805,-0.294,7.4220004,0.0848375,-0.0092124995,0.1324125
1692522826606,-0.54,-0.51000005,7.0650005,0.1329625,-0.014575,0.0092124995
1692522826632,-0.25500003,-0.84495,7.46505,0.1472625,0.0312125,-0.090475
1692522826660,-0.57105005,-0.60795003,6.63705,0.1342,0.0576125,-0.1115125
1692522826689,-0.86505,-0.46605003,5.77005,0.098037496,0.06325,-0.097075
1692522826722,-0.08505,-0.90000004,5.9710503,0.0163625,0.079475,-0.089925
1692522826749,0.24000001,-1.074,6.5989504,-0.00715,0.1166,-0.1387375
1692522826776,-0.23805001,-0.79395,6.0409503,-0.1034,0.0787875,-0.1225125
1692522826806,-1.251,-0.45705003,5.94,-0.1780625,-0.0253,-0.0037125
1692522826832,-0.88695,-1.0170001,5.98605,-0.2239875,-0.108075,0.1060125
1692522826862,-0.26205,-1.40205,6.6220503,-0.1687125,0.00495,0.0045375
1692522826887,-0.13005,-1.47195,7.8360004,-0.1434125,0.1287,-0.131175
1692522826919,-0.99405,-0.94995004,10.255951,-0.252725,0.1397,-0.0759
1692522826951,-1.626,-0.411,9.8230505,-0.3081375,0.0429,0.0836
1692522826978,-1.626,-0.42795002,10.452001,-0.16995,0.027775,0.11605
1692522827007,-1.0210501,-0.555,10.440001,0.0012375,0.1519375,-0.0559625
1692522827036,-1.0540501,-0.65805006,10.632001,0.2800875,0.33495,-0.29947498
1692522827065,-0.762,-0.933,11.02005,0.3254625,0.30965,-0.2607
1692522827093,-0.22605,-1.1340001,11.20905,0.3161125,0.2360875,-0.167475
1692522827121,-0.58995,-1.1560501,11.57205,0.19525,0.0507375,0.06765
1692522827151,-1.32,-1.074,12.286051,0.1082125,-0.0532125,0.2382875
1692522827177,-1.164,-1.14405,12.999001,-0.0174625,-0.173525,0.4624125
1692522827205,-0.89400005,-1.14405,12.913051,-0.0320375,-0.142175,0.4021875
1692522827235,-1.7220001,-0.68895006,13.15005,-0.025024999,-0.0814,0.284075
1692522827265,-1.167,-0.82095003,14.143051,-8.25E-4,-0.017875,0.185075
1692522827296,-0.60405004,-0.83505005,14.20995,0.0534875,0.0374,0.1584
1692522827324,-0.54,-0.27,13.807951,0.0793375,0.0405625,0.1687125
1692522827352,-0.597,0.91800004,13.624051,0.0891,-0.0099,0.2497
1692522827381,-0.90105003,0.88695,14.647951,0.1628,-0.1566125,0.4497625
1692522827414,-1.00605,-0.804,18.08805,0.3746875,-0.1956625,0.4637875
1692522827447,-0.71400005,-1.0860001,15.574951,0.4324375,-0.17655,0.4409625
1692522827469,-0.915,-1.074,13.71195,0.398475,-0.14685,0.3999875
1692522827502,-1.4419501,-0.837,13.566001,0.1373625,-0.11385,0.2971375
1692522827531,-0.79605,-0.39705002,13.167001,0.0133375,-0.097075,0.24419999
1692522827560,-0.975,-0.52605003,12.86295,-0.0991375,-0.0114124995,0.0746625
1692522827586,-1.4680501,-0.89505005,12.489,-0.09625,0.0198,-0.0066
1692522827618,-0.74505,-2.1349502,14.12205,-0.05555,0.03575,-0.1062875
1692522827647,-0.33600003,-2.5110002,14.212951,-0.0708125,0.051425,-0.1478125
1692522827675,-1.176,-1.8049501,13.411051,-0.2355375,0.0284625,-0.1423125
1692522827702,-1.07295,-1.58895,13.617001,-0.338525,-0.022,-0.0532125
1692522827731,-0.67395,-1.3759501,12.646951,-0.3966875,-0.054175,0.031075
1692522827760,-0.39105,-1.6110001,12.276001,-0.3898125,-0.0466125,0.038225
1692522827788,-1.128,-1.4790001,11.23995,-0.275,0.0,-0.09845
1692522827822,-0.21195,-1.6609501,8.599951,-0.204325,-0.00825,-0.0884125
1692522827855,0.62295,-2.0770502,7.4170504,-0.1863125,-0.0042625,-0.0848375
1692522827886,-0.52305,-2.0629501,7.8840003,-0.2112,-0.032449998,-0.064075
1692522827911,-1.0489501,-2.05305,8.667001,-0.2693625,-0.0933625,-0.013062499
1692522827939,-0.87195003,-1.338,6.5790005,-0.3425125,-0.1483625,0.02035
1692522827967,0.112950005,-1.065,3.58995,-0.42061248,-0.065175,-0.120037496
1692522827996,0.76905006,-1.1920501,5.57595,-0.342925,0.13145,-0.4016375
1692522828025,0.35505003,-0.71505004,6.6270003,-0.2902625,0.1164625,-0.4136
1692522828054,0.16800001,-0.162,5.5930505,-0.2039125,-0.194425,-0.0468875
1692522828083,0.43395,-0.27,5.076,-0.1137125,-0.335225,0.121825
1692522828112,-0.13305001,-0.42600003,5.71995,0.015262499,-0.39105,0.1791625
1692522828140,-1.4419501,-0.78000003,7.06995,0.23485,-0.3598375,0.1093125
1692522828169,-1.3969501,-1.2970501,6.70095,0.2811875,-0.2781625,0.0155375
1692522828201,-0.82695,-1.4569501,6.68205,0.2541,0.170775,-0.451
1692522828235,-0.09,-0.78195006,7.69995,0.0460625,0.58905,-0.886875
1692522828265,0.95505005,-0.23700002,8.269051,-0.0528,0.5985375,-0.872025
1692522828299,0.36900002,0.186,8.568001,-0.00495,0.210925,-0.335225
1692522828326,-1.023,0.042000003,8.911051,0.1420375,-0.081675,0.0407
1692522828357,-1.2270001,-0.24405001,9.757951,0.3169375,-0.30415,0.3047
1692522828386,-0.78105,-0.87105006,11.299951,0.5511,-0.238425,0.1904375
1692522828417,-0.28095,-0.51405,9.76305,0.4829,0.1293875,-0.264825
1692522828445,-0.06795,-0.23895001,9.552,0.376475,0.1863125,-0.3559875
1692522828473,-0.39795002,-0.10695001,9.375,0.2237125,0.0708125,-0.229075
1692522828500,-0.71205,-0.09105001,9.42105,0.2094125,-0.0103124995,-0.089375
1692522828530,-0.15405001,-0.64605004,9.65295,0.2187625,-0.0616,0.0306625
1692522828560,-0.08205,-0.96000004,9.84195,0.2101,-0.0650375,0.121825
1692522828589,-0.46305,-0.88500005,9.96405,0.160325,-0.0611875,0.121275
1692522828617,-0.56100005,-0.837,9.90705,0.0837375,-0.072325,0.1139875
1692522828648,-0.40995002,-0.76995003,10.189051,-0.0622875,-0.075075,0.07095
1692522828677,-0.216,-0.65295005,9.99705,-0.1126125,-0.0039875,0.0138875
1692522828706,-0.43905002,-0.26295,9.342,-0.109037496,0.0163625,0.0301125
1692522828736,-0.46095002,-0.22905001,9.042001,-0.0903375,0.015125,0.055
1692522828771,-0.36495003,-0.32505003,9.033,-0.0037125,0.0072875,0.0367125
1692522828806,-0.3,-0.57705003,9.106951,0.092675,0.02585,-0.002475
1692522828830,-0.492,-0.39000002,8.88,0.1120625,0.0284625,-0.0210375
1692522828857,-0.528,-0.34905002,8.7960005,0.086075,0.0154,-0.0262625
1692522828886,-0.54195005,-0.33,8.644951,0.0647625,0.0163625,-0.0265375
1692522828915,-0.492,-0.43095002,8.583,0.0573375,0.028324999,-0.039875
1692522828943,-0.504,-0.51705,8.764951,0.0507375,0.056925,-0.0259875
1692522828974,-0.20700002,-0.66495,8.78205,0.0394625,0.0622875,0.011275
1692522829005,-0.14205001,-0.54495,7.9800005,-0.0031625,0.0474375,0.031625
1692522829038,-0.50100005,-0.40395,7.4820004,-0.059125,-0.026124999,0.0570625
1692522829072,-0.74805003,-0.354,6.7369504,-0.0757625,-0.0592625,0.0974875
1692522829096,-0.21900001,-0.591,6.46005,-0.05995,-0.015675,0.01815
1692522829122,-0.15195,-0.684,6.096,-0.043449998,0.043449998,-0.0983125
1692522829148,-0.56100005,-0.61695004,5.6670003,-0.04235,0.0793375,-0.16733749
1692522829175,-0.63105005,-0.72495,6.201,-0.0944625,0.0506,-0.109725
1692522829204,0.072000004,-1.02405,7.0939503,-0.1208625,0.0537625,-0.1233375
1692522829231,-0.12795001,-0.85395,6.83505,-0.138325,0.083325,-0.17985
1692522829261,-1.095,-0.41595003,6.6610503,-0.1860375,0.058575,-0.09735
1692522829298,-0.003,-0.69600004,7.668,-0.1827375,0.0094875,0.0548625
1692522829324,0.094050005,-0.648,8.47305,-0.1293875,0.064899996,0.0
1692522829352,-1.095,0.231,7.8360004,-0.0749375,0.093225,-0.0308
1692522829381,-1.31295,0.48000002,7.77405,2.75E-4,-0.0394625,0.0988625
1692522829410,0.10095,-0.78195006,10.656,0.0864875,-0.0383625,0.043175
1692522829446,0.39105,-1.1389501,12.27105,0.3009875,0.1274625,-0.21573749
1692522829474,-0.85995007,-0.17205001,10.500001,0.19813749,-0.052249998,0.12265
1692522829503,-0.93000007,-0.15495001,10.384951,0.092125,-0.1903,0.333575
1692522829531,-0.22395001,-0.64395005,12.436951,0.044825,-0.229625,0.3821125
1692522829562,-0.32700002,-1.36905,14.63895,0.0829125,-0.102025,0.2003375
1692522829590,0.216,-1.21095,14.548051,0.07535,-0.0730125,0.1714625
1692522829620,-0.69495004,-0.40395,14.00205,-0.048675,-0.131725,0.2743125
1692522829654,-1.00395,-0.105000004,13.090051,-0.1013375,-0.14465,0.3003
1692522829684,-1.2529501,-0.21795002,13.473001,-0.05335,-0.09295,0.2338875
1692522829711,-0.26895002,-0.117000006,12.8869505,0.0199375,-0.0169125,0.13145
1692522829739,-0.147,0.60705,12.87705,0.13475,0.0946,-0.058849998
1692522829767,-0.43395,1.1220001,13.803,0.165825,0.089925,-0.10065
1692522829796,-0.42705002,0.90405005,14.60805,0.203775,0.0510125,-0.111925
1692522829826,-0.034950003,0.33405003,14.47395,0.33495,-0.0309375,-0.08745
1692522829855,0.50295,-0.16995001,16.02,0.3900875,-0.0694375,0.0097624995
1692522829882,0.27600002,-0.22500001,16.59,0.3433375,-0.1029875,0.061325
1692522829911,-1.3990501,0.693,14.445001,0.264,-0.151525,0.1093125
1692522829942,-1.3990501,0.693,14.445001,0.264,-0.151525,0.1093125
1692522829970,-1.0020001,-0.47805002,15.74505,0.1093125,-0.091025,-0.031625
1692522829995,-0.93495005,-0.90195006,14.368051,0.09295,0.1208625,-0.4085125
1692522830025,-0.64695,-1.5820501,13.303051,0.0446875,0.1670625,-0.485375
1692522830055,-0.384,-1.8280501,12.394051,-0.125675,0.16115,-0.3914625
1692522830083,-0.41805002,-1.8520501,12.451051,-0.2292125,0.132825,-0.2657875
1692522830114,-0.762,-1.74495,12.3,-0.3320625,0.093225,-0.09295
1692522830141,-0.92295,-1.5460501,12.54405,-0.4695625,0.01925,0.2668875
1692522830172,-1.6290001,-0.96405005,10.906951,-0.48839998,0.0097624995,0.3334375
1692522830207,-0.95595,-1.335,8.767051,-0.4285875,0.066,0.145475
1692522830234,0.12705001,-2.12805,7.3429503,-0.3576375,0.1291125,-0.0331375
1692522830263,-0.57105005,-2.0029502,7.79295,-0.25959998,0.2253625,-0.2501125
1692522830291,-1.3440001,-1.7490001,7.4389505,-0.2952125,0.19525,-0.216425
1692522830322,-1.7890501,-1.09605,5.8039503,-0.4492125,0.093225,-0.073425
1692522830350,-0.81705004,-1.09095,5.0160003,-0.47753748,0.1313125,-0.0933625
1692522830378,0.31905,-0.80205005,4.3650002,-0.37785,0.38334998,-0.438075
1692522830411,2.121,-0.864,3.7690501,-0.30195,0.4576,-0.6054125
1692522830434,1.51995,-0.54495,5.33505,-0.247775,0.1073875,-0.20075
1692522830461,-0.18795002,0.32700002,6.8310003,-0.264,-0.31515,0.3870625
1692522830492,-0.43005002,0.30795002,6.8880005,-0.241725,-0.7502,0.97377497
1692522830522,0.69405,-0.67695004,7.7980504,0.105875,-0.927575,1.054075
1692522830550,-0.666,-0.35895002,7.03905,0.3333,-0.67375,0.6263125
1692522830580,-2.4379501,0.17205001,6.25605,0.48235,-0.33385,0.151525
1692522830609,-0.65505004,-1.1920501,8.619,0.44288749,-0.1813625,0.018424999
1692522830639,0.177,-0.86595005,8.77005,0.392975,0.4629625,-0.56045
1692522830669,0.53400004,-0.13605,8.236051,0.3276625,0.6373125,-0.671825
1692522830693,0.39105,-0.08295,8.599951,0.2079,0.5396875,-0.496925
1692522830725,-0.76500005,-0.28005,9.126,0.0807125,-0.005225,0.1148125
1692522830754,-1.76505,-0.957,9.64995,0.1271875,-0.19167499,0.272525
1692522830785,-0.75495005,-1.8930001,10.88595,0.19139999,-0.1505625,0.113299996
1692522830815,-0.26895002,-1.7350501,10.333051,0.1398375,0.03135,-0.131725
1692522830843,-0.76905006,-0.30795002,10.122001,-0.109175,0.2486,-0.37895
1692522830871,-0.78405005,-0.25605002,9.291,-0.2135375,0.1907125,-0.27981248
1692522830899,-0.48195,-0.50205004,9.48495,-0.23567499,0.0922625,-0.1269125
1692522830930,-0.99405,-1.2760501,10.543051,-0.0884125,0.026124999,0.04455
1692522830960,-0.67800003,-1.8259501,10.795051,0.0218625,0.0675125,0.0572
1692522830988,-0.65895003,-1.70895,10.561951,-0.0015125,0.0713625,0.0462
1692522831017,-0.94695,-1.005,10.548,-0.163625,0.0411125,0.092675
1692522831045,-0.95100003,-0.72300005,10.585951,-0.2305875,0.0176,0.1574375
1692522831074,-0.70500004,-0.20805001,9.117001,-0.1901625,0.009075,0.2688125
1692522831104,-0.88395005,-0.03795,8.829,-0.1012,0.0231,0.297
1692522831127,-0.68100005,-0.15495001,8.82195,0.0022,0.0424875,0.2684
1692522831152,-0.55395,-0.37800002,9.43305,0.1056,0.064899996,0.1615625
1692522831179,-0.504,-0.45195,9.303,0.2602875,0.0834625,-0.09295
1692522831209,-0.68100005,-0.44505003,9.174001,0.2806375,0.0614625,-0.1288375
1692522831237,-0.55905,-0.56505,9.052051,0.236225,-0.00165,-0.1546875
1692522831264,-0.33105,-0.66495,8.820001,0.2046,-0.014712499,-0.2451625
1692522831292,-0.61095005,-0.60105,9.241051,0.1742125,-0.018424999,-0.358325
1692522831321,-0.78405005,-0.62700003,9.550051,0.096525,-0.0444125,-0.3496625
1692522831349,-0.54705,-0.735,9.1380005,0.0537625,-0.05335,-0.2360875
1692522831373,-0.23805001,-0.72300005,8.3550005,0.0210375,-0.0438625,-0.1475375
1692522831403,-0.16395001,-0.61695004,8.80305,-0.0149875,-0.017324999,-0.0853875
1692522831435,-0.12105001,-0.74205005,8.949,-0.043175,-0.071775,0.0429
1692522831465,-0.29295,-0.69405,8.54205,-0.0462,-0.11165,0.1117875
1692522831492,-0.48195,-0.56205004,7.5799503,-0.044825,-0.1423125,0.153725
1692522831522,-0.54705,-0.45000002,6.5839505,-0.045649998,-0.15125,0.138875
1692522831546,-0.25995,-0.65295005,6.543,-0.0424875,-0.118525,0.0952875
1692522831578,-0.46095002,-0.76995003,6.8809505,-0.0441375,-0.01815,0.0328625
1692522831608,-0.84105,-0.61695004,6.35895,-0.058025,0.0119624995,0.0177375
1692522831635,-0.39405003,-0.51705,6.7660503,-0.079475,0.0495,-0.0451
1692522831665,-0.00795,-0.53595,7.5439506,-0.0738375,0.086075,-0.0858
1692522831694,-0.96795005,-0.12195001,6.42105,-0.0441375,0.0826375,-0.0765875
1692522831721,-1.0489501,-0.26805001,5.7970505,-0.0176,0.0306625,-0.0413875
1692522831751,-0.52500004,-0.83505005,7.0990505,0.0286,0.0221375,-0.0710875
1692522831782,0.0049500004,-0.74700004,7.965,0.1109625,0.18975,-0.36465
1692522831809,-0.88395005,0.08295,6.879,0.0837375,0.2270125,-0.4563625
1692522831839,-1.212,0.30600002,7.0750504,-0.017324999,0.055825,-0.2520375
1692522831868,-0.693,-0.097950004,8.82495,0.0191125,0.001375,-0.13475
1692522831899,-1.7359501,-0.124050006,11.838,0.2176625,0.0950125,-0.1522125
1692522831924,-1.7629501,0.045,11.7619505,0.28325,0.1362625,-0.17435
1692522831950,-1.1209501,-0.13605,11.328,0.3081375,0.150975,-0.1758625
1692522831981,-1.1880001,-0.86595005,12.21195,0.2992,0.1808125,-0.2182125
1692522832009,-0.64500004,-1.4809501,13.827001,0.268675,0.1802625,-0.2160125
1692522832040,-0.21405001,-1.2060001,13.614,0.0804375,0.086625,0.0232375
1692522832068,-0.34305,-0.804,12.83895,-0.0628375,-0.0034375,0.2402125
1692522832096,-0.18795002,-0.531,12.540001,-0.24419999,-0.2008875,0.614625
1692522832123,-0.69795,0.07095,12.496051,-0.242275,-0.26427498,0.7079875
1692522832153,-0.92700005,0.141,12.786,-0.113575,-0.2816,0.6975375
1692522832181,-0.25500003,0.13095,13.006051,-0.00935,-0.23705,0.560725
1692522832209,0.57495004,-0.009000001,15.346951,0.0966625,-0.1742125,0.3480125
1692522832236,-0.051000003,0.22905001,16.036951,0.2116125,-0.1494625,0.1161875
1692522832268,-1.5619501,1.491,14.124001,0.2162875,-0.21367499,0.2182125
1692522832297,-1.15695,0.65505004,15.655951,0.2459875,-0.2432375,0.308
1692522832365,-0.76500005,0.49005002,13.94505,0.3205125,0.036575,-0.17875
1692522832381,-0.41295,0.528,13.437,0.2693625,0.0812625,-0.216975
1692522832401,-1.09695,0.19995001,14.458951,0.211475,0.10065,-0.22385
1692522832443,-1.521,-1.3980001,15.59895,0.1458875,0.0919875,-0.2283875
1692522832466,-1.026,-1.7160001,13.5070505,0.10065,0.087037496,-0.199375
1692522832493,-0.99000007,-1.797,11.824051,-0.113437496,0.111925,-0.0928125
1692522832518,-0.633,-2.1760502,11.508,-0.2487375,0.120037496,-0.0567875
1692522832546,-0.15705001,-2.7810001,12.291,-0.3658875,0.113575,-0.0416625
1692522832578,-0.49695003,-2.6179502,12.607051,-0.5434,0.0471625,0.054175
1692522832605,-1.1050501,-1.9980001,12.385951,-0.628925,-0.0207625,0.20735
1692522832631,-1.45905,-1.5120001,11.75895,-0.71665,-0.128975,0.4984375
1692522832659,-1.18095,-1.9699501,10.717951,-0.6611,-0.0999625,0.458425
1692522832687,-0.90795004,-2.50605,9.957001,-0.5542625,-0.018424999,0.3009875
1692522832713,-1.03005,-2.16105,8.88,-0.38747498,0.1368125,-0.033
1692522832741,-1.6980001,-1.1080501,8.451,-0.3768875,0.1637625,-0.1634875
1692522832769,-0.80100006,-1.27995,6.2850003,-0.3848625,0.17985,-0.318175
1692522832803,1.5270001,-2.4720001,7.03905,-0.31501248,0.2836625,-0.6821375
1692522832831,0.73305005,-2.16405,8.08695,-0.274175,0.2706,-0.64845
1692522832859,-0.351,-1.09605,6.024,-0.3707,-0.19607499,0.1716
1692522832888,-0.36495003,-0.21000001,4.6909504,-0.43505,-0.4621375,0.57722497
1692522832916,0.66795003,0.22695,3.9270003,-0.33825,-0.4851,0.513975
1692522832942,1.10595,-0.13905,4.1520004,-0.180125,-0.3458125,0.24447499
1692522832968,0.735,-0.39495003,6.8710504,0.002475,-0.2728,0.0757625
1692522832998,-0.87000006,0.07095,8.53005,0.279675,-0.432025,0.148775
1692522833026,-2.979,0.966,5.13105,0.37454998,-0.491975,0.1518
1692522833053,-3.34695,0.47100002,3.9180002,0.570625,-0.077,-0.3927
1692522833083,-0.549,-1.7370001,7.6210504,0.6887375,0.410025,-0.9255125
1692522833109,1.2229501,-1.86195,9.4129505,0.7825125,0.9084625,-1.4647875
1692522833137,1.45095,-1.2540001,8.20905,0.7404375,1.165175,-1.733875
1692522833166,0.028950002,0.16395001,7.58895,0.110825,0.49568748,-0.86075
1692522833196,-0.83895004,0.03795,8.784,-0.22385,-0.5009125,0.4555375
1692522833226,-1.4130001,-0.53295004,10.347,-0.100925,-0.6230125,0.61448747
1692522833252,-1.59,-0.84195006,10.43595,0.090475,-0.49568748,0.449625
1692522833285,-0.63795,-1.0510501,10.345051,0.3003,0.0301125,-0.1953875
1692522833310,-0.030000001,-0.73695004,9.946951,0.271425,0.2325125,-0.4224
1692522833336,0.25605002,-0.64605004,9.625951,0.19525,0.3218875,-0.47905
1692522833365,0.16095,-0.44700003,9.259951,0.04235,0.13585,-0.0416625
1692522833394,-0.06105,-1.074,9.95895,-0.00275,-0.19195,0.477125
1692522833419,-0.19005,-1.23195,10.18395,1.375E-4,-0.278025,0.5632
1692522833448,-0.29505002,-1.2780001,10.29705,-0.010725,-0.3012625,0.5462875
1692522833476,-0.27405003,-1.1530501,10.45905,-0.1043625,-0.237875,0.3964125
1692522833506,-0.46800002,-0.80205005,10.11495,-0.1529,-0.1885125,0.33165
1692522833535,-0.80295,-0.39495003,9.519,-0.1615625,-0.0919875,0.2300375
1692522833570,-0.80295,-0.37800002,9.4129505,-0.11605,-0.04015,0.17105
1692522833592,-0.37695003,-0.74700004,9.47595,0.0268125,0.083875,0.0028875
1692522833621,-0.37005,-0.75405,9.250951,0.082499996,0.1274625,-0.050049998
1692522833651,-0.49905002,-0.684,9.262951,0.1034,0.1340625,-0.0383625
1692522833680,-0.46995002,-0.80895007,9.34605,0.0653125,0.0715,0.0875875
1692522833708,-0.702,-0.81105006,9.49995,0.0394625,0.0429,0.1475375
1692522833739,-0.63105005,-0.85200006,9.49995,0.01925,0.0301125,0.186175
1692522833768,-0.693,-0.69600004,9.504001,-0.01045,0.0479875,0.13145
1692522833796,-0.70500004,-0.47100002,9.049951,-0.0169125,0.0862125,0.0108624995
1692522833824,-0.68295,-0.44700003,8.70705,-0.006875,0.0972125,-0.002475
1692522833852,-0.693,-0.60495,8.48505,0.012375,0.10175,0.0144375
1692522833881,-0.441,-0.837,8.415,0.05775,0.100375,0.0512875
1692522833911,-0.26895002,-0.873,8.13795,0.0631125,0.095425,0.043175
1692522833947,-0.46095002,-0.55995005,7.254,0.010725,0.053625,0.033825
1692522833974,-0.40305,-0.25095,6.2509503,-0.055825,-0.0240625,0.0741125
1692522834002,-0.54405004,-0.16005,5.8680005,-0.0565125,-0.0422125,0.0710875
1692522834030,-0.58305,-0.177,5.9329505,-0.0287375,-0.0352,0.0320375
1692522834059,-0.57795,-0.30405003,5.70795,0.06985,0.02695,-0.1348875
1692522834089,0.177,-0.50205004,6.3970504,0.112475,0.0653125,-0.22659999
1692522834117,0.08400001,-0.18195,6.7950006,0.1364,0.092675,-0.2825625
1692522834147,-0.94200003,0.22905001,5.9710503,0.1255375,0.0254375,-0.1887875
1692522834177,-0.69000006,-0.33,6.1870503,0.1467125,-0.0911625,-0.06435
1692522834207,-0.34800002,-0.897,6.6780005,0.18865,-0.047025,-0.120175
1692522834238,-0.46095002,-0.62700003,7.9030504,0.15675,0.0925375,-0.2497
1692522834272,-0.846,-0.53805,8.281051,0.058849998,0.088825,-0.2387
1692522834298,-1.2,-0.35595003,8.722051,-0.08745,0.0385,-0.1837
1692522834327,-0.75495005,-1.0030501,11.070001,-0.089375,0.0664125,-0.2008875
1692522834354,-0.87705004,-1.3740001,12.066001,-0.0677875,0.11715,-0.23127499
1692522834383,-0.69795,-1.848,12.034051,-0.072325,0.1354375,-0.183425
1692522834412,-0.38895002,-2.23095,13.036951,-0.1296625,0.0853875,-0.090475
1692522834440,-0.79305005,-1.7850001,13.276951,-0.2960375,-0.0490875,0.1423125
1692522834469,-1.0879501,-1.21305,12.963,-0.3586,-0.1087625,0.246125
1692522834498,-0.46305,-1.39005,13.84395,-0.3469125,-0.139425,0.31075
1692522834528,-0.46305,-1.39005,13.84395,-0.3469125,-0.139425,0.31075
1692522834556,-0.89895004,-0.61005,12.640051,-0.111925,-0.1145375,0.367125
1692522834583,-1.32,-0.342,13.317,-0.0512875,-0.1364,0.47685
1692522834613,-0.609,-0.53295004,13.68105,0.0125124995,-0.1354375,0.536525
1692522834642,-0.68295,0.081,13.023001,0.17379999,-0.035475,0.3163875
1692522834673,-0.85995007,0.81795,13.68105,0.2844875,-0.0012375,0.09955
1692522834702,-0.52005005,0.492,14.62005,0.3290375,-0.015675,0.1164625
1692522834732,-0.58305,0.08295,14.707951,0.38334998,-0.0232375,0.161975
1692522834760,0.70395005,-1.0309501,15.835951,0.4448125,-0.0488125,0.23773749
1692522834790,-0.15195,-0.57900006,15.92895,0.4076875,-0.0820875,0.271425
1692522834819,-0.24495001,-0.41595003,15.405001,0.3201,-0.1368125,0.33825
1692522834848,-1.26195,-0.32805002,14.128951,0.10945,-0.2481875,0.4896375
1692522834876,-1.8870001,-1.25205,14.490001,0.0312125,-0.19085,0.27981248
1692522834904,-1.131,-1.623,14.188951,0.0232375,-0.0935,0.0400125
1692522834934,-0.48000002,-1.7730001,13.569,-0.0,0.0253,-0.2057
1692522834966,-0.33405003,-1.536,12.705001,-0.141075,0.1705,-0.4257
1692522834995,-0.40995002,-1.6390501,11.69505,-0.286275,0.093775,-0.2765125
1692522835024,0.01695,-2.154,12.496051,-0.312675,0.038775,-0.201025
1692522835052,-0.786,-2.08005,11.476951,-0.319,-0.0015125,-0.1494625
1692522835082,-1.96905,-1.26405,9.61695,-0.3493875,-0.072875,-0.0155375
1692522835111,-0.73605,-1.3570501,9.126,-0.3713875,-0.0672375,0.0127875
1692522835140,0.45495003,-2.1730502,8.887051,-0.3378375,0.1419,-0.23705
1692522835169,0.855,-2.094,7.2499504,-0.29535,0.226325,-0.36574998
1692522835196,0.075,-1.59405,6.57705,-0.3246375,0.0342375,-0.0699875
1692522835227,-2.49,-0.70095,8.311951,-0.3894,-0.158675,0.2674375
1692522835262,-1.794,-0.76995003,6.74205,-0.3763375,-0.2080375,0.4090625
1692522835290,-0.59895,-0.86895007,5.4810004,-0.2464,0.064899996,1.375E-4
1692522835321,0.9480001,-1.14405,4.557,0.05775,0.645975,-0.8531875
1692522835350,0.82605004,-1.04295,6.4740005,0.0979,0.6499625,-0.851675
1692522835379,0.13695,-0.58395004,8.08695,-0.0653125,0.124025,-0.1408
1692522835408,0.13695,-0.052050002,6.0810003,-0.140525,-0.2046,0.2451625
1692522835436,0.21105,-0.37800002,5.466,-0.0191125,-0.5179625,0.480425
1692522835470,0.16605,-1.11,8.01105,0.115225,-0.50325,0.3949
1692522835499,-0.40095,-0.64095,7.0009503,0.2124375,-0.4565,0.2954875
1692522835528,-2.2030501,-0.16995001,5.71005,0.207625,-0.3645125,0.17545
1692522835557,-0.264,-1.3069501,8.083051,0.1727,-0.0191125,-0.1307625
1692522835586,1.7310001,-1.50495,9.703051,0.19373749,0.272525,-0.4038375
1692522835615,0.88395005,-0.50205004,9.238951,0.099275,0.31845,-0.35145
1692522835644,0.10305001,-0.27705002,8.50605,-2.75E-4,-0.028324999,0.073425
1692522835672,-0.20895001,-1.0720501,9.531,-0.033825,-0.374825,0.465025
1692522835701,-1.1880001,-1.05495,10.31805,0.0760375,-0.510125,0.53955
1692522835731,-1.23405,-1.0189501,11.311951,0.103675,-0.3620375,0.345125
1692522835765,-0.56595004,-0.90405005,10.845,0.071225,0.055825,-0.12045
1692522835794,-0.549,-0.55695003,9.468,0.068475,0.2278375,-0.279675
1692522835824,0.060000002,-1.2060001,9.504001,0.095975,0.3034625,-0.2872375
1692522835852,0.453,-1.7880001,10.099951,0.1032625,0.248325,-0.221375
1692522835880,0.16800001,-1.5870001,10.375951,0.0396,0.0724625,-0.0317625
1692522835910,-0.37695003,-1.12695,9.946951,-0.048675,-0.0462,0.1079375
1692522835938,-0.31500003,-1.00995,9.765,-0.1903,-0.1934625,0.227425
1692522835968,-0.34800002,-0.83295006,9.684,-0.18095,-0.16335,0.14135
1692522835992,-0.36195,-0.74700004,9.507001,-0.13255,-0.09295,0.014712499
1692522836021,-0.33600003,-0.55005,8.724,-0.014025,0.0270875,-0.2267375
1692522836050,-0.39405003,-0.47805002,8.43,0.0396,0.0614625,-0.33275
1692522836079,-0.24495001,-0.73200005,8.776951,0.1260875,0.09075,-0.3763375
1692522836107,-0.16095,-0.78000003,8.667001,0.1535875,0.089375,-0.2957625
1692522836136,-0.28605002,-0.55305004,7.7400002,0.1414875,0.0466125,-0.014025
1692522836165,-0.3,-0.39495003,7.5100503,0.1073875,0.010175,0.1491875
1692522836193,-0.291,-0.32295,7.0249505,0.0814,-0.0155375,0.2561625
1692522836224,-0.022950001,-0.51705,7.1710505,0.0979,-0.0045375,0.186725
1692522836252,-0.049050003,-0.591,6.59595,0.1291125,0.009075,0.050049998
1692522836281,-0.135,-0.51900005,5.9160004,0.1197625,-0.0094875,0.0452375
1692522836307,-0.22395001,-0.38505003,5.39505,0.095425,-0.036025,0.0631125
1692522836337,-0.58995,-0.34395,5.19105,0.038775,-0.0556875,0.081125
1692522836372,-0.60195005,-0.79005,5.4810004,0.022,-0.03135,0.0620125
1692522836400,-0.52500004,-0.78195006,6.61005,-0.0039875,0.0939125,-0.043449998
1692522836429,-0.01305,-1.0189501,7.3840504,-0.0396,0.1661,-0.1128875
1692522836457,-0.303,-0.86100006,7.48395,-0.132275,0.2116125,-0.172425
1692522836492,-1.21695,-0.30795002,8.037001,-0.1617,0.1579875,-0.0944625
1692522836517,-0.50895,-0.67005,8.487,-0.1450625,0.0655875,0.126225
1692522836545,-0.25005,-0.78705,9.13305,-0.0853875,0.09735,0.1340625
1692522836573,-0.66195005,-0.92595005,9.6,0.0279125,0.1139875,0.13475
1692522836604,-1.10895,-0.91395,9.23595,0.0369875,0.0496375,0.201575
1692522836632,-0.882,-1.4310001,9.8869505,0.01155,0.0209,0.106837496
1692522836661,-0.49695003,-1.8829501,10.57695,-0.00605,0.091299996,-0.06545
1692522836689,-1.00605,-1.9720501,12.4129505,-0.0433125,0.155375,-0.1918125
1692522836719,-1.3990501,-1.3740001,13.215,-0.194975,0.12045,-0.1005125
1692522836748,-1.1380501,-1.04805,12.859951,-0.245025,0.0801625,0.001375
1692522836777,-0.78105,-1.08405,12.829051,-0.2270125,0.0803,0.028324999
1692522836806,-1.1400001,-1.1220001,13.674001,-0.0561,0.115775,-0.0353375
1692522836834,-1.19505,-1.2780001,14.170051,0.069575,0.0583,0.086075
1692522836863,-1.047,-1.386,14.02095,0.0966625,0.03355,0.1343375
1692522836891,-0.9990001,-1.31595,14.0140505,0.10725,0.0221375,0.1293875
1692522836922,-1.368,-0.56505,13.36305,0.0851125,-0.0,0.10285
1692522836950,-1.2430501,-0.052050002,13.557001,0.072325,-0.0114124995,0.108899996
1692522836980,-1.2030001,-0.040050004,14.919001,0.13859999,0.0075625,0.016224999
1692522837007,-1.0879501,-0.177,14.899951,0.2171125,0.029424999,-0.0682
1692522837038,-1.1380501,-0.35895002,14.99295,0.3411375,0.0356125,-0.1362625
1692522837062,-0.54195005,-0.71805006,15.627001,0.352825,0.018975,-0.0983125
1692522837095,0.096,-1.113,15.976951,0.3315125,-0.0031625,-0.0232375
1692522837124,-1.53495,-1.1029501,16.446001,0.205975,-0.0974875,0.227975
1692522837153,-2.5770001,-1.29495,16.029001,0.1175625,-0.16555,0.3587375
1692522837181,-1.29795,-2.16105,14.478001,-0.0169125,-0.127325,0.2993375
1692522837209,-0.52500004,-2.3140502,12.625951,-0.0561,-0.014025,0.1357125
1692522837240,-1.42005,-1.55805,11.41695,-0.1808125,0.1144,-0.032449998
1692522837269,-2.091,-1.2900001,11.155951,-0.2607,0.1035375,-0.0484
1692522837297,-1.7700001,-1.6009501,11.508,-0.2946625,0.12979999,-0.25685
1692522837325,-1.26705,-1.9429501,11.71905,-0.2432375,0.1984125,-0.4404125
1692522837357,-0.99405,-2.46795,11.944051,-0.1912625,0.2630375,-0.581625
1692522837382,-0.98700005,-2.59695,11.932051,-0.1920875,0.248325,-0.5726875
1692522837413,-1.5880501,-2.15895,11.034,-0.2424125,0.17655,-0.4613125
1692522837441,-1.593,-1.9939501,8.85105,-0.352825,0.042625,-0.1667875
1692522837472,-0.57105005,-2.2759502,6.4570503,-0.37125,0.0336875,-0.074525
1692522837502,0.201,-2.0269501,5.3440504,-0.35021248,0.1199,-0.144925
1692522837534,0.23505001,-1.539,5.3869505,-0.41799998,0.07095,-0.1771
1692522837563,-0.71205,-1.1029501,6.1050005,-0.4800125,-0.054725,-0.0466125
1692522837591,-1.60695,-0.55305004,5.8279505,-0.5124625,-0.1991,0.1324125
1692522837619,-0.492,-0.483,3.7480502,-0.372075,-0.2558875,0.2212375
1692522837650,0.90495,-0.67905,2.33295,-0.2041875,-0.092125,0.0235125
1692522837679,0.65895003,-0.057000004,4.629,0.0705375,0.189475,-0.357225
1692522837708,-0.17805001,0.33195,5.5360503,0.0939125,0.0682,-0.25795
1692522837738,-1.07595,0.19800001,7.932,0.2096875,-0.3988875,0.1794375
1692522837767,-1.33395,-0.39495003,7.5030003,0.4057625,-0.4307875,0.163625
1692522837796,-1.69305,-1.05495,7.3999505,0.75528747,-0.041249998,-0.2963125
1692522837825,-1.4110501,-1.3879501,8.394,0.75955,0.19965,-0.52195
1692522837853,1.18305,-2.403,10.222051,0.638,0.3903625,-0.672925
1692522837881,1.3620001,-2.16105,10.24905,0.16499999,0.3821125,-0.547525
1692522837908,0.30195,-1.6699501,9.16905,-0.1065625,0.058575,-0.1475375
1692522837941,-0.87705004,-1.8139501,9.765,-0.4266625,-0.689975,0.7030375
1692522837968,-1.047,-2.1349502,11.27805,-0.42185,-0.755975,0.771925
1692522837998,-1.167,-1.31895,10.632001,-0.29645,-0.344025,0.3551625
1692522838025,-0.31005,-0.87600005,9.6,-0.2398,-0.1005125,0.1087625
1692522838055,0.18900001,-0.522,9.196051,-0.065175,0.155375,-0.1417625
1692522838083,-0.32205,-0.56895,8.99895,0.0532125,0.1342,-0.088275
1692522838122,-0.08505,-1.3590001,9.880051,0.2457125,-0.065725,0.131175
1692522838149,-0.25995,-1.44105,9.688951,0.282425,-0.1392875,0.1876875
1692522838178,-0.513,-1.0699501,9.217051,0.190025,-0.190575,0.294525
1692522838206,-0.39105,-0.79395,9.27,0.109725,-0.18259999,0.3278
1692522838238,-0.25005,-0.684,9.18105,0.0576125,-0.14973749,0.3070375
1692522838264,-0.41805002,-0.63900006,8.953951,0.0790625,-0.0600875,0.1879625
1692522838294,-0.48900002,-0.72705,9.064051,0.16005,-0.0319,0.122099996
1692522838322,-0.384,-0.9480001,9.283951,0.183975,-0.0199375,0.07535
1692522838352,-0.21900001,-1.05795,9.198001,0.1892,0.0012375,0.0248875
1692522838381,-0.31005,-0.82305,8.41005,0.132825,0.0202125,0.064625
1692522838410,-0.33405003,-0.72495,7.7140503,0.08525,0.0033,0.1392875
1692522838439,-0.45600003,-0.59595,7.53,0.0295625,-0.0284625,0.206525
1692522838467,-0.312,-0.78000003,7.6470003,0.0287375,-0.0231,0.19607499
1692522838499,-0.26700002,-0.80205005,7.1680503,0.039875,0.0180125,0.1397
1692522838521,-0.39795002,-0.62700003,6.498,0.0341,0.0262625,0.124575
1692522838554,-0.28800002,-0.74700004,5.5930505,0.018424999,0.018975,0.1269125
1692522838583,-0.28095,-0.97905004,6.3900003,-0.014162499,0.014712499,0.098725
1692522838611,-0.84795004,-1.0189501,5.80905,-0.0292875,0.02585,0.0518375
1692522838640,-0.70695,-1.338,6.0859504,-0.0908875,0.058025,-0.0540375
1692522838669,-0.50895,-1.1080501,6.43305,-0.1343375,0.11275,-0.1375
1692522838698,-1.49205,-0.28500003,6.129,-0.212575,0.2486,-0.3276625
1692522838736,-1.7050501,-0.016050002,6.9529505,-0.2118875,0.276925,-0.3865125
1692522838764,-0.84795004,-0.67005,7.7860503,0.003025,0.44275,-0.6458375
1692522838793,-0.73095006,-0.60300004,7.6729503,0.316525,0.6452875,-0.9450375
1692522838822,-1.485,-0.37305,8.70705,0.3559875,0.5647125,-0.848375
1692522838851,-0.99000007,-1.07895,10.371,0.32395,0.4015,-0.61985
1692522838879,-0.549,-1.0170001,10.870951,0.245575,0.1662375,-0.229075
1692522838911,-1.21905,-1.029,11.637,0.19855,0.09515,-0.1012
1692522838939,-1.5310501,-0.99105006,12.85305,0.0495,-0.0944625,0.202125
1692522838968,-0.96105003,-1.28295,13.64805,0.0023375,-0.146575,0.314325
1692522838997,-0.61605,-1.31895,12.963,-0.01155,-0.11055,0.3597
1692522839026,-1.03995,0.39405003,11.48595,-0.0191125,-0.109725,0.3928375
1692522839055,-1.3770001,0.813,11.34,-0.0242,-0.1879625,0.5501375
1692522839085,-0.38595003,-0.62700003,13.224001,0.072875,-0.17875,0.511225
1692522839112,1.161,-2.43405,16.05105,0.23485,-0.12485,0.3474625
1692522839142,0.06705,-1.47405,14.239051,0.36135,-0.08745,0.176825
1692522839171,-1.7910001,0.75105006,13.102051,0.2255,-0.2149125,0.267025
1692522839201,-0.36495003,0.52605003,14.859001,0.023375,-0.2721125,0.381975
1692522839230,-0.64995,0.38205,16.82205,0.0900625,-0.166925,0.180125
1692522839258,-0.95595,0.061950002,16.527,0.3136375,-0.0539,-0.0611875
1692522839287,-1.19505,-0.031050002,16.62495,0.3487,-0.0862125,0.0092124995
1692522839315,-1.914,0.29595003,16.12305,0.3339875,-0.106975,0.0840125
1692522839344,-2.70105,0.46095002,14.284051,0.2380125,-0.0545875,0.121
1692522839375,-2.6890502,-0.25095,13.332001,0.18727499,0.1211375,-0.1260875
1692522839399,-2.36595,-1.04295,13.650001,0.1860375,0.233475,-0.3518625
1692522839432,0.00795,-2.42205,14.37495,0.1703625,0.328075,-0.5666375
1692522839460,1.06095,-2.94405,13.83195,0.0015125,0.350075,-0.688875
1692522839489,-0.20205002,-2.2470002,13.51605,-0.1750375,0.217525,-0.473275
1692522839518,-0.97005004,-1.7299501,13.045051,-0.38334998,-0.003025,-0.0671
1692522839547,-0.34800002,-1.79295,12.163951,-0.6417125,-0.3675375,0.64033747
1692522839576,-0.30495003,-1.8550501,13.107,-0.55439997,-0.2979625,0.4670875
1692522839604,-0.90105003,-1.3930501,12.372001,-0.4796,-0.2311375,0.3293125
1692522839634,-0.76500005,-1.39005,10.231951,-0.4214375,-0.20515,0.2803625
1692522839663,0.094050005,-2.4750001,9.540001,-0.3069,-0.1511125,0.190025
1692522839692,0.984,-2.5470002,7.6590004,-0.2574,-0.0996875,0.0979
1692522839720,-0.18300001,-1.86195,8.64,-0.2539625,-0.08085,0.054175
1692522839752,-2.59095,-0.273,6.333,-0.398475,-0.198275,0.234575
1692522839783,-0.83595,0.016050002,4.45905,-0.39325,-0.1021625,0.109037496
1692522839813,1.3810501,-0.648,5.72205,-0.242275,0.1573,-0.306075
1692522839842,0.558,-0.37605003,5.7180004,0.08415,0.4939,-0.898425
1692522839870,-0.33405003,0.0139500005,5.136,0.1379125,0.3166625,-0.6936875
1692522839897,-0.043950003,0.033,3.7240503,0.15413749,-0.2431,0.0045375
1692522839924,1.31895,-0.79905003,4.67595,0.1997875,-0.3254625,0.1084875
1692522839953,1.0390501,-1.113,6.1800003,0.2556125,-0.2993375,0.0875875
1692522839983,-1.94895,-0.46395,6.0480003,0.206525,-0.38334998,0.22
1692522840011,-2.5789502,-0.13605,4.58295,0.093637496,-0.5058625,0.4134625
1692522840039,-0.054,-1.3780501,8.118,-0.029424999,-0.102575,0.0939125
1692522840075,1.0890001,-0.81105006,10.191001,0.056925,0.7228375,-0.8485125
1692522840101,0.72795004,-0.20595,9.229051,0.056925,0.7228375,-0.8485125
1692522840130,0.36900002,-0.10695001,7.8840003,0.047025,0.26015,-0.37125
1692522840157,-0.13995,-1.05795,8.793,0.1623875,-0.364925,0.324775
1692522840188,-0.88005006,-1.6870501,11.331,0.2321,-0.44027498,0.4162125
1692522840217,-0.52995,-1.74705,11.680051,0.2267375,-0.4021875,0.3878875
1692522840246,-0.12795001,-0.60105,9.47295,1.375E-4,-0.14135,0.1398375
1692522840275,-0.3,0.16395001,9.009001,-0.1560625,0.036025,0.032449998
1692522840303,-0.61605,0.186,9.01095,-0.109175,0.040425,0.0749375
1692522840330,-0.24300002,-0.43095002,9.739051,0.0114124995,0.0345125,0.087725
1692522840360,0.24705002,-1.33305,10.503,0.264,0.0812625,-0.0834625
1692522840390,0.01905,-1.23705,10.368,0.2866875,0.0859375,-0.13585
1692522840421,-0.46500003,-0.62205005,10.054951,0.1034,-0.029975,0.0132
1692522840451,-0.69795,-0.025950002,9.765,-0.0026125,-0.0840125,0.1032625
1692522840480,-0.89595,0.351,9.153001,-0.029424999,-0.0402875,0.0966625
1692522840509,-0.61395,0.21705002,9.15705,0.0510125,0.0358875,0.01265
1692522840539,-0.44400004,-0.08805001,9.3490505,0.257125,0.1736625,-0.1947
1692522840567,-0.39600003,-0.25095,9.14295,0.321475,0.199925,-0.236225
1692522840597,-0.303,-0.35205,9.01095,0.3158375,0.1579875,-0.134475
1692522840625,-0.62595004,-0.165,9.16005,0.2633125,0.1159125,-0.0658625
1692522840657,-0.56595004,-0.17205001,8.997001,0.156475,0.064625,-0.0460625
1692522840686,-0.55905,-0.15495001,8.7619505,0.1243,0.06655,-0.0633875
1692522840721,-0.40095,-0.13605,8.3890505,0.089925,0.0807125,-0.032449998
1692522840747,-0.33600003,-0.07395,8.016001,0.0818125,0.07645,-0.0119624995
1692522840775,-0.26205,0.034950003,7.39095,0.0771375,0.044,-0.034649998
1692522840804,-0.31500003,-0.0139500005,7.1280003,0.07975,0.020075,-0.0438625
1692522840839,-0.69000006,-0.08295,6.57,0.088275,-0.01815,0.06875
1692522840855,-0.76500005,-0.15300001,6.1920004,0.0873125,-0.0169125,0.15455
1692522840889,-0.70500004,-0.34005,5.5960503,0.079475,0.0094875,0.1837
1692522840920,-0.28605002,-0.39705002,4.61205,0.0309375,0.1211375,0.0292875
1692522840949,-0.16905001,-0.43095002,4.9230003,-0.0125124995,0.1695375,-0.0738375
1692522840978,-0.33600003,-0.44295,5.63595,-0.106975,0.1574375,-0.1417625
1692522841007,-1.2100501,0.12105001,5.7559505,-0.148225,0.100925,-0.08965
1692522841035,-0.98205006,-0.10005,5.184,-0.15565,0.0496375,-0.0589875
1692522841068,-0.05595,-0.73905003,5.9020505,-0.0935,0.116875,-0.16335
1692522841096,0.015000001,-1.0339501,8.14005,0.0,0.2542375,-0.3001625
1692522841124,-0.657,-0.8880001,11.39805,-0.0650375,0.1882375,-0.160875
1692522841160,-2.151,0.021000002,10.26795,-0.2734875,-0.1137125,0.302225
1692522841183,-1.2100501,-0.73200005,10.9789505,-0.2619375,-0.1329625,0.30745
1692522841212,0.41700003,-1.9960501,12.328951,-0.154,-0.001375,0.09075
1692522841241,0.70605004,-2.331,13.755001,0.0088,0.231,-0.2399375
1692522841270,-1.059,-1.40205,13.24995,-0.091575,0.0911625,-0.0319
1692522841297,-1.94895,-0.873,13.003951,-0.2619375,-0.16499999,0.32175
1692522841327,-0.25500003,-1.6540501,13.744051,-0.4081,-0.415525,0.6358
1692522841359,0.15795001,-1.7260501,14.3230505,-0.348425,-0.3183125,0.4893625
1692522841387,-1.36995,-1.0720501,13.85805,-0.2072125,-0.137775,0.2305875
1692522841415,-1.6170001,-0.35895002,13.594951,-0.17435,-0.1568875,0.2619375
1692522841447,-1.5690001,0.45900002,12.315001,-0.0814,-0.114675,0.20735
1692522841473,-1.5139501,0.492,12.56595,0.024475,0.00495,0.013612499
1692522841504,0.094050005,-0.55695003,14.251051,0.3086875,0.2272875,-0.3971
1692522841532,-0.022950001,-0.31995,14.610001,0.4153875,0.2660625,-0.4970625
1692522841561,-1.36995,0.81105006,15.1699505,0.430925,0.1337875,-0.363825
1692522841590,-1.452,1.014,14.851951,0.3810125,0.0133375,-0.1651375
1692522841618,-0.61395,-0.16005,14.866051,0.38334998,-0.048675,0.023375
1692522841648,0.14595,-1.3780501,16.39995,0.4224,0.0011,-0.050875
1692522841675,-0.74295,-1.28295,15.627001,0.3168,-0.0061875,-0.03795
1692522841706,-1.5880501,-1.0860001,14.727,0.1502875,-0.0785125,0.127875
1692522841730,-1.8079501,-1.02405,14.148001,-0.021724999,-0.1331,0.278025
1692522841764,-1.0540501,-0.85905004,12.682951,-0.1978625,-0.0496375,0.1832875
1692522841794,-0.25695002,-1.2610501,12.37905,-0.2061125,0.0449625,0.0012375
1692522841823,-0.231,-1.4599501,13.15005,-0.1843875,0.131725,-0.1931875
1692522841851,-0.95400006,-1.4290501,12.355051,-0.19745,0.0798875,-0.117837496
1692522841880,-1.14795,-1.6129501,12.172951,-0.2286625,-0.011825,0.0265375
1692522841908,-1.0570501,-1.96695,11.72805,-0.27665,-0.1021625,0.1706375
1692522841937,-0.034950003,-2.1319501,10.225051,-0.30195,8.25E-4,-0.0064625
1692522841964,0.087000005,-1.9980001,9.571051,-0.32725,0.042625,-0.12045
1692522841994,-0.86805004,-1.7710501,9.076051,-0.35901248,0.040425,-0.1852125
1692522842021,-0.38895002,-2.23305,7.3309503,-0.405625,-0.0334125,-0.127325
1692522842054,0.07005,-2.6539502,6.33795,-0.429825,-0.04675,0.0089375
1692522842080,0.20895001,-2.77905,6.43095,-0.47547498,-0.0534875,0.088825
1692522842107,0.32595003,-2.11095,5.631,-0.5539875,-0.08525,0.176275
1692522842137,-0.20205002,-1.24395,4.05405,-0.7151375,-0.2156,0.350075
1692522842168,-0.83595,-0.423,4.7719502,-0.73039997,-0.2748625,0.410025
1692522842196,-0.70500004,0.32205,4.8370504,-0.5256625,-0.187,0.1876875
1692522842224,0.51000005,0.058950003,5.36805,-0.298375,-0.01375,-0.1348875
1692522842255,1.07505,-0.24105,6.7710004,0.236225,0.2281125,-0.55233747
1692522842283,0.45495003,0.049950004,6.3640504,0.42734998,0.119075,-0.42625
1692522842315,-1.485,0.94695,6.7210503,0.6153125,-0.3744125,0.083325
1692522842342,-1.2910501,0.65805006,6.663,0.6763625,-0.45113748,0.1145375
1692522842370,-0.67605,-0.46605003,8.454,0.75734997,-0.28435,-0.1175625
1692522842401,-0.13305001,-1.26795,8.3869505,0.88,0.31033748,-0.76285
1692522842430,1.40295,-2.094,9.76095,0.7869125,0.429,-0.8245875
1692522842459,1.542,-2.1010501,10.38,0.2547875,0.1907125,-0.419925
1692522842488,0.30900002,-1.6129501,9.772051,-0.061049998,-0.0988625,-0.0567875
1692522842516,-0.018000001,-1.9050001,9.993,-0.4521,-0.5916625,0.54614997
1692522842543,-0.16905001,-2.0770502,10.383,-0.491975,-0.599775,0.5605875
1692522842575,-0.05595,-1.98405,10.849951,-0.4800125,-0.4731375,0.4197875
1692522842597,0.24000001,-1.74195,10.086,-0.4203375,-0.159225,0.1078
1692522842631,0.28005,-1.338,9.62895,-0.3768875,-0.0543125,0.010175
1692522842658,0.35505003,-1.4809501,9.729,-0.253275,4.125E-4,-0.0441375
1692522842687,0.44295,-1.9410001,10.395,-0.179025,-0.0314875,0.0066
1692522842718,0.41400003,-2.3100002,10.548,-0.0705375,-0.1189375,0.2022625
1692522842745,0.28995,-2.08905,10.716001,-0.0699875,-0.1549625,0.3051125
1692522842776,0.16305001,-1.5409501,10.203,-0.1034,-0.17379999,0.3722125
1692522842804,-0.018000001,-1.04295,9.612,-0.160325,-0.142175,0.3268375
1692522842836,-0.06105,-0.87105006,9.46395,-0.13145,-0.095699996,0.2179375
1692522842869,0.23295002,-1.1410501,9.31305,0.030524999,0.0328625,-0.100925
1692522842890,0.35895002,-1.1850001,9.069,0.1164625,0.091299996,-0.2426875
1692522842924,0.216,-1.01505,8.580001,0.2008875,0.1153625,-0.2814625
1692522842953,0.064950004,-0.933,8.51805,0.19373749,0.0776875,-0.1832875
1692522842983,-0.11805001,-0.92805004,8.620951,0.171325,0.0308,-0.0677875
1692522843012,-0.31905,-0.75600004,8.454,0.140525,-0.00605,0.039049998
1692522843040,-0.32205,-0.804,8.604,0.144375,0.061325,-0.038775
1692522843068,-0.264,-0.79695004,7.8960004,0.1533125,0.114675,-0.09845
1692522843097,-0.38205,-0.55695003,7.25895,0.1557875,0.190025,-0.18287499
1692522843124,-0.25500003,-0.51900005,6.81405,0.1507,0.2024,-0.1992375
1692522843154,0.11505,-0.67695004,6.4240503,0.1508375,0.2061125,-0.209825
1692522843180,0.35700002,-0.63900006,5.6509504,0.1511125,0.1815,-0.20185
1692522843210,-0.19995001,-0.10305001,4.5469503,0.1310375,0.1276,-0.12773749
1692522843240,-0.97005004,0.24300002,3.42195,0.0743875,-0.0270875,0.0961125
1692522843267,-1.2070501,-0.35595003,3.8239503,0.0845625,-0.0380875,0.0801625
1692522843298,0.04605,-1.69395,6.57705,0.2198625,0.24653749,-0.39435
1692522843328,0.90000004,-2.18505,8.463,0.242825,0.447425,-0.680075
1692522843362,-1.5259501,-0.80205005,7.7569504,-0.1189375,0.34155,-0.5660875
1692522843390,-1.815,-0.14805001,7.9410005,-0.374275,0.056649998,-0.188925
1692522843418,-0.006,-1.0030501,9.966001,-0.372625,-9.625E-4,-0.0097624995
1692522843445,-0.48495004,-0.94005007,11.071951,-0.152625,0.216425,-0.22275
1692522843478,-1.7839501,-0.54105,10.15095,0.146575,0.2875125,-0.219175
1692522843506,-1.1400001,-0.93105006,10.431001,0.18493749,0.19745,-0.066825
1692522843535,0.02205,-1.7400001,12.609,0.223575,0.2316875,-0.007425
1692522843565,-0.38595003,-1.3620001,13.909051,0.1892,0.2294875,0.0471625
1692522843594,-0.97800004,-0.70305,11.800051,-0.0078375,-0.0732875,0.5201625
1692522843624,-0.91995007,-0.648,11.686951,-0.0078375,-0.0732875,0.5201625
1692522843652,-0.384,-0.56895,12.11295,-0.044825,-0.2305875,0.7338375
1692522843679,-0.71400005,-0.47100002,13.107,0.0708125,-0.1428625,0.47025
1692522843705,-0.78105,-0.62205005,12.634951,0.1199,-0.1249875,0.37454998
1692522843732,-1.2430501,-0.30795002,12.40095,0.1574375,-0.1170125,0.340175
1692522843766,-1.2859501,0.693,12.204,0.19607499,-0.0539,0.2805
1692522843792,-0.74805003,1.32105,12.328951,0.215875,0.00715,0.1672
1692522843825,-0.10395,1.84695,14.569051,0.3488375,0.1216875,-0.12155
1692522843852,0.24405001,0.46095002,17.080051,0.579425,0.0815375,-0.1563375
1692522843880,0.81195,0.342,18.247952,0.6534,-0.0053625,-0.0529375
1692522843909,-0.29505002,0.66705,17.655,0.6413,-0.116325,0.112475
1692522843938,-2.5789502,0.71505004,16.546051,0.4134625,-0.298375,0.446325
1692522843967,-2.3419502,-0.80895007,16.417051,0.311575,-0.283525,0.4225375
1692522843996,-1.6720501,-2.2999501,16.89405,0.1909875,0.0121,-0.1060125
1692522844026,-2.1049502,-2.19,15.103051,0.0809875,0.1706375,-0.342375
1692522844052,-1.5660001,-2.08005,13.188001,-0.090475,0.2662,-0.4467375
1692522844085,-1.09695,-1.8240001,12.472951,-0.4214375,0.31845,-0.463375
1692522844114,-0.513,-2.21895,12.59895,-0.5369375,0.259325,-0.392425
1692522844142,-0.29505002,-2.3500502,12.68595,-0.5369375,0.259325,-0.392425
1692522844172,-0.94905007,-1.74705,12.460951,-0.531575,0.12265,-0.3034625
1692522844207,-1.1719501,-1.5319501,11.778001,-0.4959625,-0.02365,-0.127325
1692522844236,0.15795001,-2.08695,9.993,-0.458975,-0.0611875,-0.0473
1692522844262,0.48900002,-2.2759502,8.535001,-0.3553,-0.06215,0.0070125
1692522844290,-0.64995,-1.4310001,8.025001,-0.33673748,-0.0911625,0.059675
1692522844318,-0.67095006,-1.3399501,6.6990004,-0.35475,-0.1538625,0.1464375
1692522844349,0.33105,-1.59405,5.1649504,-0.3815625,-0.21065,0.199375
1692522844379,-0.25995,-1.062,5.6650505,-0.3334375,-0.10285,0.0356125
1692522844408,0.43095002,-1.062,6.6130505,-0.3262875,-0.0831875,2.75E-4
1692522844435,1.743,-1.21305,5.2200003,-0.2806375,-0.1216875,0.0210375
1692522844463,1.4989501,-0.80595005,6.2779503,-0.2344375,-0.194425,0.0924
1692522844494,-1.00395,0.13605,6.4840503,-0.176275,-0.53295,0.4412375
1692522844523,-2.6200502,0.63795,5.3200502,-0.1073875,-0.650375,0.5226375
1692522844552,-1.64505,-0.25095,4.056,0.0363,-0.543125,0.318725
1692522844581,2.21895,-2.35695,7.458,0.418825,0.324225,-0.7753625
1692522844611,-0.549,-0.60495,4.6860003,0.4697,0.6243875,-1.0840499
1692522844637,-3.7810502,0.63105005,3.9510002,0.036849998,0.084425,-0.322575
1692522844674,1.45305,-1.1730001,7.97205,-0.0996875,0.021175,-0.1337875
1692522844699,2.9350502,-0.97395,10.536,0.093775,0.517825,-0.6969875
1692522844727,0.85995007,0.528,8.169001,0.252175,0.720775,-0.9337625
1692522844755,-0.231,0.90900004,7.11105,0.2792625,0.3575,-0.5042125
1692522844783,-0.549,-0.70305,9.604951,0.38665,-0.6466625,0.642675
1692522844814,-0.19695,-2.28795,11.704051,0.5363875,-0.6549125,0.5819
1692522844843,0.53205,-2.4079502,12.046051,0.4824875,-0.2017125,-0.0320375
1692522844871,0.54405004,-1.55295,10.675051,0.2107875,-0.0628375,-0.1648625
1692522844898,0.40995002,-0.98100007,9.6,-0.324775,-0.098037496,0.0174625
1692522844935,0.08205,-1.1530501,9.351001,-0.4098875,-0.18053749,0.192775
1692522844957,-0.18105,-1.55805,10.266001,-0.281325,-0.25547498,0.3790875
1692522844988,-0.022950001,-1.9770001,10.795051,-0.1962125,-0.2233,0.3592875
1692522845018,-0.18105,-1.4140501,10.773001,-0.1621125,-0.07865,0.1832875
1692522845045,-0.38595003,-0.82305,10.134001,-0.1871375,-0.0125124995,0.0796125
1692522845074,-0.47700003,-0.35205,9.339001,-0.1555125,0.08085,-0.1254
1692522845103,-0.42495003,-0.38295,8.974951,-0.069025,0.1310375,-0.2360875
1692522845131,-0.14895001,-0.67695004,9.16005,0.042625,0.18205,-0.3328875
1692522845162,-0.010950001,-0.97200006,9.603001,0.21835,0.223025,-0.3999875
1692522845195,-0.28605002,-0.63900006,9.02805,0.21779999,0.13365,-0.1885125
1692522845216,-0.47295,-0.43800002,8.67405,0.17325,0.0774125,-0.0325875
1692522845251,-0.43005002,-0.51900005,8.83395,0.1387375,0.0474375,0.066
1692522845281,-0.279,-0.75405,9.042001,0.1516625,0.073425,0.0279125
1692522845309,-0.33105,-0.675,8.3890505,0.1681625,0.094325,-0.01485
1692522845337,-0.30705002,-0.59805006,8.06805,0.1645875,0.0988625,-0.022
1692522845362,-0.29295,-0.72495,7.6849504,0.1111,0.078925,-0.0056375
1692522845393,-0.324,-0.531,7.6470003,0.056649998,0.066825,0.0023375
1692522845422,-0.19005,-0.29700002,6.735,0.0363,0.0617375,0.0347875
1692522845451,-0.24495001,-0.093,6.0979505,0.0259875,0.057475,0.0594
1692522845478,-0.19695,-0.31605002,6.0070505,0.05775,0.054175,0.01925
1692522845510,-0.29805002,-0.64395005,5.8039503,0.0944625,0.051425,-0.019524999
1692522845537,-0.45600003,-0.91605,5.7769504,0.1189375,0.049225,-0.0661375
1692522845567,0.13395001,-1.3980001,6.2299504,0.07315,0.053075,-0.064899996
1692522845595,0.108,-1.386,6.8880005,-0.1214125,0.0358875,-0.0149875
1692522845625,-0.63105005,-0.94500005,7.15395,-0.2490125,-0.022,0.0631125
1692522845653,-0.95895004,-0.85905004,6.9810004,-0.41195,-0.1274625,0.19305
1692522845684,-0.30495003,-1.2919501,7.1610003,-0.385275,-0.0589875,0.0944625
1692522845713,0.13695,-1.39005,8.82705,-0.3133625,0.069575,-0.084975
1692522845741,-1.095,-0.462,8.655001,-0.2267375,0.1332375,-0.18933749
1692522845771,-1.57095,-0.26505002,8.67105,-0.2085875,0.041249998,-0.0809875
1692522845798,-0.79305005,-0.77295005,9.591001,-0.1397,0.0061875,-0.0488125
1692522845829,0.034050003,-1.4670001,11.671051,0.15785,0.2915,-0.4439875
1692522845857,-0.13305001,-1.23,12.51105,0.2531375,0.3306875,-0.500225
1692522845885,-1.3729501,-0.63195,11.709001,0.175175,0.1519375,-0.240625
1692522845914,-1.0489501,-0.66300005,12.625951,0.0944625,-0.0229625,0.056375
1692522845945,0.08205,-1.338,14.416051,0.0873125,-0.0917125,0.373175
1692522845975,-0.88005006,-0.708,14.212951,0.1516625,-0.0433125,0.5042125
1692522846002,-1.5780001,-0.036000002,12.879001,0.140525,-0.0922625,0.6232875
1692522846031,-1.677,0.064050004,12.760051,0.140525,-0.0922625,0.6232875
1692522846059,-0.91095006,-0.483,13.921051,0.2102375,0.001925,0.40507498
1692522846089,-1.0570501,-0.45195,14.62005,0.2707375,0.1023,0.1948375
1692522846115,-1.4059501,0.23595001,13.85595,0.3075875,0.1560625,0.056649998
1692522846146,-0.20205002,0.57405,14.553,0.3064875,0.1331,-0.0067375
1692522846176,-0.81495005,0.82005006,15.172951,0.3278,0.0650375,0.0708125
1692522846203,-1.0350001,0.65805006,15.5460005,0.3507625,0.0086624995,0.14905
1692522846234,-0.51795,0.55005,15.781051,0.3667125,-0.0449625,0.2013
1692522846262,-0.63105005,0.43305,14.718,0.3595625,-0.0765875,0.1607375
1692522846298,-1.128,-1.1770501,15.39,0.33165,-0.0798875,0.1329625
1692522846326,-1.8229501,-1.3810501,16.101,0.2118875,-0.08745,0.067375
1692522846356,-1.33395,-1.4170501,15.09405,-0.0418,-0.0133375,-0.1049125
1692522846382,-1.3410001,-1.52205,14.43105,-0.17105,0.0386375,-0.1513875
1692522846412,-2.00895,-1.3950001,13.8820505,-0.26345,0.078925,-0.118525
1692522846441,-2.3440502,-1.5630001,13.497001,-0.3466375,0.1307625,0.02915
1692522846473,-1.72395,-2.4480002,12.817051,-0.33261248,0.2380125,-0.13365
1692522846502,-1.4110501,-2.15205,11.26395,-0.321475,0.2976875,-0.265375
1692522846531,-1.26495,-1.39005,10.078951,-0.336875,0.3240875,-0.3267
1692522846563,-1.27695,-0.873,9.13095,-0.3898125,0.2688125,-0.310475
1692522846591,-0.58005005,-1.48395,6.7900505,-0.360525,0.2308625,-0.342925
1692522846619,1.161,-2.9890501,6.5479503,-0.219725,0.1859,-0.420475
1692522846648,1.1400001,-2.5510502,7.623,-0.20625,0.133375,-0.3730375
1692522846676,-2.94495,0.20295002,7.5780005,-0.429825,-0.188375,0.049775
1692522846706,-3.65595,1.24395,5.60295,-0.5314375,-0.34759998,0.2739
1692522846735,0.21105,-0.43500003,4.506,-0.1733875,0.0342375,-0.29205
1692522846765,2.59995,-1.7370001,5.85195,0.1942875,0.4390375,-0.8355875
1692522846794,1.7260501,-1.0720501,5.2440004,0.3953125,0.3999875,-0.6961625
1692522846821,0.54105,0.078,4.17105,0.1610125,-0.1016125,-0.026675
1692522846851,0.063,0.33195,4.3770003,-0.088275,-0.6397875,0.6829625
1692522846879,0.52005005,-0.25800002,5.41095,-0.1364,-1.0653499,1.2529
1692522846909,-0.079950005,-0.47100002,7.1040006,0.025575,-0.9524625,1.07745
1692522846937,-1.0180501,-0.19605,7.0600505,0.2413125,-0.6521625,0.6226
1692522846968,-0.20505,-0.98295003,9.00405,0.23375,-0.504625,0.432575
1692522847000,1.0030501,-1.182,9.96405,0.1722875,-0.0539,-0.101475
1692522847026,1.1850001,-0.70305,9.226951,0.117699996,0.0746625,-0.231
1692522847055,0.64695,-0.15495001,8.98305,-0.0174625,-0.17325,0.1687125
1692522847083,0.112950005,-0.30405003,9.62205,-0.0119624995,-0.36905,0.4401375
1692522847109,-0.43395,-0.58095,10.179001,0.052525,-0.46695,0.5550875
1692522847139,-0.39405003,-0.81105006,10.390051,0.1777875,-0.3018125,0.275275
1692522847172,-0.34095,-0.25605002,9.295951,0.18205,-0.122099996,0.0240625
1692522847201,-0.058050003,-0.07395,9.519,0.128425,0.1654125,-0.3240875
1692522847229,-0.21405001,-0.009000001,9.916051,0.1205875,0.22659999,-0.37345
1692522847259,-0.09705,-0.48105,9.801001,0.1791625,0.21725,-0.287375
1692522847287,-0.030000001,-0.81105006,9.72,0.2110625,0.185075,-0.2121625
1692522847317,0.112950005,-0.94500005,9.69795,0.1714625,0.12045,-0.0977625
1692522847346,-0.054,-0.76995003,9.373051,0.0933625,0.0840125,-0.0488125
1692522847375,-0.28095,-0.55995005,9.66495,-0.0671,0.0210375,0.0056375
1692522847404,-0.27195,-0.38700002,9.17205,-0.104775,0.0103124995,0.0158125
1692522847433,-0.43695003,-0.22200002,8.86995,-0.08525,0.0383625,0.0199375
1692522847462,-0.48900002,-0.16005,8.604,-0.044,0.0672375,-0.0108624995
1692522847492,-0.35805002,-0.28500003,8.65905,0.004125,0.097625,-0.0518375
1692522847520,-0.43005002,-0.23400001,8.65905,0.077,0.14025,-0.06435
1692522847551,-0.65505004,-0.036000002,8.116051,0.091299996,0.14575,-0.0523875
1692522847579,-0.882,0.03795,7.5700502,0.0961125,0.1458875,-0.0617375
1692522847613,-0.25005,-0.51195,7.80495,0.12979999,0.1936,-0.182325
1692522847639,0.156,-0.624,7.9840503,0.133925,0.2129875,-0.20019999
1692522847667,0.04095,-0.26505002,6.9240003,0.10725,0.198,-0.1577125
1692522847693,-0.69495004,0.14295001,5.703,0.0473,0.1315875,-0.0391875
1692522847723,-1.2859501,0.27195,4.7119503,-0.0495,-0.0389125,0.2267375
1692522847751,-0.93000007,-0.51405,5.22195,-0.0229625,-0.0358875,0.2052875
1692522847781,0.462,-1.4119501,7.209,0.1054625,0.1915375,-0.1846625
1692522847816,-0.022950001,-0.82095003,7.1280003,-0.00165,0.2795375,-0.3091
1692522847839,-1.57095,0.12900001,5.019,-0.1661,0.132825,-0.0881375
1692522847867,-1.03995,-0.12195001,5.4690003,-0.295625,-0.0422125,0.1560625
1692522847897,0.28305,-1.04805,7.6129503,-0.2277,-0.0039875,0.025024999
1692522847926,-0.83895004,-0.36600003,8.391001,-0.131725,0.117975,-0.17545
1692522847954,-2.0670002,0.35595003,7.9990506,-0.1040875,0.1291125,-0.1810875
1692522847984,-1.0570501,-0.30105,9.595051,-0.103675,0.0273625,-0.004125
1692522848013,-0.21900001,-1.098,11.899951,0.00165,0.135575,-0.1942875
1692522848041,-0.51795,-0.87600005,11.971951,0.1860375,0.3229875,-0.5300625
1692522848072,-1.36995,-0.124050006,11.991,0.13695,0.2140875,-0.3727625
1692522848101,-1.128,-0.0019500001,11.955001,0.00935,-0.0336875,1.375E-4
1692522848131,-0.89400005,-0.402,12.49905,0.043449998,-0.0248875,-0.0055
1692522848160,-0.46500003,-0.68205005,13.080001,0.1142625,0.0306625,-0.07315
1692522848190,-0.906,-0.06705,12.583051,0.1513875,0.037125,0.013612499
1692522848220,-1.00905,-0.105000004,12.98505,0.0605,-0.0826375,0.338525
1692522848248,-1.15695,-0.23205002,13.64805,0.061875,-0.1007875,0.37785
1692522848275,-1.011,-0.057000004,14.12205,0.1227875,-0.0427625,0.1804
1692522848305,-0.84405005,0.13095,14.253,0.1227875,-0.0427625,0.1804
1692522848333,-0.66405004,1.1149501,14.65305,0.1299375,0.0042625,0.0352
1692522848360,-0.74295,1.2220501,15.718051,0.18095,-0.0375375,0.1170125
1692522848391,-0.63495004,0.53505003,15.687,0.24213749,-0.0713625,0.2014375
1692522848415,0.10605001,-0.076050006,16.422,0.337425,-0.1115125,0.311025
1692522848447,0.30900002,-0.43800002,16.58205,0.3201,-0.1260875,0.3306875
1692522848475,-1.0710001,-0.27,16.116001,0.2497,-0.1527625,0.3661625
1692522848505,-2.39505,-0.99300003,15.715951,0.041525,-0.216975,0.4846875
1692522848534,-2.0689502,-1.8360001,16.185001,-0.113299996,-0.0631125,0.2074875
1692522848562,-2.2440002,-1.6510501,14.778001,-0.18205,0.087725,-0.0759
1692522848593,-1.7530501,-1.5840001,12.978001,-0.2556125,0.2165625,-0.3311
1692522848621,-0.39795002,-1.9290001,11.86005,-0.36107498,0.33467498,-0.60513747
1692522848650,-0.64500004,-1.6870501,12.714001,-0.3793625,0.32505,-0.60335
1692522848678,-1.11195,-1.5270001,12.74505,-0.396825,0.1555125,-0.38073748
1692522848709,-1.6860001,-1.1029501,11.56095,-0.395725,0.0526625,-0.271975
1692522848736,-0.08205,-1.2970501,9.057,-0.3422375,-0.0066,-0.2264625
1692522848766,-0.20505,-0.46605003,9.2029505,-0.291775,0.0287375,-0.2580875
1692522848795,-0.078,-0.51405,5.0020504,-0.198275,0.012375,-0.1610125
1692522848825,0.69000006,-1.43805,5.1979504,-0.153175,-0.054725,-0.0446875
1692522848856,-1.2790501,-1.21605,6.9649506,-0.114125,-0.1716,0.15015
1692522848885,-2.4499502,-0.27,7.4410505,-0.16775,-0.2154625,0.2578125
1692522848914,-0.16605,-1.0860001,5.91405,-0.2479125,-0.02915,0.0452375
1692522848943,1.9030501,-1.9789501,5.4810004,-0.205425,0.1978625,-0.2883375
1692522848971,0.46695003,-1.1700001,7.0339503,-0.1709125,0.3146,-0.457325
1692522849002,-1.7530501,0.10695001,6.1390505,-0.3246375,-0.1392875,0.22715
1692522849031,0.028950002,-0.51405,5.229,-0.386375,-0.4283125,0.6637125
1692522849061,1.389,-1.9890001,6.94605,-0.164175,-0.289025,0.5333625
1692522849089,-0.18300001,-1.90005,8.193001,-0.0361625,-0.1370875,0.33495
1692522849123,-2.5530002,-0.31305,6.6180005,-0.12595,-0.3620375,0.5457375
1692522849149,-1.6480501,-0.52605003,6.19605,-0.2112,-0.39214998,0.5457375
1692522849178,-0.216,-1.383,8.0130005,-0.073425,0.3218875,-0.3713875
1692522849208,0.43800002,-1.041,7.9819503,0.0556875,0.6494125,-0.792275
1692522849242,0.36405003,-0.41895002,8.63595,0.06985,0.428725,-0.5600375
1692522849271,-0.56100005,-0.23205002,9.243,0.0306625,0.0743875,-0.1483625
1692522849305,-1.26705,-0.31800002,9.76305,0.1505625,-0.3815625,0.3394875
1692522849329,-1.389,-0.76305,10.1650505,0.2726625,-0.350625,0.2776125
1692522849357,-0.94395006,-1.00995,10.191001,0.36905,-0.1837,0.0683375
1692522849388,-0.32700002,-0.85395,10.00905,0.3840375,0.183425,-0.3485625
1692522849417,-0.17805001,-0.48600003,9.468,0.23567499,0.208725,-0.3227125
1692522849447,-0.279,-0.85695004,9.8560505,0.172975,0.1079375,-0.184525
1692522849474,-0.29295,-1.11,10.57695,0.139975,-0.0067375,-0.0270875
1692522849503,-0.07305,-1.2919501,10.536,0.0977625,-0.1607375,0.2833875
1692522849530,-0.39600003,-0.75105006,10.234051,0.0528,-0.194425,0.3905
1692522849560,-0.528,-0.20595,9.540001,-0.0449625,-0.21395,0.4167625
1692522849591,-0.549,0.0019500001,9.43995,-0.0499125,-0.1978625,0.379225
1692522849617,-0.46095002,-0.069000006,9.327001,0.0699875,-0.1076625,0.29947498
1692522849646,-0.43695003,-0.094950005,8.81505,0.1516625,-0.0611875,0.27445
1692522849676,-0.46305,-0.165,8.772,0.2459875,-0.0138875,0.2597375
1692522849704,-0.50595003,-0.25305,8.920051,0.2541,-0.00495,0.2451625
1692522849734,-0.56100005,-0.31095,9.32505,0.245025,0.0031625,0.2050125
1692522849762,-0.72900003,0.00405,8.6980505,0.1973125,0.022,0.077
1692522849790,-0.94200003,0.15195,8.458051,0.1681625,0.0323125,0.0279125
1692522849823,-0.762,-0.072000004,8.607,0.1502875,0.0765875,-0.0482625
1692522849850,-0.68805003,-0.26295,8.335951,0.164175,0.1131625,-0.091299996
1692522849886,-0.68595004,-0.25605002,7.6039505,0.16665,0.1596375,-0.113575
1692522849911,-0.61905,-0.294,7.2300005,0.1368125,0.1524875,-0.0710875
1692522849939,-0.41805002,-0.27495003,6.8310003,0.056649998,0.120175,-0.0075625
1692522849966,-0.40995002,-0.14595,6.4740005,0.0265375,0.1056,-0.01595
1692522849997,-1.02795,0.17895001,5.6290503,-0.0067375,0.05995,-0.0724625
1692522850025,-1.1839501,0.061950002,4.70295,0.003025,0.0485375,-0.1241625
1692522850056,-1.1020501,-0.58095,4.01595,0.0858,0.15345,-0.2578125
1692522850085,-0.41505003,-1.2199501,5.1460505,0.115775,0.2578125,-0.315975
1692522850113,0.087000005,-1.51005,5.8950005,0.0933625,0.352,-0.379225
1692522850142,-0.44895002,-1.0339501,6.0000005,-0.1970375,0.3155625,-0.3570875
1692522850177,-0.99705005,-0.24105,5.196,-0.570625,-0.0088,0.0331375
1692522850203,-0.61395,-0.43995002,6.6439505,-0.5995,-0.0790625,0.116875
1692522850229,-1.03005,-0.49305,8.841001,-0.50435,-0.0474375,0.0669625
1692522850258,-1.9420501,-0.56505,10.378051,-0.180125,0.0614625,-0.10175
1692522850286,-1.2910501,-0.96900004,10.663051,-0.047025,0.0902,-0.1615625
1692522850317,-0.753,-1.24905,11.979001,0.0474375,0.1375,-0.2330625
1692522850346,-0.52995,-1.8930001,13.971001,0.077,0.1676125,-0.2250875
1692522850375,-0.76005006,-1.8240001,14.43105,-0.0889625,-0.09515,0.2074875
1692522850404,-0.95100003,-1.6200001,14.410951,-0.1835625,-0.237325,0.43821248
1692522850440,-1.2360001,-0.87105006,13.9800005,-0.2684,-0.346225,0.6474875
1692522850456,-1.2390001,-0.76095,13.924951,-0.2321,-0.3058,0.615725
1692522850490,-1.74405,-0.24105,13.85805,-0.1518,-0.2267375,0.524975
1692522850519,-1.46595,-0.24105,14.47605,0.0523875,-0.0682,0.33825
1692522850549,-1.1520001,-0.186,14.340001,0.1478125,-0.014025,0.279125
1692522850579,-1.107,0.42795002,14.095051,0.2806375,0.0275,0.2275625
1692522850608,-0.98700005,0.14805001,15.382951,0.3102,0.0094875,0.23705
1692522850636,-0.42495003,-0.82995003,17.30505,0.346775,-0.044825,0.24419999
1692522850663,-2.1790502,0.094950005,17.865002,0.3370125,-0.076725,0.2706
1692522850694,-2.32995,0.36795002,16.039051,0.2303125,-0.1203125,0.3070375
1692522850723,-2.124,0.025950002,14.884951,0.2303125,-0.1203125,0.3070375
1692522850752,-1.38705,-1.9860001,16.068,0.2107875,0.024475,-0.10945
1692522850784,-1.4440501,-2.43405,16.021952,0.18287499,0.1695375,-0.4503125
1692522850810,-2.2800002,-1.6609501,14.60805,0.066275,0.1628,-0.3950375
1692522850839,-2.3419502,-1.3110001,13.114051,-0.254375,0.0779625,-0.0944625
1692522850868,-2.0719502,-1.3110001,12.88395,-0.3359125,0.0787875,-0.04675
1692522850896,-1.3300501,-1.6300501,12.74505,-0.3383875,0.1232,-0.1054625
1692522850925,-1.8079501,-1.55595,12.307051,-0.2479125,0.2096875,-0.29205
1692522850954,-1.6810501,-1.4290501,11.668051,-0.199375,0.16499999,-0.3870625
1692522850984,-0.22605,-1.8690001,9.966001,-0.1857625,0.1364,-0.438075
1692522851011,0.109950006,-1.8760501,9.48495,-0.17325,0.1230625,-0.4796
1692522851043,-0.35805002,-1.7659501,8.72595,-0.20295,0.0176,-0.3579125
1692522851071,-0.07005,-1.9789501,7.7569504,-0.25135,-0.095975,-0.2110625
1692522851101,0.09105001,-1.67295,6.2130003,-0.327525,-0.2545125,-0.0506
1692522851130,-0.102000006,-1.00695,4.4110503,-0.35021248,-0.278575,-0.0339625
1692522851158,-1.557,0.141,4.7980504,-0.374,-0.276925,-0.1192125
1692522851187,-1.6840501,0.53805,4.71705,-0.3304125,-0.209825,-0.2998875
1692522851216,-0.77205,0.54,3.7500002,-0.0166375,0.1659625,-0.837375
1692522851246,1.0680001,-0.00405,4.13805,0.21807499,0.385,-1.018325
1692522851275,0.86205006,-0.483,6.7920003,0.5267625,0.39627498,-0.773575
1692522851304,-0.31005,-0.53805,6.1800003,0.511775,0.1087625,-0.351725
1692522851338,-0.03195,-1.197,7.0080004,0.3047,-0.50325,0.39421248
1692522851366,-1.1050501,-1.1200501,7.34805,0.201025,-0.5680125,0.467225
1692522851394,-2.529,-0.47100002,6.8689504,0.0961125,-0.500225,0.394075
1692522851424,-1.2859501,-0.88305,7.9819503,-0.0653125,-0.125675,-0.0111375
1692522851453,1.09905,-1.6009501,9.625951,0.036025,0.61242497,-0.8085
1692522851487,1.28295,-1.11,9.95205,0.076175,0.7379625,-0.9387125
1692522851514,-0.633,-0.29895002,8.70705,0.01375,0.4984375,-0.664125
1692522851541,-1.0519501,-0.80895007,8.84595,-0.15413749,-0.35433748,0.335775
1692522851567,-0.92505,-1.16805,9.732,-0.1076625,-0.4973375,0.5126
1692522851596,-0.453,-1.3740001,10.597951,-0.0169125,-0.4076875,0.41965
1692522851627,-0.39795002,-0.45000002,9.12405,0.026675,-0.078375,0.04895
1692522851654,-0.075,-0.30405003,9.18795,-0.025024999,-0.0259875,-0.0526625
1692522851681,-0.10395,-0.66495,9.705001,0.0231,-0.058575,-0.002475
1692522851711,-0.22395001,-1.098,10.234051,0.100099996,-0.104775,0.1034
1692522851740,-0.42495003,-1.1869501,10.07205,0.159775,-0.1909875,0.327525
1692522851774,-0.54705,-0.85395,9.98595,0.1148125,-0.20185,0.366575
1692522851802,-0.58005005,-0.45900002,9.94005,-0.0077,-0.14739999,0.285175
1692522851829,-0.69795,-0.141,9.66195,-0.0301125,-0.098725,0.2035
1692522851857,-0.89595,-0.06705,9.559051,0.043725,-0.0086624995,0.11495
1692522851886,-0.82005006,-0.261,9.67695,0.1161875,0.028875,0.1109625
1692522851915,-0.64695,-0.462,9.567,0.227975,0.0974875,0.082775
1692522851943,-0.58500004,-0.56505,9.62895,0.2387,0.1192125,0.0534875
1692522851974,-0.64305,-0.47100002,9.373051,0.17655,0.1111,0.02805
1692522852003,-0.66405004,-0.41400003,9.543,0.1324125,0.089375,0.0554125
1692522852032,-0.822,-0.38295,9.591001,0.0969375,0.0677875,0.0906125
1692522852065,-0.67095006,-0.555,9.40095,0.0595375,0.0518375,0.0774125
1692522852094,-0.64995,-0.53595,9.576,0.05115,0.0581625,0.0385
1692522852123,-0.61395,-0.51900005,8.916,0.0328625,0.0628375,0.0056375
1692522852151,-0.55905,-0.462,8.401051,0.0185625,0.050875,0.0180125
1692522852178,-0.68295,-0.28005,8.16195,0.0017875,0.033,0.04455
1692522852210,-0.82395005,-0.31095,8.00805,-0.0193875,0.005775,0.108625
1692522852239,-0.74805003,-0.58095,8.21205,0.0077,0.0275,0.11
1692522852267,-0.43005002,-0.66300005,8.21205,0.0253,0.0543125,0.07205
1692522852294,-0.36705002,-0.51000005,7.63005,0.0056375,0.0803,-0.0169125
1692522852323,-0.45795003,-0.22695,6.81195,-0.0246125,0.058025,-0.031625
1692522852354,-0.33105,-0.201,5.3749504,-0.047025,-0.011275,-0.0301125
1692522852382,-0.58695,-0.16005,4.8130503,-0.0270875,-0.026124999,-0.0363
1692522852411,-0.61905,-0.12195001,4.1329503,0.0022,-0.0259875,-0.051425
1692522852441,-0.16395001,-0.30405003,4.0729504,0.0485375,0.0199375,-0.1527625
1692522852470,0.052950002,-0.39495003,5.124,0.059675,0.0628375,-0.2349875
1692522852501,-0.38205,-0.19605,5.21505,0.028875,0.0495,-0.25753748
1692522852528,-0.48195,0.066,5.208,-0.0067375,-0.0215875,-0.1871375
1692522852557,-0.15405001,0.12900001,5.18895,0.0026125,-0.0785125,-0.1637625
1692522852582,-0.31905,0.21195,5.7850504,0.0026125,-0.0785125,-0.1637625
1692522852608,-0.79095006,-0.411,9.424951,0.1467125,-0.016775,-0.2591875
1692522852640,-1.57395,-0.77805007,10.77105,0.2248125,0.0078375,-0.230725
1692522852671,-1.6189501,-1.59105,11.92395,0.1819125,0.0369875,-0.2085875
1692522852701,-0.45105,-2.295,13.909051,-0.022,0.1700875,-0.2869625
1692522852730,-0.753,-1.6969501,14.016001,-0.1601875,0.22687499,-0.3312375
1692522852759,-1.84905,-0.77805007,14.074051,-0.458975,0.089237496,-0.044275
1692522852787,-1.3099501,-0.744,13.915951,-0.50325,-0.02475,0.1659625
1692522852819,-1.2220501,-0.50505,13.951951,-0.2748625,-0.0072875,0.1865875
1692522852847,-1.23105,-0.76095,15.711,-0.122375,0.0433125,0.1170125
1692522852875,-1.0330501,-0.483,15.900001,0.0677875,0.0248875,0.1606
1692522852903,-1.5190501,0.162,15.558001,0.115225,-0.01045,0.238425
1692522852933,-1.7580001,0.049950004,17.739,0.1925,-0.0471625,0.268125
1692522852961,-1.34595,-0.124050006,17.916,0.2470875,-0.0358875,0.1846625
1692522852993,-1.6380001,-0.60795003,17.868,0.306625,-0.01265,0.09515
1692522853023,-1.401,-0.90195006,17.539951,0.28105,-0.0176,0.14135
1692522853053,-1.50405,-0.81405,16.834051,0.2261875,-0.0215875,0.1984125
1692522853080,-1.8010501,-1.07895,16.726051,0.0851125,-0.0015125,0.2171125
1692522853111,-1.5810001,-1.43805,16.792952,0.0312125,0.0237875,0.15675
1692522853140,-1.83,-1.43805,14.743951,-0.0422125,0.0768625,-0.023924999
1692522853168,-0.38595003,-2.0340002,13.569,-0.0862125,0.0856625,-0.0873125
1692522853196,0.19695,-2.32605,12.34605,-0.1882375,0.06215,-0.1150875
1692522853226,-0.39405003,-2.32905,12.279,-0.2536875,0.0048125,-0.0441375
1692522853255,-1.00395,-2.16405,12.316951,-0.329175,-0.0842875,0.06875
1692522853284,-0.43005002,-1.8930001,11.09895,-0.439725,-0.2193125,0.2300375
1692522853311,-0.22800002,-1.8070501,10.033051,-0.449625,-0.2171125,0.2316875
1692522853340,-0.95100003,-1.47195,9.141001,-0.3953125,-0.15015,0.1188
1692522853367,-2.11695,-1.00695,8.17095,-0.3553,-0.126225,0.0347875
1692522853399,-1.6480501,-1.16805,6.1129503,-0.257125,-0.0121,-0.212575
1692522853427,-0.32895002,-1.71105,4.1020503,-0.1848,0.1332375,-0.4208875
1692522853455,0.024,-1.644,5.655,-0.088,0.4345,-0.8834375
1692522853485,-0.65895003,-0.90405005,6.18405,-0.1254,0.4494875,-0.957825
1692522853514,-1.1400001,0.022950001,5.7970505,-0.2630375,0.20693749,-0.67045
1692522853543,-0.25995,0.022950001,4.40805,-0.2239875,0.1164625,-0.5231875
1692522853572,1.34595,-0.47595003,4.1470504,-0.0867625,0.1029875,-0.4488
