@ HyperIMU - ianovir
@ Date:Sun Aug 20 12:27:08 GMT+03:00 2023, Sampling Rate:25ms

timestamp,bma4xy_accelerometer.x,bma4xy_accelerometer.y,bma4xy_accelerometer.z,oem_pseudo_gyro.x,oem_pseudo_gyro.y,oem_pseudo_gyro.z
1692523629124,-0.0010500001,-0.24105,9.76095,0.00935,-0.0886875,2.0464125
1692523629168,0.036000002,-0.33705002,10.066951,-0.0094875,-0.091575,1.206425
1692523629190,-0.025050001,-0.49500003,9.99495,-0.0242,-0.0875875,0.932525
1692523629217,0.192,-0.58395004,9.969001,-0.0573375,-0.0680625,0.490325
1692523629247,-0.17595,-0.32505003,9.741,-0.0947375,-0.0528,0.2121625
1692523629276,-0.31005,-0.10005,9.61695,-0.1065625,-0.046475,0.1665125
1692523629301,-0.264,-0.0019500001,9.538051,-0.105875,-0.0331375,0.14685
1692523629330,-0.22395001,0.057000004,9.595051,-0.0485375,0.0262625,-1.375E-4
1692523629363,-0.109050006,-0.060000002,9.859051,8.25E-4,0.0565125,-0.104499996
1692523629390,-0.030000001,-0.08595,9.94995,0.078375,0.070125,-0.134475
1692523629417,0.04095,-0.094950005,9.825001,0.0933625,0.055825,-0.0785125
1692523629446,-0.027,-0.064050004,9.8539505,0.095699996,0.0347875,-0.0191125
1692523629472,-0.051000003,-0.093,9.933001,0.0796125,-0.0108624995,0.106975
1692523629503,-0.066,-0.08295,9.81105,0.0686125,-0.0268125,0.144375
1692523629532,-0.102000006,-0.055050004,9.61905,0.049775,-0.0317625,0.1243
1692523629563,-0.051000003,-0.19095,10.12905,0.039875,-0.0202125,0.1771
1692523629587,-0.09,-0.17400001,10.12395,0.0372625,-0.01265,0.2167
1692523629612,-0.10605001,0.0139500005,10.27005,0.0301125,-0.004125,0.2303125
1692523629639,-0.042000003,-0.021000002,10.09605,0.01925,0.004675,0.2132625
1692523629676,-0.13305001,-0.0019500001,9.379951,0.0144375,0.0166375,0.078375
1692523629710,-0.022950001,-0.033,9.4470005,0.02475,0.003025,-0.081125
1692523629737,-0.022950001,-0.033,9.4470005,0.02475,0.003025,-0.081125
1692523629774,-0.022950001,-0.033,9.4470005,0.02475,0.003025,-0.081125
1692523629793,-0.022950001,-0.033,9.4470005,0.02475,0.003025,-0.081125
1692523629823,-0.022950001,-0.033,9.4470005,0.02475,0.003025,-0.081125
1692523629847,-0.44595003,-0.076050006,9.99705,0.0187,0.0143,-0.1335125
1692523629881,-0.44595003,-0.076050006,9.99705,0.0187,0.0143,-0.1335125
1692523629931,-0.44595003,-0.076050006,9.99705,0.0187,0.0143,-0.1335125
1692523629960,-0.43395,0.15,9.700951,0.0166375,0.067375,-0.1945625
1692523629992,-0.28395,0.045,9.765,0.055275,0.100099996,-0.18535
1692523630037,-0.25995,0.018000001,9.81105,0.058849998,0.09515,-0.11715
1692523630079,-0.18795002,-0.069000006,9.733951,0.0394625,0.050049998,-0.1175625
1692523630120,-0.28395,0.016050002,9.8230505,0.0138875,0.0163625,-0.08085
1692523630177,-0.22095,-0.097950004,9.978001,-0.006325,-0.0039875,0.1027125
1692523630215,-0.16605,0.0139500005,9.672001,-0.01595,-0.008525,0.0213125
1692523630249,-0.18105,0.033,9.76095,-0.01595,-0.0122375,-0.093225
1692523630284,-0.17295001,-0.01905,9.741,-0.011825,-0.013612499,-0.11495
1692523630321,-0.24795002,0.021000002,9.8230505,-0.0059125,-0.0182875,0.0070125
1692523630353,-0.135,-0.11505,9.97095,-0.003575,-0.01485,0.136125
1692523630385,-0.16395001,-0.079050004,9.93,-0.001925,-0.0088,0.135025
1692523630417,-0.20700002,0.010950001,9.801001,-0.0078375,-0.009075,0.1126125
1692523630436,-0.24000001,0.0139500005,9.82995,-0.013612499,-0.0144375,0.1276
1692523630468,-0.22095,0.028050002,9.84405,-0.015125,-0.0171875,0.14905
1692523630495,-0.32205,0.066,9.765,-0.004125,-0.013475,0.159225
1692523630522,-0.25500003,0.033,9.957001,0.003025,-0.00825,0.147125
1692523630549,-0.26700002,0.034950003,9.889951,0.0144375,0.010725,0.1274625
1692523630576,-0.264,0.057000004,9.741,0.0185625,0.0199375,0.1183875
1692523630605,-0.24300002,0.049950004,9.81105,0.02475,0.0276375,0.0911625
1692523630633,-0.19695,-0.0019500001,9.739051,0.0264,0.0270875,0.081125
1692523630660,-0.32700002,0.061950002,9.7560005,0.0226875,0.022275,0.066
1692523630689,-0.27600002,0.081,9.670051,0.014712499,0.01705,-0.0460625
1692523630714,-0.21195,-0.048,9.97095,0.0138875,0.019524999,-0.0966625
1692523630742,-0.23595001,0.0,9.871051,0.0144375,0.0232375,-0.0988625
1692523630772,-0.231,0.102000006,9.721951,0.01045,0.0193875,-0.039875
1692523630799,-0.29505002,0.13305001,9.576,0.0072875,0.013612499,-0.0279125
1692523630833,-0.22095,0.061950002,9.92805,0.0061875,0.0033,0.0587125
1692523630859,-0.22605,-0.021000002,10.05,0.009075,0.001375,0.147675
1692523630885,-0.27195,0.010950001,9.910951,0.011,4.125E-4,0.2107875
1692523630911,-0.231,0.0,9.883051,0.005775,-0.00275,0.1769625
1692523630940,-0.22395001,0.052050002,9.682051,0.00275,-0.0028875,0.1291125
1692523630968,-0.31500003,0.15,9.65505,-0.0031625,-2.75E-4,0.1101375
1692523630995,-0.19695,0.03795,9.81105,-0.00275,-0.0012375,0.142725
1692523631024,-0.22800002,0.054,9.868051,0.0044,-0.0061875,0.1431375
1692523631052,-0.20895001,0.04695,9.865951,0.008525,-0.0088,0.09405
1692523631079,-0.12105001,0.045,9.79905,0.011,-0.012375,0.0493625
1692523631107,-0.20895001,0.058950003,9.708,0.0099,-0.0213125,0.0413875
1692523631136,-0.20895001,0.057000004,9.7890005,0.0077,-0.02475,0.0666875
1692523631163,-0.17295001,0.042000003,9.861,0.0066,-0.0253,0.09405
1692523631193,-0.21405001,-0.00405,9.780001,0.00605,-0.0176,0.1128875
1692523631220,-0.28095,0.07095,9.691051,0.0042625,-0.013062499,0.092125
1692523631246,-0.33105,0.15195,9.63105,0.003025,-0.0092124995,0.0644875
1692523631275,-0.32205,0.078,9.76095,2.75E-4,4.125E-4,-0.0254375
1692523631304,-0.35295,0.03795,9.880051,0.0160875,0.0270875,-0.164725
1692523631331,-0.42000002,0.112050004,9.80595,0.0191125,0.039875,-0.1890625
1692523631359,-0.52305,0.102000006,9.877951,0.0160875,0.0490875,-0.1566125
1692523631388,-0.49395,0.10695001,9.889951,0.009625,0.0638,-0.0545875
1692523631415,-0.432,-0.024,9.82005,0.01155,0.07425,-0.06545
1692523631445,-0.44400004,0.022950001,9.772051,0.014712499,0.08415,-0.12265
1692523631471,-0.40995002,0.10695001,9.540001,0.0122375,0.08525,-0.20693749
1692523631499,-0.15705001,0.042000003,9.78195,0.006325,0.0768625,-0.1595
1692523631527,-0.15195,0.07395,9.708,0.001375,0.0658625,-0.0672375
1692523631554,-0.21405001,0.24105,9.528001,-0.0017875,0.024475,0.092125
1692523631582,-0.3,0.27,9.559051,0.0,-0.00605,0.1216875
1692523631610,-0.38595003,0.24105,9.555,0.0078375,-0.032175,0.098725
1692523631638,-0.45795003,0.20505,10.053,0.042075,-0.044825,-0.0644875
1692523631666,-0.48900002,0.15,10.14105,0.0658625,-0.0122375,-0.1214125
1692523631694,-0.47295,0.19800001,10.198951,0.0653125,0.0099,-0.077825
1692523631722,-0.3,0.10695001,10.177051,0.0578875,0.0284625,-0.0155375
1692523631751,-0.13695,0.04695,9.990001,0.033825,0.03795,0.0578875
1692523631778,0.00795,0.049950004,9.69795,0.0193875,0.0243375,0.05555
1692523631806,0.058050003,0.025950002,9.63105,0.0048125,-2.75E-4,0.0452375
1692523631833,-0.14205001,0.08805001,9.423,-0.0188375,-0.0702625,0.082499996
1692523631860,-0.15405001,0.15,9.379951,-0.029424999,-0.1035375,0.1485
1692523631889,0.16095,-0.072000004,8.748,-0.0380875,-0.124025,0.224125
1692523631918,0.015000001,0.045,8.53995,-0.0383625,-0.117975,0.28325
1692523631945,-0.049050003,-0.060000002,8.39595,-0.0320375,-0.1056,0.2563
1692523631973,-0.52305,-0.031050002,8.632951,-0.0251625,-0.089237496,0.1918125
1692523632003,-0.19005,-0.09105001,7.76205,-0.033825,-0.044,0.08745
1692523632030,-0.58005005,0.022950001,7.2109504,-0.0422125,0.002475,-0.013062499
1692523632056,-0.50595003,-0.021000002,6.9259505,-0.0485375,0.0507375,-0.099825
1692523632084,-0.24000001,-0.13605,6.0430503,-0.0452375,0.1106875,-0.1310375
1692523632109,-0.27600002,-0.00405,5.2840505,-0.0405625,0.12375,-0.1137125
1692523632139,-0.32895002,-0.21795002,5.2099504,-0.0385,0.12595,-0.089375
1692523632167,0.13395001,-0.84000003,6.1750503,-0.039049998,0.1188,-0.054449998
1692523632195,0.097950004,-0.95505005,6.01905,-0.0774125,0.085525,0.0430375
1692523632222,-0.75000006,-0.45195,6.0930004,-0.153175,0.0418,0.116875
1692523632251,-0.03705,-0.39495003,5.94495,-0.352825,-0.045925,0.1557875
1692523632279,0.01695,-0.71805006,6.10995,-0.3843125,-0.0295625,0.0446875
1692523632307,-0.13005,-1.47405,8.71905,-0.307725,0.0154,-0.14355
1692523632335,-0.17295001,-2.013,11.745001,-0.292325,-0.009075,-0.125125
1692523632363,-0.41505003,-1.7710501,10.5720005,-0.4324375,-0.065175,0.0116875
1692523632390,-0.56805,-1.59105,10.10505,-0.518925,-0.0719125,0.0774125
1692523632418,-0.015000001,-2.25705,11.356951,-0.5575625,-0.0611875,0.09295
1692523632446,0.23295002,-3.2770503,12.90795,-0.5154875,-0.0097624995,-4.125E-4
1692523632477,0.087000005,-3.0300002,12.949051,-0.5064125,-0.022824999,0.0323125
1692523632502,-0.76005006,-1.9740001,12.24495,-0.537625,-0.0774125,0.158125
1692523632532,-0.36,-1.6660501,11.77095,-0.5654,-0.15619999,0.3674
1692523632558,-0.22605,-1.4770501,11.400001,-0.47341248,-0.109037496,0.3144625
1692523632586,0.075,-1.48905,10.818001,-0.1816375,0.0207625,0.1417625
1692523632618,-0.19995001,-1.2420001,11.43795,-0.065175,0.0259875,0.147675
1692523632643,-0.453,-1.28295,12.56295,0.0176,5.5E-4,0.1923625
1692523632676,-0.10395,-1.89795,14.425951,0.1230625,-0.042625,0.2432375
1692523632700,-0.11805001,-1.45305,12.778951,0.160875,-0.044825,0.2387
1692523632727,-0.75495005,-1.077,13.00905,0.1929125,-0.0482625,0.240625
1692523632755,-0.9990001,-0.47805002,13.15005,0.1890625,-0.0532125,0.2464
1692523632785,-0.73395,-0.12900001,12.74505,0.1934625,-0.0314875,0.20625
1692523632812,-0.079950005,-0.009000001,12.528001,0.27885,0.1104125,-0.08635
1692523632841,-0.147,0.26295,12.396001,0.3499375,0.1637625,-0.2446125
1692523632868,-1.1520001,0.43500003,12.793051,0.4657125,0.124437496,-0.3353625
1692523632895,-1.131,-0.06705,14.182051,0.4981625,0.0848375,-0.316525
1692523632921,-0.45105,-0.90900004,14.65305,0.5163125,0.08085,-0.3125375
1692523632951,-0.93495005,-1.0669501,13.85595,0.4582875,0.1337875,-0.2440625
1692523632979,-1.0519501,-1.6150501,13.84605,0.3537875,0.1359875,-0.13585
1692523633007,-0.63795,-2.70705,16.113,0.09185,0.11605,-0.0125124995
1692523633034,-0.45600003,-2.4750001,16.20195,-0.0319,0.112475,-0.034375
1692523633065,-0.76500005,-1.9600501,13.84395,-0.159225,0.095699996,-0.0510125
1692523633095,-0.76695,-1.8379501,12.966001,-0.348975,0.013062499,0.0155375
1692523633123,0.23505001,-2.6179502,14.392051,-0.367125,-0.01155,0.028875
1692523633150,0.55305004,-2.8189502,14.445001,-0.325325,-0.00275,-0.0924
1692523633178,0.43605003,-1.9480501,12.115951,-0.3210625,-0.0378125,-0.0848375
1692523633206,0.48900002,-1.6350001,10.79205,-0.33605,-0.12375,0.0452375
1692523633234,0.771,-1.5840001,9.568951,-0.3375625,-0.30635,0.397375
1692523633260,0.72795004,-1.7160001,10.258051,-0.2965875,-0.349525,0.47547498
1692523633289,-0.14895001,-1.1730001,8.64,-0.2028125,-0.3837625,0.4483875
1692523633318,-1.6810501,0.28905,4.1670003,-0.1742125,-0.38279998,0.4114
1692523633345,-1.2550501,0.10005,1.026,-0.1419,-0.3323375,0.3312375
1692523633375,-0.00795,-1.23195,3.6400502,-0.0078375,0.0242,-0.19813749
1692523633404,0.47700003,-2.0320501,7.4119506,0.06985,0.2520375,-0.5528875
1692523633432,0.21105,-1.917,8.06805,0.019524999,0.3653375,-0.7634
1692523633460,0.37095,-1.4790001,5.1930003,-0.1280125,0.2149125,-0.565675
1692523633491,1.02495,-1.43295,4.67205,-0.273625,0.027224999,-0.318725
1692523633512,1.6849501,-1.7950501,5.8999505,-0.3793625,-0.20625,-0.0793375
1692523633546,1.6020001,-1.6369501,7.1989503,-0.3856875,-0.3166625,0.0166375
1692523633573,1.28295,-1.18005,7.2400503,-0.390775,-0.7363125,0.550825
1692523633599,0.702,-0.44295,7.1659503,-0.3392125,-0.92455,0.8102875
1692523633630,-0.015000001,-0.177,7.0920005,-0.0820875,-0.8991125,0.7558375
1692523633661,-0.93900007,-0.75600004,7.8619504,0.0969375,-0.69685,0.4739625
1692523633688,-0.43395,-1.79295,11.034,0.271975,-0.4112625,0.1034
1692523633715,0.38805002,-1.4790001,11.151001,0.4222625,0.2146375,-0.55825
1692523633745,0.393,-0.09105001,7.6110005,0.250525,0.507925,-0.6314
1692523633771,0.27795002,0.45600003,6.7060504,0.1907125,0.4486625,-0.4266625
1692523633802,0.11805001,0.081,8.47995,0.2204125,0.3199625,-0.1716
1692523633829,-0.564,0.117000006,9.3820505,0.4549875,0.1216875,0.1485
1692523633859,-0.717,0.045,9.526051,0.55275,0.09845,0.1656875
1692523633886,0.34005,-0.29895002,9.636001,0.592075,0.21807499,-0.1194875
1692523633913,0.32295,-0.25095,9.528001,0.559075,0.309925,-0.3397625
1692523633940,0.097950004,-0.20595,9.67395,0.500775,0.336325,-0.44701248
1692523633971,-0.47700003,-0.22005,9.66495,0.424875,0.2776125,-0.3947625
1692523634000,-0.43695003,-0.63900006,10.359,0.2853125,0.11715,-0.17215
1692523634025,0.04605,-0.82995003,11.09595,0.2360875,0.112475,-0.1513875
1692523634051,0.04095,-0.39900002,10.43595,0.1304875,0.182325,-0.1791625
1692523634083,0.0049500004,0.061950002,9.057,0.069025,0.1749,-0.1263625
1692523634108,-0.20505,-0.024,9.32505,0.0171875,0.066825,0.115225
1692523634138,0.051000003,-0.65295005,9.993,0.04675,0.0235125,0.1991
1692523634166,0.04605,-0.48105,9.78705,0.0999625,0.001375,0.113575
1692523634191,-0.23805001,-0.15795001,9.318001,0.077,-0.001925,0.01595
1692523634220,-0.47505003,0.010950001,9.45705,0.0367125,-0.0089375,-0.0446875
1692523634249,-0.18105,0.058950003,9.672001,0.02255,0.0174625,-0.0996875
1692523634277,-0.38895002,0.15495001,9.568951,0.056925,0.0587125,-0.154275
1692523634307,-0.753,0.061950002,8.973001,0.0972125,0.09405,-0.2215125
1692523634332,-0.28395,-0.43800002,10.528951,0.1496,0.12815,-0.3075875
1692523634365,0.10605001,-0.59595,10.63395,0.1516625,0.1461625,-0.318725
1692523634392,-0.46800002,0.13095,9.069,0.06435,0.115775,-0.2528625
1692523634420,-0.57600003,0.028050002,9.066,2.75E-4,0.0559625,-0.186175
1692523634445,-0.67395,-0.177,9.772051,-0.0284625,0.0144375,-0.1530375
1692523634477,-0.30705002,-0.13095,9.98805,0.022,0.0620125,-0.24805
1692523634503,-0.171,0.066,9.250951,0.042625,0.104637496,-0.2960375
1692523634530,0.0,0.31305,7.905,0.0446875,0.114125,-0.2585
1692523634560,0.072000004,0.37305,7.767,0.0570625,0.0776875,-0.192775
1692523634588,-0.14205001,0.33405003,7.36005,0.1186625,-0.0243375,-0.0471625
1692523634620,-0.27600002,0.30795002,7.4029503,0.150425,-0.0653125,0.0122375
1692523634645,-0.45600003,0.82995003,6.4410005,0.1742125,-0.086625,0.0526625
1692523634671,-0.87000006,1.07595,5.6989503,0.2055625,-0.05335,0.0482625
1692523634700,-0.70995003,0.51900005,4.54995,0.24007499,-0.0017875,0.0034375
1692523634727,-0.33105,0.21705002,3.96795,0.3001625,0.07095,-0.0669625
1692523634756,0.18495001,-0.30105,4.35795,0.390225,0.21779999,-0.2365
1692523634782,0.31395,-0.59295005,5.72205,0.3513125,0.2343,-0.269775
1692523634810,0.055050004,-0.71295005,7.2499504,0.07535,0.0834625,-0.0947375
1692523634839,-0.34800002,-0.56895,7.293,-0.1197625,-0.0435875,0.09075
1692523634867,-0.79305005,-0.507,8.3869505,-0.300575,-0.14533749,0.2908125
1692523634896,-0.24300002,-0.93105006,10.057051,-0.4819375,-0.1483625,0.5589375
1692523634919,0.96000004,-1.422,10.687051,-0.4835875,-0.0708125,0.565125
1692523634948,0.38805002,-0.83505005,11.42205,-0.4675,-0.0056375,0.518375
1692523634974,-0.44400004,-0.109950006,10.255951,-0.476575,-0.096525,0.642125
1692523635003,-0.81000006,0.23400001,11.23305,-0.4571875,-0.2154625,0.8113875
1692523635031,-0.56100005,0.126,12.463051,-0.2314125,-0.20295,0.689425
1692523635058,-0.45600003,0.42105,11.14605,-0.0639375,-0.07865,0.40205
1692523635086,-0.264,0.35595003,11.02005,0.0842875,0.032175,0.143275
1692523635114,-0.006,0.12105001,11.773951,0.24915,0.1051875,-0.027224999
1692523635142,-0.58500004,-0.097950004,14.217001,0.2739,0.0848375,0.033
1692523635168,-0.915,0.85605,13.5400505,0.242825,0.003575,0.2985125
1692523635197,-1.0519501,0.84405005,12.637951,0.215325,-0.0070125,0.3839
1692523635225,-0.10605001,-0.246,15.89805,0.2091375,0.0235125,0.3573625
1692523635252,0.055050004,-0.18195,16.221,0.2303125,0.10615,0.1447875
1692523635280,-0.80505,0.528,14.227051,0.1898875,0.0897875,0.1315875
1692523635309,-0.666,0.66,15.388051,0.0430375,-0.0037125,0.2987875
1692523635337,-0.34095,0.23595001,16.506,0.0264,-0.0011,0.32065
1692523635364,-0.98205006,0.21000001,16.716002,0.0518375,0.033825,0.2528625
1692523635393,-1.45905,0.38205,14.83695,0.081675,0.0510125,0.0848375
1692523635421,-1.26705,0.27195,13.452001,0.064899996,0.0452375,0.0103124995
1692523635448,-0.43905002,-1.1029501,14.517001,0.031625,0.1101375,-0.2220625
1692523635475,0.034050003,-2.058,15.702001,0.010725,0.1423125,-0.2938375
1692523635504,-0.33600003,-1.5150001,15.46695,-0.046475,0.1362625,-0.2894375
1692523635534,-1.3270501,-0.30405003,14.1,-0.29095,0.004125,-0.0411125
1692523635560,-1.3219501,0.069000006,12.583051,-0.3887125,-0.057475,0.1342
1692523635587,-0.88005006,-0.39195,12.990001,-0.329175,-0.0213125,0.2033625
1692523635617,-0.9990001,-0.77295005,12.276001,-0.2182125,0.0427625,0.0831875
1692523635642,-1.09695,-1.098,11.11995,-0.121825,0.0930875,-0.0548625
1692523635669,-1.8060001,-0.96405005,10.807051,-0.078099996,0.1302125,-0.2226125
1692523635697,-2.09295,-1.113,10.79205,-0.1073875,0.14739999,-0.269775
1692523635723,-1.593,-1.6849501,10.186951,-0.13695,0.1898875,-0.344025
1692523635759,-1.02795,-1.2420001,6.8260503,-0.16775,0.3430625,-0.6098125
1692523635778,-0.40305,-1.0189501,5.77995,-0.197175,0.3933875,-0.7052375
1692523635807,0.156,-1.2229501,6.735,-0.2880625,0.3482875,-0.6578
1692523635836,0.048,-1.1149501,6.5170503,-0.3174875,0.253825,-0.520575
1692523635864,0.16095,-0.77505004,5.136,-0.33467498,0.1142625,-0.3081375
1692523635892,0.63900006,-0.58905005,3.11805,-0.3460875,-0.177375,0.1689875
1692523635920,1.08,-0.15,2.7930002,-0.326975,-0.27005,0.3023625
1692523635948,0.9979501,-0.53805,4.9759502,-0.2578125,-0.4269375,0.36355
1692523635976,0.036000002,0.19995001,6.4960504,-0.2204125,-0.54821247,0.4222625
1692523636003,-0.36495003,0.61395,5.373,-0.067925,-0.7338375,0.4973375
1692523636031,0.84795004,-0.50505,6.1249504,0.07865,-0.6479,0.3051125
1692523636058,1.40295,-1.3470001,8.950951,0.2402125,-0.4709375,0.0166375
1692523636086,-0.09195001,-1.1890501,8.889001,0.34347498,-0.3432,-0.1703625
1692523636114,-2.6170502,-0.25605002,7.79295,0.1940125,-0.4489375,0.052525
1692523636142,-1.3920001,-0.73200005,9.47805,0.0463375,-0.4101625,0.0991375
1692523636169,0.441,-0.9670501,10.77795,-0.0328625,0.30745,-0.6392375
1692523636198,0.33495003,-0.08295,8.817,0.011825,0.62796247,-0.9711625
1692523636225,-0.83400005,0.84900004,7.55805,0.0462,0.66385,-0.91685
1692523636252,-0.33600003,0.033,9.330001,0.1390125,0.2580875,-0.2129875
1692523636279,0.24405001,-0.43995002,9.84405,0.2470875,0.1384625,-0.058025
1692523636307,-0.07005,-0.25605002,9.21195,0.3845875,0.0831875,-0.1291125
1692523636335,-0.27195,-0.19605,10.476001,0.344025,0.0268125,-0.103675
1692523636362,0.47400004,-0.63600004,11.19705,0.267025,-0.0419375,-0.013062499
1692523636389,0.60105,-0.75795,10.79895,0.143,-0.1071125,0.12925
1692523636416,0.381,-0.90705,10.351951,0.0895125,-0.138325,0.185075
1692523636443,0.23295002,-0.924,10.290001,0.0259875,-0.1915375,0.2756875
1692523636471,0.19695,-0.88095003,10.408951,-0.0979,-0.2715625,0.4901875
1692523636499,0.16800001,-0.53595,9.406051,-0.1381875,-0.2589125,0.5269
1692523636527,0.15405001,-0.39195,9.17895,-0.1588125,-0.2217875,0.4943125
1692523636554,0.29700002,-0.47595003,9.250951,-0.1307625,-0.137775,0.29535
1692523636582,0.333,-0.51000005,9.435,-0.090475,-0.108625,0.211475
1692523636609,0.13905,-0.29895002,9.753,-0.01705,-0.091299996,0.172975
1692523636636,0.16995001,-0.37995002,9.48495,0.0015125,-0.093637496,0.1593625
1692523636664,0.29205,-0.43800002,9.574051,0.0158125,-0.08855,0.1216875
1692523636690,0.19695,-0.423,9.84,0.053625,-0.0576125,0.08195
1692523636718,0.17295001,-0.37995002,9.75105,0.0647625,-0.048125,0.10835
1692523636746,0.043050002,-0.30105,9.59805,0.0658625,-0.043175,0.13213749
1692523636774,0.027,-0.27495003,9.53295,0.05775,-0.0215875,0.0664125
1692523636802,-0.06105,-0.23205002,9.724951,0.057475,-8.25E-4,-0.018975
1692523636829,-0.20505,-0.08295,9.46605,0.0688875,0.0427625,-0.13145
1692523636858,-0.25500003,0.16905001,9.141001,0.0771375,0.0625625,-0.14685
1692523636884,-0.049050003,0.045,9.082951,0.0897875,0.0845625,-0.1711875
1692523636911,-0.09,-0.09105001,9.078,0.1392875,0.1307625,-0.2470875
1692523636941,-0.30705002,-0.097950004,8.62395,0.1588125,0.1362625,-0.24805
1692523636970,-0.33600003,-0.01905,8.15205,0.142175,0.1181125,-0.1216875
1692523636995,-0.34305,-0.045,7.7569504,0.119625,0.120037496,-0.034375
1692523637023,-0.21900001,-0.162,7.149,0.1012,0.130625,0.0292875
1692523637050,-0.20505,-0.36795002,6.5290504,0.07535,0.1439625,0.0561
1692523637079,-0.010950001,-0.35205,6.4999504,0.0543125,0.1375,0.064075
1692523637106,-0.11100001,-0.28905,6.4020004,-0.013062499,0.09625,0.09405
1692523637133,-0.48900002,-0.13905,5.78205,-0.0430375,0.0699875,0.079475
1692523637183,-0.81195,-0.768,6.1600504,-0.060225,0.0529375,0.077275
1692523637198,-0.61095005,-1.077,5.81295,-0.0523875,0.091025,0.088
1692523637223,0.096,-1.062,5.7510004,-0.0565125,0.1607375,0.08085
1692523637249,0.13005,-1.041,6.45195,-0.20515,0.25575,0.0768625
1692523637275,-0.303,-0.555,6.81405,-0.3320625,0.2028125,0.1354375
1692523637301,-0.64500004,-0.56205004,7.7689505,-0.427625,0.092675,0.2248125
1692523637329,-0.07305,-0.768,8.56095,-0.38995,-0.033,0.22453749
1692523637358,0.14895001,-0.87600005,9.954,-0.2954875,-0.00605,0.1115125
1692523637385,0.18195,-1.314,11.704051,-0.21175,0.0044,0.0570625
1692523637412,0.23295002,-1.12695,12.027,-0.1346125,-0.13859999,0.34814999
1692523637441,0.27600002,-0.61200005,11.641951,-0.12375,-0.2275625,0.5710375
1692523637471,-1.251,0.09705,10.94295,-0.0988625,-0.3095125,0.7750875
1692523637496,-1.23405,0.066,11.965051,-0.0314875,-0.2748625,0.679525
1692523637524,-0.54195005,0.054,11.521951,0.082225,-0.1634875,0.42405
1692523637552,-0.40605003,0.12105001,12.295051,0.294525,0.12595,-0.1527625
1692523637580,-1.04505,0.066,14.50695,0.3372875,0.1843875,-0.2217875
1692523637607,-1.60695,0.507,13.794001,0.34759998,0.1813625,-0.1698125
1692523637640,-1.0540501,0.46605003,12.460951,0.3411375,0.1689875,-0.1769625
1692523637666,-1.11405,0.53295004,13.408051,0.3485625,0.202675,-0.31185
1692523637695,-0.76500005,0.52605003,12.937051,0.3707,0.26345,-0.5718625
1692523637723,-0.63795,0.66,13.372951,0.3634125,0.2503875,-0.586575
1692523637750,-1.296,0.51600003,15.571951,0.3212,0.156475,-0.426525
1692523637778,-1.26705,0.0,16.285952,0.3003,0.10395,-0.3361875
1692523637806,-0.24495001,-0.28005,16.800001,0.2728,0.0694375,-0.285725
1692523638840,0.18195,-0.81600004,10.44705,0.2112,0.1672,-0.3003
1692523638870,-0.18795002,-0.80895007,10.299001,0.01595,0.1013375,-0.0614625
1692523638900,-0.22800002,-0.64605004,10.186951,-0.0616,0.04455,0.092125
1692523638929,-0.29295,-0.49800003,10.087951,-0.1472625,0.0268125,0.15125
1692523638956,-0.40305,-0.261,9.84,-0.1496,0.054175,0.059675
1692523638983,-0.56595004,-0.08595,9.732,-0.12773749,0.0814,-0.0257125
1692523639011,-0.504,-0.165,9.703051,-0.0396,0.122925,-0.104499996
1692523639042,-0.324,-0.282,9.904051,0.0143,0.1480875,-0.1610125
1692523639068,-0.16095,-0.22500001,9.391951,0.0878625,0.18315,-0.2204125
1692523639104,-0.30705002,0.040050004,9.258,0.0900625,0.1689875,-0.1618375
1692523639135,-0.43005002,0.21705002,9.267,0.0759,0.0897875,-0.0026125
1692523639164,-0.094050005,0.186,9.351001,0.0884125,0.058025,0.0259875
1692523639191,-0.19995001,0.17400001,9.373051,0.1170125,0.0424875,0.0193875
1692523639238,-0.54,0.018000001,9.262951,0.18975,0.01485,0.0449625
1692523639265,-0.45600003,-0.186,9.574051,0.190575,0.0177375,0.0413875
1692523639308,-0.20895001,-0.15795001,8.820001,0.114675,0.087037496,-0.1079375
1692523639320,-0.19500001,-0.15495001,8.7289505,0.114675,0.087037496,-0.1079375
1692523639361,-0.46095002,-0.10305001,8.48205,0.039325,0.0768625,-0.1167375
1692523639385,-0.56100005,0.0019500001,8.30805,0.014162499,0.0534875,-0.0939125
1692523639414,-0.42000002,-0.15300001,8.05395,-0.010725,0.0237875,-0.0160875
1692523639441,-0.492,-0.16005,7.6710005,-0.01485,0.031625,0.0034375
1692523639472,-0.32205,-0.18195,7.58895,-0.0188375,0.0463375,-0.0015125
1692523639505,-0.07005,-0.15795001,7.1629505,-0.0317625,0.0633875,-0.0490875
1692523639549,-0.24495001,-0.162,5.43795,-0.0413875,-0.0026125,-0.044
1692523639574,-0.68805003,-0.162,5.076,-0.043725,-0.038225,-0.0050875
1692523639623,-0.01305,-1.50495,6.6460505,-0.0504625,-0.021724999,-0.0345125
1692523639633,0.25905,-1.71105,7.0600505,-0.0675125,0.043449998,-0.1304875
1692523639666,0.22800002,-1.20105,6.90705,-0.130075,0.1056,-0.2250875
1692523639709,-1.7910001,-0.18195,6.4840503,-0.5539875,-0.073425,0.0455125
1692523639729,-1.58595,-0.28005,7.9410005,-0.5597625,-0.0771375,0.078099996
1692523639756,-0.38205,-1.1509501,9.625951,-0.45374998,0.0616,-0.096525
1692523639885,-0.72195005,-0.93600005,11.644051,0.02805,0.1852125,-0.25795
1692523639918,-0.61905,-0.39195,11.92905,0.022,0.0165,-0.0017875
1692523640007,-0.432,-0.61695004,13.597951,0.18755,-0.094875,0.1815
1692523640037,-0.29805002,-0.711,12.7570505,0.2138125,-0.0809875,0.1618375
1692523640060,-1.15005,-0.54495,12.420001,0.198275,-0.08415,0.1819125
1692523640097,-0.16095,-0.62205005,14.586,0.10725,-0.13145,0.321475
1692523640126,0.73800004,0.22395001,13.617001,0.0724625,-0.1043625,0.3469125
1692523640152,0.63900006,0.75600004,12.973051,0.0809875,-0.113437496,0.40507498
1692523640177,0.45495003,1.6150501,12.982051,0.1032625,-0.1837,0.5621
1692523640209,-0.41505003,1.90005,14.895,0.2558875,-0.3641,0.8386125
1692523640239,0.48900002,0.46095002,15.904951,0.38555,-0.3806,0.7503375
1692523640272,0.22095,-0.27495003,15.8209505,0.5413375,-0.29205,0.3146
1692523640299,-0.49395,-0.735,16.852951,0.4879875,-0.2508,0.1940125
1692523640324,-1.2940501,-1.0170001,17.695051,0.356125,-0.22495,0.1742125
1692523640362,-0.49395,-0.97200006,16.057951,0.025024999,-0.1175625,0.1186625
1692523640384,-0.24300002,-1.1700001,15.004951,-0.1104125,-0.022824999,-0.0125124995
1692523640417,-1.353,-1.0890001,16.065,-0.260975,0.106425,-0.2677125
1692523640441,-1.5499501,-1.4100001,14.482951,-0.2866875,0.122099996,-0.295625
1692523640468,-0.63495004,-2.13,12.24495,-0.2924625,0.1755875,-0.3196875
1692523640495,0.02205,-2.4120002,11.56305,-0.2971375,0.2253625,-0.377575
1692523640530,-1.06605,-1.9720501,11.314051,-0.3876125,0.2182125,-0.3832125
1692523640561,-0.90105003,-1.3879501,10.13895,-0.45787498,0.15345,-0.279125
1692523640587,0.55995005,-1.5510001,8.86305,-0.4915625,0.0930875,-0.1670625
1692523640613,-0.09900001,-1.338,9.492001,-0.4448125,0.101475,-0.2168375
1692523640643,-1.4299501,-0.651,8.899051,-0.3887125,0.0787875,-0.234025
1692523640670,-2.18205,0.26295,6.5550003,-0.2861375,-0.007975,-0.15619999
1692523640698,-1.5450001,0.57105005,3.3690002,-0.19965,0.056375,-0.271425
1692523640727,0.80505,-0.25605002,1.5670501,0.1057375,0.43505,-0.9037875
1692523640756,0.54405004,-0.37995002,5.19105,0.25905,0.5773625,-1.16325
1692523640784,-1.437,0.492,5.5960503,0.3355,0.3906375,-1.0121375
1692523640813,-1.6000501,0.66495,4.37505,0.3001625,0.180125,-0.729575
1692523640842,-0.09195001,-0.22695,4.7239504,0.3081375,0.0875875,-0.57475
1692523640867,1.64505,-1.386,6.3829503,0.4552625,0.2767875,-0.72985
1692523640893,1.4629501,-1.1530501,7.5780005,0.4357375,0.274175,-0.68282497
1692523640923,-1.0180501,0.13605,6.72795,0.2564375,0.0396,-0.3403125
1692523640950,-2.04795,0.49500003,6.201,-0.013475,-0.3482875,0.22385
1692523640982,-1.3770001,-0.873,8.71395,-0.21395,-0.64295,0.8086375
1692523641009,-0.231,-1.6540501,11.376,0.028875,0.0396,-0.012375
1692523641035,0.22800002,-0.744,9.81105,0.034925,0.2828375,-0.353925
1692523641063,0.18705001,0.22905001,7.7070003,-0.066825,0.2894375,-0.3925625
1692523641089,0.036000002,0.75600004,7.5700502,-0.1852125,-0.080575,0.1623875
1692523641120,0.076950006,0.23595001,9.636001,-0.0842875,-0.2303125,0.427075
1692523641147,-0.47295,0.20295002,9.89505,0.242275,-0.320375,0.5317125
1692523641173,-0.68805003,0.13305001,9.97605,0.3427875,-0.3102,0.50875
1692523641203,0.079050004,-0.036000002,10.74195,0.359425,-0.1854875,0.4191
1692523641228,0.37095,-0.201,10.59105,0.3194125,-0.102025,0.3114375
1692523641256,0.29205,0.13095,9.777,0.2652375,-0.06655,0.243375
1692523641284,0.177,0.22200002,9.62205,0.1530375,-0.1582625,0.3639625
1692523641311,0.060000002,0.24300002,9.69795,0.1236125,-0.20899999,0.4442625
1692523641338,-0.03195,0.14805001,9.868051,0.116325,-0.227425,0.464475
1692523641367,-0.025050001,0.109050006,9.868051,0.1197625,-0.1882375,0.3267
1692523641396,0.015000001,0.16395001,9.732,0.1131625,-0.1491875,0.2299
1692523641424,0.055050004,0.29895002,9.424951,0.1018875,-0.1109625,0.1661
1692523641451,0.13005,0.43305,9.15705,0.0848375,-0.06655,0.18053749
1692523641480,0.096,0.44505003,9.018001,0.0886875,-0.0594,0.2168375
1692523641506,-0.087000005,0.38700002,9.085951,0.1199,-0.0616,0.20625
1692523641533,0.031050002,0.11400001,9.745951,0.1370875,-0.05995,0.14795
1692523641560,0.23700002,0.109050006,9.483001,0.143,-0.048675,0.079475
1692523641588,-0.05595,0.27495003,8.928,0.0930875,-0.022,0.0290125
1692523641617,-0.13305001,0.27495003,9.1050005,0.053625,-0.0221375,0.0616
1692523641645,-0.19695,0.17205001,9.339001,0.0270875,-0.02365,0.098725
1692523641673,-0.33600003,0.37995002,9.033,0.01595,0.009075,0.0556875
1692523641702,-0.38205,0.37500003,8.214001,0.0177375,0.03795,-0.016775
1692523641729,-0.14895001,0.14295001,8.089951,0.0331375,0.094325,-0.1486375
1692523641757,-0.15705001,-0.061950002,8.710051,0.041249998,0.1170125,-0.170775
1692523641785,-0.28605002,-0.112050004,8.190001,0.0369875,0.1266375,-0.1318625
1692523641813,-0.42195,-0.024,7.79505,-0.02475,0.1027125,0.0418
1692523641840,-0.33900002,-0.16695,7.3690505,-0.0636625,0.09185,0.0699875
1692523641868,-0.00795,-0.24405001,7.0290003,-0.10835,0.1082125,-0.0254375
1692523641897,-0.19500001,0.0019500001,6.249,-0.12155,0.1109625,-0.0658625
1692523641925,-0.30495003,0.052050002,5.4349504,-0.1408,0.0606375,-0.00385
1692523641953,-0.279,-0.093,4.87995,-0.1307625,0.0389125,0.052249998
1692523641980,0.16605,-0.58095,5.6599503,-0.1056,0.0389125,0.0680625
1692523642009,0.39795002,-1.0890001,6.5410504,-0.0801625,0.0523875,0.03795
1692523642033,-0.147,-0.99105006,6.6340504,-0.1331,0.0237875,0.012375
1692523642063,-0.597,-1.098,7.06995,-0.3799125,-0.0891,0.12705
1692523642091,0.12195001,-1.3399501,7.518,-0.4838625,-0.0814,0.1054625
1692523642120,-0.11100001,-1.07895,8.16405,-0.535975,-0.02255,0.0187
1692523642146,-1.5330001,-0.40905002,8.96805,-0.554675,0.02475,-0.0383625
1692523642173,-1.3800001,-0.61200005,10.167001,-0.501875,0.0405625,0.007425
1692523642201,0.16605,-1.314,11.464951,-0.3782625,0.1489125,-0.1214125
1692523642228,0.35895002,-1.3110001,11.94795,-0.082225,0.3876125,-0.4519625
1692523642255,-1.4440501,-0.78495,11.083951,-0.053625,0.275825,-0.2728
1692523642283,-1.2270001,-0.048,11.85,-0.0917125,0.058575,0.0759
1692523642309,0.45000002,-0.78495,11.532001,-0.0501875,-0.072875,0.27719998
1692523642338,-0.015000001,0.22695,10.938001,0.0504625,0.0243375,0.06215
1692523642366,-1.7050501,0.98505,10.29195,0.1786125,-6.875E-4,-0.058849998
1692523642395,-2.5530002,0.31500003,13.20705,0.225775,-0.0748,0.0350625
1692523642421,-1.6669501,-1.67805,16.12005,0.314325,-0.0451,0.004675
1692523642450,-0.60705,-2.3119502,16.198952,0.4497625,0.2833875,-0.4349125
1692523642477,-1.15005,-1.113,14.598001,0.328075,0.3608,-0.4855125
1692523642505,-1.095,-0.26805001,13.873051,0.098175,0.3069,-0.3078625
1692523642535,-0.441,0.10695001,14.316001,-0.2050125,0.095425,0.168025
1692523642564,-0.102000006,-0.06705,15.133951,-0.175725,0.043449998,0.260975
1692523642587,-0.33900002,-0.19395001,14.425951,0.0158125,-0.0539,0.36313748
1692523642618,-0.10395,-0.53805,15.498001,0.08525,-0.1230625,0.435325
1692523642649,0.22995001,-0.97605,16.678051,0.1254,-0.2074875,0.4467375
1692523642680,0.027,-0.90000004,14.79705,0.104499996,-0.2242625,0.386925
1692523642707,-1.19505,-1.5270001,14.715001,0.0048125,-0.2618,0.3829375
1692523642741,-0.33405003,-2.60595,17.11605,-0.0534875,-0.2550625,0.41593748
1692523642772,-0.006,-2.2429502,15.394951,-0.1874125,-0.1343375,0.216425
1692523642801,-0.432,-1.62705,12.20205,-0.2745875,-0.0900625,0.092675
1692523642831,-1.54005,-1.33305,13.453951,-0.38445,-0.1060125,0.0735625
1692523642863,-1.6690501,-1.8930001,15.30405,-0.3658875,-0.081675,0.022275
1692523642887,-1.6530001,-1.74495,13.39395,-0.3125375,4.125E-4,-0.117975
1692523642914,0.060000002,-1.7710501,9.978001,-0.19607499,0.22935,-0.4466
1692523642949,1.6380001,-1.7830501,10.395,-0.16665,0.286825,-0.4725875
1692523642981,-2.6239502,0.094950005,10.825951,-0.20625,0.159775,-0.26015
1692523643006,-2.9550002,0.43695003,9.17205,-0.2539625,-0.0446875,0.0210375
1692523643034,-2.0359502,-0.036000002,5.68905,-0.1269125,-0.097075,-0.1593625
1692523643064,0.19695,-1.0860001,4.842,0.06545,0.1782,-0.72105
1692523643090,1.03695,-1.2730501,5.0670004,0.2512125,0.4844125,-1.2610124
1692523643115,1.128,-0.70305,5.22195,0.320925,0.641575,-1.459425
1692523643155,-1.353,0.70305,5.11005,0.0089375,0.10065,-0.54408747
1692523643191,-0.549,0.54705,3.0679502,-0.0730125,-0.15675,-0.111237496
1692523643223,0.83100003,-0.83505005,4.43205,0.154825,-0.1243,-0.0573375
1692523643233,1.0180501,-1.45305,5.42805,0.3081375,0.006875,-0.21573749
1692523643257,0.60105,-1.9390501,6.91905,0.3515875,0.029975,-0.2487375
1692523643282,0.12495001,-1.74705,6.9910502,0.235125,-0.104225,-0.10725
1692523643313,-0.043950003,-0.93600005,6.1050005,-0.289575,-0.4807,0.2182125
1692523643338,-1.2889501,-0.064050004,6.9259505,-0.48688748,-0.5094375,0.219175
1692523643368,-1.15695,-1.04595,11.344951,-0.4862,-0.2770625,0.0303875
1692523643396,1.24695,-1.5820501,11.356951,-0.32381248,-0.025024999,-0.2338875
1692523643424,1.51995,-0.82305,9.784051,-0.13805,0.225225,-0.488675
1692523643454,-0.123,0.717,6.8569503,0.0177375,0.045375,0.0114124995
1692523643479,-0.492,0.96900004,6.6850505,0.0495,-0.2875125,0.582175
1692523643509,-0.08505,0.41595003,8.779051,0.333025,-0.4679125,0.8754625
1692523643541,-0.49905002,0.04695,10.629001,0.5196125,-0.3086875,0.609675
1692523643568,-0.87000006,0.47100002,9.33705,0.666325,-0.038775,0.1456125
1692523643598,-0.324,0.51195,9.174001,0.61875,0.0339625,0.01595
1692523643624,0.028950002,0.504,9.342,0.5564625,0.106425,-0.0999625
1692523643653,0.051000003,0.09705,10.033051,0.490875,0.1832875,-0.2080375
1692523643681,0.051000003,-0.24900001,10.198951,0.4609,0.1387375,-0.143
1692523643708,0.13695,-0.246,10.09305,0.3147375,-0.0100375,0.0911625
1692523643735,-0.03705,-0.10305001,9.957001,0.2033625,-0.0576125,0.1709125
1692523643764,-0.09195001,0.042000003,9.885,0.0969375,-0.083325,0.19167499
1692523643796,0.012,0.057000004,10.081051,-0.014712499,-0.0851125,0.147125
1692523643825,-0.042000003,0.07095,10.201051,-0.0198,-0.0713625,0.1588125
1692523643850,-0.0010500001,0.13095,10.02105,0.0034375,-0.054725,0.2767875
1692523643878,-0.24795002,0.30600002,9.49695,0.01375,-0.0532125,0.3504875
1692523643905,-0.35295,0.41295,9.0379505,0.0231,-0.047849998,0.4008125
1692523643932,0.087000005,0.141,9.19305,0.0584375,-0.006325,0.3499375
1692523643963,0.24705002,0.021000002,9.33195,0.0831875,0.0237875,0.2668875
1692523643989,0.01695,0.13305001,9.085951,0.0972125,0.0369875,0.1892
1692523644020,-0.32205,0.19605,9.05895,0.0683375,-0.015675,0.147125
1692523644051,-0.09,0.14295001,8.892,0.0369875,-0.0336875,0.143275
1692523644077,0.063,0.08295,8.86995,0.0367125,-0.0050875,0.13255
1692523644106,-0.28395,0.022950001,8.39595,0.0298375,0.034375,0.1233375
1692523644131,-0.27405003,-0.11505,8.190001,0.0174625,0.033,0.09515
1692523644159,-0.549,-0.112050004,8.03205,0.0012375,0.0347875,0.043175
1692523644189,-0.537,-0.30405003,7.9099503,-0.040975,0.076175,-0.0831875
1692523644215,0.060000002,-0.44700003,7.4220004,-0.064625,0.109725,-0.1491875
1692523644243,0.12705001,-0.34905002,6.7780504,-0.08965,0.1398375,-0.208175
1692523644269,-0.051000003,-0.273,6.4020004,-0.1508375,0.1111,-0.176825
1692523644299,-0.46500003,-0.081,5.74905,-0.17655,0.045375,-0.0710875
1692523644330,-0.549,0.11895001,4.7719502,-0.1742125,-0.0224125,0.021724999
1692523644357,-0.29505002,-0.44295,4.8030005,-0.142175,0.014712499,-0.062425
1692523644385,0.38595003,-1.70895,6.6850505,-0.09625,0.0759,-0.1874125
1692523644415,0.43800002,-1.8360001,7.14405,-0.08855,0.1348875,-0.3565375
1692523644442,-0.22605,-1.3260001,6.321,-0.22935,0.0688875,-0.3056625
1692523644467,-0.25500003,-1.14405,6.64905,-0.448525,-0.050875,-0.141075
1692523644494,-0.264,-1.1029501,7.6369505,-0.73425,-0.1920875,0.2068
1692523644524,-0.37005,-1.266,9.741,-0.6336,-0.0845625,0.2146375
1692523644551,-0.39405003,-1.2709501,11.69505,-0.5270375,-0.02365,0.1584
1692523644580,-0.58005005,-0.462,10.809001,-0.4178625,0.0193875,0.08635
1692523644609,-0.69795,-0.46905002,10.593,-0.177375,0.0735625,-0.088
1692523644634,-0.15405001,-0.80895007,11.41695,-0.0342375,0.1013375,-0.171875
1692523644662,0.37395,-1.302,13.19505,0.1973125,0.12705,-0.21835
1692523644690,0.57195,-1.9459502,13.521001,0.22275,0.066,-0.101475
1692523644718,0.26595002,-1.86195,12.23595,0.1804,-0.0517,0.105325
1692523644746,0.06705,-1.7350501,11.434051,0.0925375,-0.1860375,0.340175
1692523644778,0.52500004,-2.3689501,13.72395,-0.1018875,-0.3227125,0.6436375
1692523644805,0.10095,-2.1040502,14.18595,-0.1667875,-0.3111625,0.6875
1692523644830,-0.91305006,-0.90405005,13.309951,-0.21395,-0.2586375,0.6870875
1692523644863,-0.92295,-0.24405001,12.85095,-0.1967625,-0.2154625,0.6213625
1692523644888,-0.20205002,0.47100002,12.22605,-0.1346125,-0.1216875,0.45045
1692523644927,0.69705003,0.13605,14.052001,0.2765125,0.2052875,-0.2677125
1692523644949,0.74205005,0.09,14.698951,0.4059,0.1736625,-0.300025
1692523644975,0.21795002,0.78000003,13.86795,0.49005,0.078099996,-0.2135375
1692523645002,-0.528,1.08405,12.054001,0.5220875,-0.029975,-0.0900625
1692523645028,0.076950006,0.39705002,14.050051,0.5286875,-0.1260875,-0.0374
1692523645055,0.73800004,-0.036000002,15.685051,0.5391375,-0.104775,-0.1280125
1692523645082,-0.35505003,0.30105,13.899001,0.533775,-0.0708125,-0.2211
1692523645112,-0.47700003,0.28395,13.71195,0.4114,-0.0407,-0.2704625
1692523645134,0.028950002,-0.76995003,15.697051,0.3293125,-0.021724999,-0.3122625
1692523645163,-0.126,-1.90005,16.65195,0.2552,0.01045,-0.3986125
1692523645190,-0.64695,-2.0989501,15.772951,0.0539,0.0429,-0.45485
1692523645220,-0.384,-1.8600001,15.357,-0.0955625,0.04235,-0.383625
1692523645247,-0.52995,-1.2610501,13.89,-0.36574998,0.0867625,-0.2531375
1692523645275,-0.86295,-1.04595,12.903001,-0.4261125,0.114125,-0.2140875
1692523645307,-0.22605,-1.644,12.396001,-0.3796375,0.1452,-0.2182125
1692523645337,0.08400001,-2.5110002,12.115951,-0.3234,0.158125,-0.2624875
1692523645371,-0.324,-2.1420002,12.373951,-0.296175,0.122099996,-0.2275625
1692523645398,-1.53795,-1.536,9.97395,-0.3370125,0.0691625,-0.1175625
1692523645425,-0.28800002,-1.845,8.004001,-0.401775,0.050049998,0.009625
1692523645452,0.651,-2.3410501,8.16405,-0.39545,0.11495,-0.053625
1692523645481,1.281,-2.8860002,8.97105,-0.3861,0.166925,-0.1225125
1692523645508,0.69405,-2.1319501,7.5030003,-0.4684625,-0.0259875,0.1067
1692523645536,-0.24000001,-1.149,5.3320503,-0.5462875,-0.2294875,0.3487
1692523645563,-0.58695,-0.40905002,3.0919502,-0.5913875,-0.3892625,0.5302
1692523645592,0.02205,-0.37605003,2.5459502,-0.48221248,-0.361625,0.519475
1692523645621,0.83295006,-0.83505005,2.18205,-0.36135,-0.204325,0.337975
1692523645650,1.6500001,-1.299,3.1879501,-0.165275,0.0191125,-0.071775
1692523645678,1.7839501,-1.2199501,4.4539504,-0.1483625,-0.069025,-0.0521125
1692523645705,0.44295,-0.80895007,5.8560004,-0.241175,-0.6689375,0.619025
1692523645733,-0.12105001,0.034950003,7.4290504,-0.2448875,-0.9728125,0.973225
1692523645761,0.039,1.04295,5.9089503,-0.1599125,-1.03675,1.0000376
1692523645789,-0.45795003,0.73905003,5.2870502,0.2891625,-0.385,0.032449998
1692523645815,-1.08105,-0.98100007,8.299951,0.60101247,-0.014025,-0.4871625
1692523645843,0.38295,-3.48495,13.19505,0.951225,0.43175,-1.048575
1692523645870,1.3069501,-2.9940002,12.384001,0.74909997,0.5864375,-1.1815375
1692523645897,0.25395,-0.90000004,8.592,0.3161125,0.624525,-1.1402875
1692523645926,-0.135,0.102000006,7.5150003,-0.1188,0.4915625,-0.86625
1692523645955,-0.80295,0.19995001,9.018001,-0.3309625,0.0977625,-0.1819125
1692523645980,-0.83595,-0.29205,11.42895,-0.1452,0.059125,-0.0977625
1692523646009,-0.25695002,-0.9480001,11.356951,0.298925,0.2541,-0.33261248
1692523646037,0.094050005,-1.02405,10.218,0.4090625,0.3509,-0.443025
1692523646065,0.20895001,-1.1179501,9.84,0.4125,0.3768875,-0.456775
1692523646093,0.060000002,-1.4959501,10.179001,0.2347125,0.2277,-0.2316875
1692523646131,-0.26895002,-1.6110001,10.395,0.039049998,0.0364375,1.375E-4
1692523646168,-0.39105,-1.1010001,9.64995,-0.1205875,-0.014712499,0.0232375
1692523646189,-0.32700002,-0.82800007,9.271951,-0.16499999,0.0121,-0.0207625
1692523646218,-0.52995,-0.43995002,9.48795,-0.1711875,0.048675,-0.0504625
1692523646244,-0.80100006,-0.33705002,9.98295,-0.14025,0.0787875,-0.0523875
1692523646274,-0.62100005,-0.33195,9.883051,-0.078375,0.104225,-0.061049998
1692523646302,-0.35805002,-0.23205002,9.47595,0.0996875,0.1617,-0.1871375
1692523646328,-0.44895002,-0.30105,9.37005,0.181775,0.179575,-0.243925
1692523646356,-0.41505003,-0.52395004,9.648001,0.27115,0.1612875,-0.23705
1692523646385,-0.54,-0.59295005,10.048051,0.2787125,0.1392875,-0.193875
1692523646415,-0.56805,-0.46905002,9.612,0.2321,0.111237496,-0.0906125
1692523646440,-0.40305,-0.41400003,9.45195,0.1945625,0.108899996,-0.0669625
1692523646468,-0.87195003,-0.26505002,9.232051,0.1364,0.10395,-0.08525
1692523646497,-1.00395,-0.45195,9.117001,0.122099996,0.097075,-0.083875
1692523646526,0.0049500004,-0.91905004,9.38895,0.1095875,0.1148125,-0.020624999
1692523646550,0.079050004,-0.79005,8.875051,0.088,0.1258125,0.014025
1692523646579,-0.324,-0.47805002,8.346001,0.0413875,0.099825,0.0653125
1692523646609,-0.79095006,-0.21000001,7.55595,-0.0655875,-0.0449625,0.2600125
1692523646634,-0.68100005,-0.42795002,7.1250005,-0.0727375,-0.078375,0.3130875
1692523646662,-0.40800002,-0.72705,7.2060003,-0.0427625,-0.0504625,0.26675
1692523646690,-0.35295,-0.85395,7.2109504,0.017875,0.0691625,0.054725
1692523646719,-0.40800002,-0.85200006,6.4500003,-0.0033,0.08855,0.0551375
1692523646748,-0.42195,-0.67005,5.64795,-0.115637496,0.0548625,0.220275
1692523646776,-0.40095,-0.507,5.256,-0.1566125,0.041525,0.2429625
1692523646804,-0.51600003,-0.30600002,4.6410003,-0.1722875,0.0374,0.20899999
1692523646831,-0.26700002,-0.86895007,5.0790005,-0.139425,0.0468875,0.0972125
1692523646858,0.22800002,-1.16805,6.3499503,-0.1087625,0.0650375,0.0471625
1692523646885,0.30405003,-1.4140501,7.2900004,-0.0994125,0.075075,0.0358875
1692523646911,0.010050001,-1.4599501,8.679001,-0.2272875,-0.0628375,0.240625
1692523646939,-0.12105001,-1.02405,7.8700504,-0.324775,-0.198,0.3997125
1692523646966,-0.14505,-1.16295,8.89395,-0.3804625,-0.353925,0.5737875
1692523646993,-0.11100001,-1.4239501,10.371,-0.3262875,-0.3430625,0.57928747
1692523647020,-0.47505003,-1.55295,11.44095,-0.249425,-0.302225,0.5627875
1692523647047,-0.13305001,-1.44105,11.565001,-0.135025,-0.2223375,0.5072375
1692523647075,0.23505001,-1.1220001,10.984051,-0.103675,-0.187825,0.444125
1692523647100,-0.00795,-0.94995004,10.696051,-0.07315,-0.1568875,0.3647875
1692523647131,0.10095,-1.1700001,11.484,0.0160875,-0.1397,0.251075
1692523647157,0.702,-2.0989501,13.333951,0.066,-0.136125,0.1948375
1692523647184,0.48900002,-2.1660001,13.08495,0.09515,-0.128975,0.1401125
1692523647211,0.20895001,-1.5460501,12.628051,0.021724999,-0.1775125,0.20693749
1692523647238,-0.36,-1.20105,11.7619505,-0.0504625,-0.2234375,0.3337125
1692523647266,-2.1430502,-0.71805006,11.27595,-0.085525,-0.2107875,0.4409625
1692523647296,-0.37395,-0.69600004,12.589951,-0.0336875,-0.103675,0.2726625
1692523647323,1.3260001,-1.8720001,14.217001,0.122375,0.27513748,-0.436975
1692523647354,-0.633,-0.88995004,12.817051,0.1755875,0.3452625,-0.605
1692523647374,-1.521,0.231,11.89305,0.17765,0.245575,-0.4642
1692523647407,0.15105,-0.58905005,13.795951,0.1392875,0.005775,-0.0114124995
1692523647434,1.21605,0.21000001,12.987,0.177375,0.044825,-0.07095
1692523647460,0.63705003,1.1910001,12.292951,0.24805,0.090475,-0.1782
1692523647490,-0.25695002,1.917,13.24995,0.3991625,-0.08745,0.096525
1692523647517,0.59205,1.1700001,14.352,0.5031125,-0.18975,0.2641375
1692523647544,1.1040001,0.41295,15.249001,0.623425,-0.2123,0.23567499
1692523647572,0.67800003,0.064050004,14.2890005,0.7272375,-0.1720125,-0.0631125
1692523647602,-0.16905001,-0.18900001,13.285951,0.6524375,-0.1942875,-0.07425
1692523647631,1.0320001,-1.6470001,16.161001,0.370425,-0.2209625,0.0605
1692523647656,0.93405,-2.2740002,16.221,0.226325,-0.1797125,0.067925
1692523647684,-0.19695,-2.1319501,14.203051,0.0719125,-0.1362625,0.0669625
1692523647712,-0.44895002,-2.1010501,13.762951,-0.2767875,-0.11055,0.161425
1692523647741,-0.33900002,-2.0730002,14.143051,-0.4136,-0.073699996,0.148775
1692523647769,0.177,-1.6369501,11.93595,-0.53061247,0.091299996,-0.100925
1692523647796,0.55995005,-1.3429501,11.62005,-0.5284125,0.154825,-0.19085
1692523647824,0.35895002,-1.194,12.0060005,-0.4976125,0.168025,-0.1808125
1692523647851,-0.20895001,-1.386,11.857051,-0.377025,0.0677875,0.0251625
1692523647880,0.312,-2.0629501,11.25195,-0.305525,0.013062499,0.11935
1692523647908,-0.0010500001,-1.9579501,10.452001,-0.245025,-0.00495,0.1568875
1692523647934,-0.84105,-1.0309501,8.580001,-0.2121625,0.0320375,0.1013375
1692523647961,-0.53205,-0.20295002,7.4890504,-0.23333749,0.0551375,0.0339625
1692523647989,-0.09195001,-0.165,6.7710004,-0.2011625,0.149875,-0.21835
1692523648017,0.72795004,-0.54105,4.7530503,-0.1164625,0.2033625,-0.3232625
1692523648046,0.79995006,-0.924,3.1920002,-0.0177375,0.215325,-0.340175
1692523648074,1.0489501,-1.2199501,2.24895,0.0669625,0.0485375,-0.106837496
1692523648105,-0.67605,-1.161,2.9980502,-0.102575,-0.26015,0.4076875
1692523648132,-0.537,-1.1410501,5.00895,-0.2457125,-0.367675,0.6367625
1692523648157,-0.24300002,-0.79200006,6.2110505,-0.3771625,-0.36025,0.6925875
1692523648187,0.09105001,-0.85905004,7.9150505,-0.44385,-0.0105875,0.250525
1692523648209,0.513,-0.87600005,6.2590504,-0.35035,0.1485,-0.022
1692523648238,1.2430501,-0.92595005,6.19395,-0.2154625,0.19965,-0.2046
1692523648267,0.33105,-0.97905004,9.01395,-0.0144375,-0.042075,-0.1496
1692523648296,-1.1520001,-0.94995004,10.713,0.0317625,-0.2561625,0.0474375
1692523648324,-1.4320501,-1.4170501,9.109051,0.076175,-0.366025,0.15675
1692523648352,-0.25500003,-1.9480501,10.05,0.1544125,0.073699996,-0.3333
1692523648379,0.61995006,-1.9960501,11.0460005,0.132275,0.4134625,-0.6996
1692523648409,0.19905001,-1.1700001,10.048051,0.056649998,0.59455,-0.873675
1692523648436,-0.264,-0.26295,7.7239504,-0.1060125,0.3675375,-0.4965125
1692523648463,-0.34095,-0.105000004,7.9440002,-0.10065,0.1711875,-0.213125
1692523648490,-0.42705002,-0.71295005,9.5119505,0.1106875,0.04675,-0.10505
1692523648517,-0.09,-1.3090501,11.008051,0.238975,0.079475,-0.212575
1692523648546,-0.252,-1.09395,11.167951,0.325325,0.12773749,-0.3498
1692523648573,-0.28605002,-0.60495,9.8230505,0.2787125,0.116875,-0.3433375
1692523648601,-0.25005,-0.39900002,9.50895,0.2182125,0.0968,-0.3133625
1692523648631,-0.18300001,-0.51000005,9.48495,0.1783375,0.0779625,-0.2635875
1692523648660,-0.03705,-0.81405,9.7560005,0.1967625,0.0735625,-0.2344375
1692523648686,0.027,-0.92595005,9.816001,0.2112,0.0609125,-0.170225
1692523648718,0.10305001,-1.0510501,10.062,0.1733875,0.001375,0.0779625
1692523648746,-0.15195,-0.85200006,10.1320505,0.1254,-0.0375375,0.1940125
1692523648773,-0.291,-0.61200005,9.84,0.029975,-0.091299996,0.2435125
1692523648801,0.13005,-0.56205004,9.813001,0.0088,-0.088825,0.1854875
1692523648829,0.043050002,-0.615,9.880051,0.0363,-0.054449998,0.100237496
1692523648856,0.14400001,-0.62895006,9.660001,0.0633875,-0.052249998,0.101475
1692523648883,0.23505001,-0.59295005,9.568951,0.0834625,-0.0611875,0.1018875
1692523648912,0.16800001,-0.52395004,9.40905,0.093775,-0.082775,0.0666875
1692523648940,0.12495001,-0.53295004,9.315001,0.0906125,-0.091575,0.0452375
1692523648967,-0.135,-0.56505,9.423,0.0842875,-0.1016125,0.06215
1692523648995,-0.3,-0.65595,9.50895,0.0820875,-0.097075,0.1027125
1692523649025,-0.537,-0.402,9.391951,0.0779625,-0.0782375,0.1309
1692523649050,-0.40605003,-0.34905002,9.397051,0.060775,0.0174625,0.0834625
1692523649094,-0.049050003,-0.16995001,8.092051,0.0741125,0.1315875,-0.07755
1692523649112,-0.19995001,0.0139500005,7.9920006,0.0947375,0.1566125,-0.1733875
1692523649142,-0.26700002,-0.11505,7.8480005,0.114125,0.1502875,-0.2424125
1692523649167,-0.53505003,-0.411,8.611951,0.14795,0.10175,-0.2718375
1692523649199,-0.41505003,-0.28695002,8.299951,0.1546875,0.095837496,-0.2968625
1692523649224,-0.52305,-0.055050004,6.8569503,0.1431375,0.10835,-0.3480125
1692523649249,-0.52995,-0.043050002,5.60505,0.09955,0.1544125,-0.38115
1692523649279,-0.43695003,-0.39000002,5.3590503,0.0966625,0.17325,-0.336875
1692523649313,-0.054,-0.768,5.8279505,0.10065,0.191125,-0.2162875
1692523649327,-0.094050005,-0.64095,5.703,0.10065,0.191125,-0.2162875
1692523649363,-0.66195005,-0.33195,4.5469503,-0.08305,0.1142625,0.0185625
1692523649390,-0.31005,-0.522,4.7790003,-0.1489125,0.0856625,0.0402875
1692523649419,0.44295,-0.92805004,5.9280005,-0.1819125,0.0834625,0.0044
1692523649447,0.58905005,-0.82800007,6.354,-0.2072125,0.073699996,-0.001925
1692523649474,0.052950002,-0.45195,6.6150002,-0.2481875,-0.02475,0.15895
1692523649507,-0.62100005,0.18795002,8.809951,-0.29095,-0.1788875,0.3898125
1692523649534,-0.063,-0.50205004,11.778001,-0.1962125,-0.3078625,0.57475
1692523649564,0.15795001,-0.98595005,12.12495,-0.054449998,-0.2176625,0.4554
1692523649595,0.30705002,-1.2559501,11.87205,0.148225,-0.083875,0.3034625
1692523649614,0.072000004,-1.3470001,11.55105,0.1271875,-0.11715,0.37193748
1692523649651,-0.84405005,-1.2420001,12.288,-0.0383625,-0.2099625,0.540925
1692523649675,-0.54705,-1.5120001,13.38195,-0.103125,-0.1887875,0.5225
1692523649702,-0.39600003,-1.96695,13.936951,-0.138325,-0.1131625,0.41305
1692523649730,-1.2270001,-1.065,12.7240505,-0.1766875,0.047575,0.144925
1692523649759,-1.3080001,-0.76095,12.264001,-0.201025,0.0853875,0.05995
1692523649787,-0.73095006,-1.20105,13.49505,-0.20075,0.125675,-0.053625
1692523649815,-1.0180501,-0.90900004,13.519051,-0.0823625,0.24255,-0.34925
1692523649842,-0.91305006,-0.62700003,13.377001,-0.0213125,0.2638625,-0.3806
1692523649873,0.156,-0.80205005,14.794051,0.0526625,0.212025,-0.23815
1692523649893,0.62505,-0.44505003,14.76105,0.0961125,0.170225,-0.1683
1692523649924,0.61605,0.10695001,13.97805,0.135025,0.095975,-0.060225
1692523649951,0.69705003,0.43005002,14.623951,0.181775,-0.1582625,0.3081375
1692523649979,-0.03705,0.64095,14.7630005,0.2206875,-0.26675,0.4552625
1692523650007,-0.56100005,0.78705,14.158051,0.2739,-0.326975,0.5339125
1692523650034,-0.84105,0.76500005,13.332001,0.3774375,-0.2960375,0.4879875
1692523650062,-1.08105,-0.12195001,13.7029505,0.41387498,-0.20955,0.3482875
1692523650090,-0.24000001,-1.7020501,15.850051,0.4211625,0.0166375,-0.050049998
1692523650118,0.02205,-2.403,15.946051,0.35585,0.10395,-0.198825
1692523650147,-0.97800004,-2.0269501,15.121951,0.02145,0.1211375,-0.158675
1692523650171,-1.0210501,-1.81605,14.088,-0.1780625,0.07095,-0.02915
1692523650199,-0.58995,-1.5700501,12.336,-0.3257375,0.0396,0.0430375
1692523650230,-0.882,-1.077,12.778951,-0.4123625,0.0840125,-0.109037496
1692523650256,-0.77400005,-0.97200006,12.175951,-0.3856875,0.119075,-0.2413125
1692523650284,-0.81000006,-1.0309501,11.733001,-0.3333,0.1442375,-0.356675
1692523650312,0.20895001,-1.6699501,12.015,-0.192775,0.1705,-0.5011875
1692523650339,0.67305005,-1.9030501,11.295,-0.140525,0.1639,-0.49335
1692523650366,0.43095002,-1.62495,10.651051,-0.1285625,0.1172875,-0.362175
1692523650395,-0.049050003,-0.402,9.583051,-0.2171125,-0.1203125,0.2707375
1692523650424,-0.40800002,-0.33,6.4669504,-0.25465,-0.23155,0.5366625
1692523650449,-0.022950001,-0.87795,4.2049503,-0.1670625,-0.2519,0.5380375
1692523650478,0.0,-1.32105,6.0670505,-0.081675,-0.201025,0.40205
1692523650506,-0.58005005,-0.91905004,6.3850503,-0.05555,-0.111375,0.1782
1692523650533,-1.107,-0.88995004,4.56195,-0.1153625,-0.0748,0.0785125
1692523650564,0.031050002,-0.72705,1.9519501,-0.1692625,-0.015675,-0.061325
1692523650589,1.0030501,-1.0309501,3.051,-0.2003375,0.2195875,-0.4943125
1692523650616,0.80700004,-1.3110001,5.85195,-0.22013749,0.2794,-0.6285125
1692523650644,-0.43905002,-0.70095,8.028001,-0.265375,0.1841125,-0.5493125
1692523650672,-0.33105,-0.69900006,6.9979506,-0.3034625,-0.23375,-0.063525
1692523650700,0.35895002,-0.48105,5.4540005,-0.219175,-0.2541,-0.0763125
1692523650727,0.003,-0.177,6.2040005,0.02915,-0.0154,-0.4456375
1692523650760,-1.4089501,-0.052050002,7.73295,0.1172875,0.014162499,-0.4695625
1692523650784,-1.54305,-0.74700004,9.238951,0.1881,-0.0050875,-0.3980625
1692523650811,0.43800002,-1.6369501,11.887951,0.32065,0.209825,-0.5335
1692523650838,0.62505,-0.86595005,11.014951,0.3320625,0.395725,-0.6958875
1692523650865,0.23295002,-0.42105,9.406051,0.2723875,0.4279,-0.649275
1692523650892,-0.34800002,-0.19605,9.078,0.1093125,0.013612499,0.0939125
1692523650927,-0.45795003,-0.71805006,9.804001,0.1645875,-0.2151875,0.5093
1692523650964,-0.303,-1.1080501,10.74195,0.2173875,-0.16995,0.4492125
1692523650997,-0.147,-0.87795,10.033051,0.185075,-0.025024999,0.22495
1692523651021,-0.087000005,-0.84195006,9.50895,0.10615,0.0034375,0.1711875
1692523651054,0.058050003,-0.97395,9.75105,-0.0078375,-0.0158125,0.1563375
1692523651077,0.076950006,-1.00695,10.41195,-0.0246125,-0.0380875,0.1645875
1692523651106,0.11505,-1.146,10.099951,-0.0317625,-0.061049998,0.1736625
1692523651135,0.094050005,-0.96405005,9.327001,-0.0473,-0.102575,0.1797125
1692523651162,-0.01995,-0.81600004,9.68595,-0.060225,-0.1189375,0.1967625
1692523651191,-0.171,-0.615,9.708,-0.076175,-0.13653749,0.2992
1692523651222,-0.351,-0.39495003,9.715051,-0.0605,-0.1255375,0.3084125
1692523651253,-0.03705,-0.56205004,9.904051,0.0248875,-0.0495,0.13805
1692523651280,0.12495001,-0.51705,9.69795,0.0752125,-0.0017875,0.0309375
1692523651310,-0.25695002,-0.24105,9.45405,0.1364,0.031075,-0.0534875
1692523651339,-0.23295002,-0.25305,9.526051,0.1456125,0.0125124995,-0.0479875
1692523651369,-0.0010500001,-0.43305,9.76305,0.1678875,0.004675,-0.0620125
1692523651397,-0.08205,-0.33495003,9.30105,0.1804,0.0209,-0.0658625
1692523651424,-0.492,-0.069000006,8.88,0.1797125,0.0290125,-0.06655
1692523651451,-0.57105005,-0.08595,8.98305,0.1549625,0.028324999,-0.114125
1692523651480,-0.40605003,-0.27495003,9.18105,0.1574375,0.0506,-0.139425
1692523651509,-0.38595003,-0.27705002,8.599951,0.16995,0.1208625,-0.089925
1692523651537,-0.74100006,-0.109950006,7.9560003,0.1549625,0.1348875,-0.0385
1692523651564,-0.79800004,-0.16995001,7.7310004,0.1315875,0.1359875,-0.0268125
1692523651594,-0.39105,-0.59805006,7.62795,0.10505,0.1661,-0.1577125
1692523651623,-0.384,-0.60300004,7.15395,0.093775,0.1975875,-0.2264625
1692523651653,-0.38895002,-0.45195,6.46395,0.0166375,0.19855,-0.2267375
1692523651680,-0.28800002,-0.49005002,6.0700502,-0.0383625,0.16335,-0.1879625
1692523651706,-0.37395,-0.31305,5.1259503,-0.102575,0.0968,-0.12375
1692523651734,-0.324,-0.70305,5.2920003,-0.1095875,0.0768625,-0.11055
1692523651761,-0.25695002,-1.005,6.1200004,-0.10835,0.065175,-0.113299996
1692523651790,0.031050002,-1.302,7.34805,-0.136125,0.0521125,-0.1214125
1692523651819,0.192,-1.09095,6.8089504,-0.2014375,0.0314875,-0.09955
1692523651851,-0.291,-0.555,6.0930004,-0.3735875,-0.0851125,-0.00495
1692523651873,-0.37905002,-0.684,7.3050003,-0.401775,-0.1549625,0.0644875
1692523651901,-0.18795002,-0.77505004,8.973001,-0.363,-0.1874125,0.106975
1692523651929,-0.65505004,-0.531,9.66495,-0.175725,-0.1291125,-6.875E-4
1692523651958,-0.22395001,-0.75105006,10.287001,-0.0859375,-0.089375,-0.0675125
1692523651990,-0.31005,-0.28005,10.869,0.0595375,-0.025024999,-0.0039875
1692523652023,-0.030000001,-0.49005002,11.155951,0.15455,-0.032725,0.2718375
1692523652048,-0.21405001,-0.59295005,11.838,0.1876875,-0.05995,0.3707
1692523652075,-1.30305,-0.162,12.625951,0.20845,-0.0851125,0.4041125
1692523652104,-1.0159501,0.44205,13.777051,0.2145,-0.0704,0.2899875
1692523652137,0.25905,-0.39705002,14.32005,0.238975,0.006875,0.14135
1692523652161,0.66795003,-1.8570001,13.758,0.2921875,0.0947375,0.001375
1692523652188,0.69705003,-1.8880501,13.83705,0.269775,0.0485375,0.1087625
1692523652217,-0.59505004,-0.61995006,12.970051,0.1145375,-0.0873125,0.3634125
1692523652245,-0.83205,-0.093,12.585001,-0.0677875,-0.2168375,0.645425
1692523652275,-0.19995001,-0.43095002,12.003,-0.193325,-0.2341625,0.847275
1692523652303,-1.0180501,-0.081,11.545951,-0.132825,-0.135025,0.72985
1692523652330,-0.32895002,0.43695003,13.542001,0.01485,0.0119624995,0.45155
1692523652357,0.28005,0.64605004,13.485001,0.0743875,0.0413875,0.3254625
1692523652387,-0.58995,1.31805,12.750001,0.2237125,0.045649998,0.1087625
1692523652414,-2.5170002,1.7509501,12.693001,0.311575,0.0089375,0.069025
1692523652443,-2.055,0.89505005,13.930051,0.4021875,-0.0064625,-0.014575
1692523652471,-0.69795,-0.27705002,15.40995,0.5611375,0.1758625,-0.561825
1692523652499,-0.16905001,-0.19800001,14.758051,0.5698,0.2979625,-0.83393747
1692523652528,-0.47505003,-0.12195001,14.031001,0.33935,0.28435,-0.74745
1692523652554,-0.32205,-0.13605,15.7879505,0.177375,0.17325,-0.4728625
1692523652582,-0.17805001,-0.96000004,16.03395,0.0521125,0.066,-0.2077625
1692523652610,-0.051000003,-1.9099501,14.614951,-0.095837496,-0.0609125,0.139975
1692523652639,-0.07005,-1.4170501,12.990001,-0.1744875,-0.1012,0.266475
1692523652665,-0.29805002,-0.81795,12.537001,-0.2745875,-0.13145,0.3531
1692523652693,-0.94200003,-0.75405,11.23005,-0.424875,-0.14905,0.358325
1692523652719,-0.55200005,-1.16805,12.18,-0.41593748,-0.1331,0.29645
1692523652748,0.51495004,-1.764,12.939001,-0.29755,-0.0561,0.089237496
1692523652779,0.98700005,-1.12905,10.809001,-0.2616625,-0.0265375,0.014575
1692523652808,1.03695,-0.201,9.23595,-0.2941125,-0.114125,0.17847499
1692523652835,-0.94695,-0.91605,6.0049505,-0.30153748,-0.216425,0.3342625
1692523652863,-1.164,-1.45305,6.3810005,-0.259875,-0.3040125,0.41745
1692523652895,1.23105,-3.1950002,10.57905,-0.15235,-0.23705,0.186725
1692523652922,1.59195,-2.3359501,9.567,-0.198825,-0.081675,-0.0471625
1692523652950,-1.2720001,-0.24105,6.68205,-0.4992625,-0.0504625,0.039049998
1692523652976,-1.69605,0.040050004,4.26195,-0.59455,-0.2253625,0.3738625
1692523653005,0.42405003,-0.957,4.6090503,-0.5555,-0.31295,0.53845
1692523653033,0.9580501,-1.2730501,4.0090504,-0.231,0.01705,0.0187
1692523653061,0.055050004,-0.64095,4.7959504,-0.124025,0.1502875,-0.205425
1692523653090,-0.372,-0.59595,5.4619503,-0.114675,0.1123375,-0.179575
1692523653116,0.18495001,-0.684,5.4880505,-0.1750375,-0.11,0.0226875
1692523653145,0.45495003,-0.92100006,6.25605,-0.088275,-0.0298375,-0.3001625
1692523653173,0.04095,0.19995001,6.3520503,-0.0345125,0.01485,-0.4412375
1692523653202,-0.80505,0.27,7.3360505,0.0187,0.0020625,-0.4838625
1692523653230,-1.35105,-0.402,7.9170003,0.23815,0.032725,-0.64405
1692523653259,-0.762,-0.97905004,9.078,0.386925,0.1903,-0.878625
1692523653284,0.50805,-0.684,10.43595,0.47547498,0.576125,-1.3050125
1692523653313,0.91200006,-0.294,9.769951,0.3939375,0.60115,-1.27105
1692523653342,0.38295,0.19305001,8.31,0.294525,0.4455,-1.0011375
1692523653368,-0.71400005,0.354,9.162001,0.22165,-0.0787875,-0.1551
1692523653396,-0.54,0.15495001,9.80805,0.2629,-0.2055625,0.1010625
1692523653423,-0.15900001,-0.15795001,10.13895,0.3235375,-0.180675,0.1368125
1692523653449,0.039,-0.23205002,10.179001,0.3834875,0.0386375,-0.1170125
1692523653477,0.393,-0.28005,10.500001,0.3524125,0.077275,-0.1584
1692523653503,0.312,-0.38700002,10.045051,0.2905375,0.053075,-0.103125
1692523653531,0.13005,-0.63600004,10.28205,0.1431375,-0.0713625,0.10615
1692523653559,0.156,-0.522,10.215,0.0790625,-0.1269125,0.20735
1692523653585,0.04605,-0.28695002,10.065001,0.0226875,-0.1555125,0.28435
1692523653617,-0.17295001,-0.031050002,9.411,-0.0523875,-0.1384625,0.3092375
1692523653644,-0.09195001,-0.10005,9.375,-0.051425,-0.11275,0.285175
1692523653669,0.120000005,-0.12705001,10.024051,0.0209,-0.0539,0.2352625
1692523653701,0.25395,0.040050004,10.042951,0.0570625,-0.0306625,0.2079
1692523653730,0.18495001,0.22395001,9.117001,0.078925,-0.0210375,0.199375
1692523653759,0.02205,0.41805002,9.042001,0.104775,-0.0446875,0.2591875
1692523653785,-0.39105,0.57600003,9.16695,0.1255375,-0.0617375,0.2849
1692523653815,0.027,0.24795002,9.459001,0.187,-0.053625,0.19965
1692523653841,0.26805001,0.117000006,9.540001,0.2140875,-0.0251625,0.094875
1692523653870,-0.26895002,0.28395,8.997001,0.2116125,0.007975,-0.0133375
1692523653901,-0.054,0.034950003,9.36795,0.1819125,-0.0012375,0.0290125
1692523653928,0.060000002,-0.025950002,9.825001,0.12815,0.0174625,0.1144
1692523653956,0.075,0.13095,9.757951,0.103675,0.042075,0.1291125
1692523653989,0.024,0.39405003,8.54205,0.0413875,0.0429,0.1406625
1692523654015,-0.079950005,0.62205005,8.095051,0.0284625,0.029975,0.1351625
1692523654044,-0.25695002,0.45195,7.2499504,0.074525,0.0196625,0.12705
1692523654070,-0.291,0.30795002,6.9030004,0.1183875,0.0287375,0.104775
1692523654098,-0.102000006,0.15,7.4869504,0.153725,0.047849998,0.0617375
1692523654126,0.27795002,-0.34395,7.9080005,0.14355,0.0919875,-0.0334125
1692523654155,0.31395,-0.040050004,7.46295,0.1005125,0.0917125,-0.031625
1692523654183,-0.39405003,0.303,5.63595,0.0419375,0.061049998,0.0246125
1692523654213,-0.34605002,0.186,5.655,-0.0518375,-0.0243375,0.119075
1692523654242,-0.57105005,-0.483,5.6530504,-0.0518375,-0.015675,0.0537625
1692523654270,-0.62805,-0.90705,5.7460504,-0.0336875,0.0994125,-0.1747625
1692523654299,-0.19500001,-1.04805,5.7580504,-0.088275,0.15345,-0.2336125
1692523654330,0.19395001,-1.161,7.52505,-0.3469125,0.20047499,-0.27885
1692523654360,-0.48195,-0.768,8.181001,-0.4796,0.1815,-0.2842125
1692523654390,-1.07595,-0.30105,7.9440002,-0.5894625,0.0565125,-0.14093749
1692523654418,-0.81495005,-0.094950005,8.82495,-0.5399625,0.0350625,-0.11495
1692523654444,-0.22095,-0.51000005,11.853001,-0.2624875,0.206525,-0.4899125
1692523654470,-0.52995,-0.29895002,12.118051,-0.1043625,0.2759625,-0.650925
1692523654501,-0.702,0.25800002,10.243951,0.0081124995,0.264825,-0.626725
1692523654530,-0.79605,0.47295,10.620001,0.1056,0.1376375,-0.3042875
1692523654557,0.015000001,-0.39495003,12.39105,0.1566125,0.1043625,-0.21133749
1692523654585,0.83100003,-0.96195006,13.624051,0.21573749,0.09185,-0.18205
1692523654614,0.34005,-0.117000006,13.657051,0.2237125,-0.0292875,0.0127875
1692523654642,0.30195,0.75600004,12.493951,0.1584,-0.16335,0.258225
1692523654670,0.003,1.419,11.79705,0.0726,-0.352825,0.70565
1692523654709,-0.80505,1.6489501,12.468,0.2277,-0.3081375,0.7484125
1692523654734,-0.40800002,1.182,13.05195,0.3669875,-0.224675,0.57695
1692523654765,-0.19305001,1.16505,12.99705,0.5493125,-0.026124999,0.103125
1692523654795,-0.19500001,1.5649501,13.753051,0.5413375,0.0297,-0.0262625
1692523654821,-0.43905002,1.7080501,14.215051,0.4890875,0.0433125,-0.0617375
1692523654852,-0.36705002,1.8139501,13.67205,0.3887125,0.02145,0.00935
1692523654883,0.13695,1.1389501,15.520051,0.344575,0.02365,0.1032625
1692523654910,0.25905,1.00695,15.208051,0.314325,0.02145,0.117699996
1692523654933,0.16605,1.1910001,14.080951,0.2597375,9.625E-4,0.1266375
1692523654959,0.109950006,1.35405,14.182051,0.1827375,-0.034925,0.14355
1692523654997,-1.0489501,1.27995,14.29905,0.058025,-0.0911625,0.168575
1692523655021,-1.107,0.40605003,15.43605,0.047025,-0.0826375,0.1428625
1692523655045,-0.9990001,0.022950001,16.19205,0.0540375,-0.038775,0.0642125
1692523655072,0.19695,-0.62700003,13.708051,-0.0050875,0.0955625,-0.2143625
1692523655100,1.35,-1.07895,9.682051,-0.092675,0.1296625,-0.3513125
1692523655128,0.441,-0.28500003,11.236951,-0.27555,0.0441375,-0.3751
1692523655155,0.34305,-0.47400004,12.607051,-0.3293125,-0.0521125,-0.24255
1692523655184,1.4389501,-1.2060001,13.21905,-0.3532375,-0.1425875,-0.0836
1692523655213,-0.27405003,-0.96405005,13.167001,-0.3916,-0.253825,0.2036375
1692523655238,-0.59895,-0.98805004,12.031951,-0.436425,-0.2795375,0.2965875
1692523655269,-0.18300001,-1.194,11.25405,-0.47808748,-0.2630375,0.2811875
1692523655294,-1.4110501,0.069000006,10.15095,-0.47795,-0.0713625,-0.0347875
1692523655322,-1.3969501,0.43995002,8.20695,-0.4450875,0.042075,-0.1816375
1692523655351,-0.15900001,-0.045,7.6519504,-0.28765,0.2286625,-0.4478375
1692523655379,-0.573,-0.58605003,6.91695,-0.16445,0.3100625,-0.60665
1692523655411,-1.815,-1.02405,6.7660503,-0.0169125,0.3111625,-0.63208747
1692523655438,-0.079950005,-2.1420002,8.299951,-0.038225,0.2712875,-0.5608625
1692523655464,1.2019501,-2.42895,8.2570505,-0.107525,0.286275,-0.5946875
1692523655493,0.924,-1.47405,6.19605,-0.38334998,0.2915,-0.599225
1692523655521,0.39495003,-0.63900006,4.269,-0.56265,0.0983125,-0.224675
1692523655548,1.00605,-0.73005,4.9450502,-0.7112875,-0.41745,0.6969875
1692523655576,1.07295,-0.96405005,5.51205,-0.6356625,-0.540375,0.869825
1692523655603,-0.35805002,0.016050002,4.65495,-0.513975,-0.5999125,0.9284
1692523655631,-1.2,0.70305,6.2179503,-0.286275,-0.65945,0.9904125
1692523655659,-0.063,0.021000002,7.1610003,-0.1524875,-0.546975,0.8149625
1692523655687,-0.30495003,-0.23205002,7.48395,0.0356125,-0.2946625,0.4250125
1692523655715,-0.39405003,-0.13905,8.394,0.399025,0.2160125,-0.353925
1692523655744,0.003,0.19305001,8.997001,0.444125,0.3014,-0.471075
1692523655772,0.68505,-0.01905,10.024051,0.3953125,0.27981248,-0.462825
1692523655800,0.10605001,0.25800002,9.16905,0.389675,0.21725,-0.4189625
1692523655827,-1.128,0.61005,8.595,0.3804625,-0.0177375,-0.1161875
1692523655855,-0.62100005,0.049950004,9.468,0.3752375,-0.0732875,-0.0022
1692523655884,-0.20700002,-0.25305,10.09605,0.3749625,-0.023924999,-0.0226875
1692523655910,-0.11595,-0.079050004,9.82005,0.3213375,0.17613749,-0.193875
1692523655937,0.024,0.19995001,9.1380005,0.2498375,0.19813749,-0.1731125
1692523655964,0.28800002,0.19095,9.1380005,0.17613749,0.1640375,-0.108899996
1692523655992,0.25905,0.045,9.427951,0.1159125,0.039049998,-0.03135
1692523656021,0.04095,-0.186,10.065001,0.121,-0.02695,0.0099
1692523656048,-0.19995001,-0.19800001,9.85095,0.1035375,-0.1258125,0.1794375
1692523656076,-0.16605,-0.07395,9.739051,0.0688875,-0.1340625,0.2454375
1692523656103,-0.147,0.08295,9.942,0.02805,-0.1109625,0.25575
1692523656131,-0.01995,0.11400001,10.099951,-0.016224999,-0.0295625,0.1711875
1692523656159,-0.29505002,0.40095,9.7560005,-0.009625,-0.003575,0.1348875
1692523656187,-0.19305001,0.24300002,9.721951,0.0347875,0.0042625,0.1027125
1692523656215,-0.022950001,-0.061950002,10.054951,0.06215,0.0059125,0.0776875
1692523656243,-0.13305001,-0.055050004,9.739051,0.0836,0.014575,0.0358875
1692523656270,-0.063,0.025950002,9.8230505,0.065175,0.023924999,-0.0334125
1692523656297,0.17505,0.052050002,9.4800005,0.033275,0.019524999,-0.0452375
1692523656326,-0.00795,0.44895002,9.126,0.0083875,0.0127875,-0.0429
1692523656353,-0.010950001,0.55905,8.841001,0.015125,-0.0165,0.043175
1692523656382,0.027,0.55905,8.89605,0.04895,-0.0317625,0.0985875
1692523656411,0.12195001,0.82995003,8.253,0.1375,-0.0383625,0.119625
1692523656438,0.14400001,0.79395,8.415,0.172425,-0.0363,0.1214125
1692523656464,-0.015000001,0.64095,7.83405,0.2024,-0.0356125,0.1280125
1692523656499,0.087000005,0.23895001,7.73505,0.2506625,-0.042075,0.0691625
1692523656526,0.12195001,0.064050004,7.4940004,0.2517625,-0.0444125,0.0160875
1692523656551,-0.20895001,-0.08805001,7.0800004,0.169125,-0.040425,-0.0273625
1692523656575,-0.40995002,-0.58095,7.4550004,0.094325,-0.0386375,-0.020075
1692523656602,-0.45105,-0.88500005,7.5010505,0.0105875,-0.0284625,-0.0103124995
1692523656629,-0.32895002,-0.90000004,7.2450004,-0.20019999,0.0559625,-0.0532125
1692523656656,-0.25695002,-0.62205005,6.09105,-0.32505,0.113437496,-0.091575
1692523656683,-0.25695002,-0.20595,5.7180004,-0.4310625,0.1557875,-0.1021625
1692523656710,-0.26205,-0.112050004,6.2389503,-0.4841375,0.1694,-0.0342375
1692523656737,-0.11100001,-0.21000001,7.1509504,-0.4233625,0.1535875,0.0017875
1692523656763,-0.35295,-0.16005,8.89605,-0.3298625,0.133925,0.0290125
1692523656793,-1.06095,0.36795002,7.2660003,-0.15455,0.098037496,0.0430375
1692523656820,-0.71205,0.66705,6.852,-0.087175,0.107525,-0.014575
1692523656847,-0.384,0.56700003,8.01105,-0.009075,0.1551,-0.121275
1692523656873,-0.48900002,0.37500003,9.282001,0.2006125,0.2660625,-0.2732125
1692523656900,-0.78105,0.65295005,8.99205,0.2828375,0.25685,-0.2259125
1692523656928,-0.82005006,0.47100002,9.79395,0.31075,0.158125,-0.0581625
1692523656956,-0.24495001,-0.040050004,10.677,0.2938375,0.1342,-0.0628375
1692523656982,0.402,-0.028050002,11.458051,0.2701875,0.124575,-0.1093125
1692523657010,0.21795002,0.22695,12.078001,0.1337875,0.0149875,-0.0207625
1692523657038,0.675,0.28905,12.765,0.0380875,-0.097625,0.157025
1692523657064,0.13695,0.73695004,12.7879505,-0.0306625,-0.2143625,0.3661625
1692523657091,0.12195001,0.813,12.90795,-0.041525,-0.363825,0.68255
1692523657118,-0.60405004,1.4430001,11.92395,0.0053625,-0.3685,0.7121125
1692523657145,-0.762,1.50495,12.35805,0.071775,-0.3245,0.623975
1692523657171,-0.58695,1.12395,14.143051,0.2311375,-0.1420375,0.1925
1692523657200,-0.69000006,1.3660501,13.839001,0.3004375,-0.039325,-0.0138875
1692523657227,-0.777,2.01705,12.73305,0.336875,0.04455,-0.1342
1692523657254,-0.44595003,1.9720501,13.839001,0.326425,0.1269125,-0.18053749
1692523657281,0.63705003,1.35195,15.274951,0.331925,0.1408,-0.17407499
1692523657307,-0.47295,1.9879501,14.34195,0.3471875,0.108075,-0.0177375
1692523657335,-1.416,2.5129502,14.371051,0.31707498,0.0554125,0.1441
1692523657361,-0.96105003,2.11305,14.916,0.2805,0.012375,0.2550625
1692523657388,-0.075,1.2559501,15.285001,0.2792625,0.048675,0.027224999
1692523657415,-0.15900001,1.2580501,13.686001,0.2728,0.0807125,-0.1436875
1692523657443,-0.513,1.35195,12.870001,0.22055,0.07645,-0.1731125
1692523657471,-0.018000001,0.46395,14.268001,0.055825,0.0105875,0.071225
1692523657496,0.36900002,-0.12705001,14.493001,-0.0045375,-0.0154,0.16115
1692523657524,-0.72195005,0.22200002,13.300951,-0.0704,-0.036025,0.2080375
1692523657551,-1.4110501,0.19305001,12.274051,-0.2635875,-0.0754875,0.3023625
1692523657577,-0.98505,-0.282,12.517951,-0.3331625,-0.06545,0.257675
1692523657604,-0.147,-1.26405,13.33695,-0.355575,-0.014575,0.078925
1692523657631,-0.61605,-1.4070001,12.903001,-0.37895,0.1062875,-0.3133625
1692523657658,-0.82005006,-1.1730001,12.163951,-0.37895,0.1062875,-0.3133625
1692523657688,-0.73395,0.753,7.9459505,-0.5220875,0.0782375,-0.19373749
1692523657714,0.060000002,0.80595005,9.052051,-0.5291,0.0661375,-0.0532125
1692523657744,0.95100003,-0.117000006,10.60995,-0.4008125,0.087175,-0.133925
1692523657770,0.84495,-0.23700002,9.471001,-0.085525,0.020075,-0.16555
1692523657796,0.036000002,-0.186,8.169001,-0.0257125,-0.0961125,0.041525
1692523657823,-0.98505,0.069000006,7.9150505,-0.034925,-0.22165,0.2825625
1692523657850,-1.5109501,0.28905,7.6780505,-0.0919875,-0.275275,0.34925
1692523657876,-0.29805002,-0.36405003,7.1370006,-0.0922625,-0.168025,0.14465
1692523657905,1.14495,-1.24695,6.91905,-0.0743875,-0.018424999,-0.1375
1692523657932,1.07505,-1.08405,6.0600004,-0.0963875,0.122925,-0.4959625
1692523657959,-0.22605,-0.10305001,5.8780503,-0.198,0.014162499,-0.3465
1692523657987,-1.4970001,0.89505005,5.94495,-0.410025,-0.3128125,0.2712875
1692523658012,-0.94200003,0.85395,4.92495,-0.37895,-0.31625,0.2833875
1692523658041,0.01905,0.53805,4.09695,-0.226325,-0.1640375,-0.0251625
1692523658068,0.402,0.042000003,5.8999505,0.2003375,0.2182125,-0.73645
1692523658094,-1.2030001,0.59505004,5.8780503,0.3229875,0.2486,-0.74635
1692523658121,-2.43105,0.77205,6.2080503,0.353375,0.18053749,-0.597575
1692523658148,0.108,-0.75105006,8.949,0.33055,0.2044625,-0.595925
1692523658176,0.83805007,-0.90705,9.801001,0.33165,0.353925,-0.77935
1692523658204,0.47205,-0.15300001,8.868,0.26221249,0.4092,-0.80795
1692523658231,0.558,-0.29700002,9.430051,-0.125675,-0.0187,-0.0545875
1692523658258,0.35895002,-0.27495003,10.29705,-0.2503875,-0.2629,0.3972375
1692523658286,-0.777,0.29595003,10.07205,-0.2728,-0.3971,0.6840625
1692523658313,-1.02795,0.48795003,9.78195,-0.18727499,-0.382525,0.7495125
1692523658339,-0.53205,0.16395001,10.206,-0.114125,-0.2501125,0.5559125
1692523658366,-0.16605,0.18405001,10.46205,0.062425,0.087175,0.0353375
1692523658393,-0.24000001,0.31500003,10.014001,0.111375,0.1676125,-0.091437496
1692523658420,-0.36705002,0.363,10.1320505,0.1208625,0.1687125,-0.1018875
1692523658448,-0.09195001,0.109050006,9.889951,0.109175,0.086899996,-0.01485
1692523658475,0.04095,-0.22005,10.098001,0.1071125,0.05775,0.0160875
1692523658502,0.30405003,-0.44505003,9.63405,0.091575,0.031625,0.0572
1692523658529,0.14400001,-0.27705002,9.93795,-0.00605,-0.0427625,0.204325
1692523658556,-0.14205001,0.042000003,9.78705,-0.0697125,-0.08855,0.289025
1692523658583,-0.19005,0.27195,9.468,-0.11825,-0.126775,0.342925
1692523658610,-0.15405001,0.411,9.00405,-0.111375,-0.121,0.221925
1692523658636,-0.3,0.41295,8.887051,-0.0594,-0.0814,0.0790625
1692523658666,-0.41295,0.16395001,9.523951,0.0042625,-0.0405625,-0.05115
1692523658693,-0.33600003,0.057000004,9.021001,0.099275,0.0265375,-0.2074875
1692523658720,-0.53505003,0.022950001,8.78205,0.1079375,0.05775,-0.243925
1692523658747,-0.78900003,0.16395001,8.764951,0.0658625,0.10615,-0.28105
1692523658774,-0.62295,0.126,8.443951,0.042625,0.1280125,-0.29273748
1692523658801,-0.147,-0.08595,8.118,0.0281875,0.1544125,-0.29095
1692523658828,-0.15705001,-0.16695,8.001,0.00825,0.175175,-0.186725
1692523658855,-0.01305,-0.18405001,7.3759503,-0.0119624995,0.1412125,-0.0801625
1692523658882,0.10305001,-0.08595,6.4450502,-0.0407,0.084975,0.0352
1692523658908,0.07005,-0.27,6.19605,-0.087037496,-0.03025,0.18727499
1692523658938,-0.372,-0.32805002,6.0670505,-0.0941875,-0.0774125,0.199375
1692523658965,-0.63105005,-0.34005,5.538,-0.1126125,-0.11605,0.133375
1692523658992,-0.16905001,-0.64395005,5.682,-0.1324125,-0.078925,0.05775
1692523659020,0.38805002,-0.88095003,6.1579504,-0.15675,-0.012375,-0.0356125
1692523659048,0.003,-0.38295,6.7780504,-0.24419999,0.0496375,-0.0760375
1692523659074,-0.9990001,0.38505003,6.0529504,-0.30085,-0.0022,0.034649998
1692523659103,-0.67800003,0.291,6.26805,-0.3179,-0.0622875,0.14685
1692523659131,0.37395,-0.079050004,7.7689505,-0.12045,0.01705,-0.039049998
1692523659157,0.40500003,0.040050004,9.658051,0.02915,0.1078,-0.2498375
1692523659184,-0.37395,0.591,8.797951,0.132,0.117975,-0.3273875
1692523659211,-0.79605,0.72195005,9.1380005,0.18933749,-0.0757625,-0.0864875
1692523659239,0.37395,0.018000001,11.47395,0.2222,-0.1188,-0.01265
1692523659268,0.59595,-0.354,13.03995,0.2981,-0.044,0.0154
1692523659294,-0.31905,0.25095,11.875951,0.2624875,-0.0587125,0.1128875
1692523659322,-0.3,0.53295004,11.494051,0.1791625,-0.12375,0.2366375
1692523659352,0.21105,0.52095,12.204,0.0639375,-0.155925,0.25025
1692523659372,-0.216,0.72,12.634951,0.0713625,-0.099825,0.154275
1692523659403,-0.74805003,0.97395,12.625951,0.1023,-0.0539,0.0903375
1692523659430,-0.16905001,0.45195,12.286051,0.1783375,-0.0044,0.0642125
1692523659457,0.35895002,0.010950001,12.9199505,0.2035,0.0325875,0.0411125
1692523659484,0.46005002,0.15495001,13.273951,0.1970375,0.0600875,0.058849998
1692523659510,0.18705001,0.62595004,12.8869505,0.0836,0.0028875,0.3482875
1692523659539,-0.57105005,1.24605,12.70905,0.0243375,-0.0554125,0.5097125
1692523659565,-0.216,0.91605,13.447051,0.003575,-0.09185,0.5704875
1692523659591,0.20895001,0.73905003,14.137951,0.0801625,-0.0485375,0.375375
1692523659620,0.28005,0.73695004,14.775001,0.1241625,-0.0072875,0.2701875
1692523659642,0.11505,0.67695004,15.28995,0.1392875,0.010175,0.24035
1692523659673,0.015000001,0.58605003,15.477001,0.1023,-0.0213125,0.25575
1692523659699,-0.252,0.62205005,15.028951,0.073699996,-0.0385,0.2286625
1692523659725,-0.50100005,0.279,15.022051,0.025024999,-0.0336875,0.1907125
1692523659756,-0.53205,-0.069000006,14.767951,0.0048125,-0.0125124995,0.1566125
1692523659783,-0.11100001,-0.117000006,14.206051,-0.0204875,0.017875,0.0803
1692523659810,-0.43005002,-0.093,13.272,-0.1012,0.0741125,-0.117837496
1692523659837,-1.107,-0.33705002,13.593,-0.141625,0.08305,-0.20295
1692523659864,-1.1020501,-0.75105006,13.329,-0.1683,0.086075,-0.278575
1692523659891,-0.62595004,-0.84195006,13.087951,-0.185075,0.1023,-0.340175
1692523659918,-0.40605003,-0.49500003,11.491051,-0.2327875,0.18259999,-0.40974998
1692523659945,-0.89895004,-0.11895001,10.816051,-0.2641375,0.2003375,-0.4235
1692523659971,0.012,-0.78705,11.616,-0.274725,0.151525,-0.461725
1692523660001,0.20595,-0.768,12.40095,-0.247225,0.1172875,-0.44935
1692523660027,-1.095,-0.22905001,11.677951,-0.20625,0.032725,-0.2360875
1692523660054,-1.5330001,-0.27495003,11.494051,-0.1975875,-0.0105875,-0.1104125
1692523660082,-0.55200005,-0.62700003,10.651051,-0.1747625,-0.0122375,-0.0726
1692523660108,0.28305,-0.69900006,9.14505,-0.099,0.1258125,-0.27101249
1692523660134,0.79005,-0.86895007,7.5150003,-0.0807125,0.168025,-0.3425125
1692523660161,0.81900007,-1.02195,6.71295,-0.08745,0.134475,-0.306625
1692523660190,0.22305001,-0.89505005,6.78,-0.1643125,-0.1010625,0.0446875
1692523660220,-0.25695002,-0.50505,6.5269504,-0.217525,-0.2270125,0.2552
1692523660248,-0.09,-0.31995,4.1950502,-0.2567125,-0.298375,0.3612125
1692523660278,-1.23105,-0.34695002,4.947,-0.2424125,-0.2195875,0.142175
1692523660306,-0.762,-0.64095,6.4620004,-0.2019875,-0.114675,-0.064899996
1692523660336,-0.22605,-0.59295005,6.1770005,-0.1326875,0.1632125,-0.45374998
1692523660364,0.36405003,-0.64605004,5.4690003,-0.1183875,0.280775,-0.5412
1692523660396,-0.18105,-0.33495003,4.866,-0.12773749,0.24805,-0.3518625
1692523660425,-1.0540501,0.24105,5.20095,-0.13915,0.12045,-0.1505625
1692523660478,0.53895,-1.05795,8.98995,0.0237875,0.0831875,-0.0906125
1692523660531,1.4800501,0.08295,8.578051,0.113025,0.0691625,-0.07315
1692523660573,0.38595003,0.648,8.7619505,-0.006875,-0.5501375,0.817575
1692523660619,-0.76005006,0.55695003,9.47805,0.2410375,-0.77605,1.0428
1692523660665,-0.079950005,-0.48795003,10.990951,0.463925,-0.4214375,0.383075
1692523660724,-0.38205,0.49500003,10.644,0.3133625,0.14245,-0.406175
1692523660790,0.57705003,0.30795002,9.406051,0.132,0.12045,-0.2844875
1692523660826,0.90300006,-0.33705002,10.6699505,0.2014375,0.123475,-0.239525
1692523660926,0.108,0.26295,9.954,-4.125E-4,-0.1672,0.29755
1692523660960,0.13395001,0.23400001,9.222,0.020075,-0.120725,0.26125
1692523660996,0.20400001,0.37695003,8.96805,0.0543125,-0.050325,0.079475
1692523661026,0.24705002,0.423,9.271951,0.056375,-0.03025,-0.041525
1692523661054,0.12195001,0.47100002,8.66895,0.0647625,-0.013475,-0.1056
1692523661142,-0.28395,0.29895002,7.83405,0.1307625,0.00935,-0.2332
1692523661188,-0.066,-0.028050002,7.5130506,0.1408,0.136675,-0.37015
1692523661211,0.108,-0.033,7.5370502,0.09625,0.1478125,-0.341825
1692523661241,0.37905002,-0.13095,7.4340005,0.0323125,0.1285625,-0.320925
1692523661275,0.41400003,-0.20295002,7.2349505,-0.0911625,0.04015,-0.2512125
1692523661315,-0.36,0.16395001,5.907,-0.174625,-0.0853875,-0.0570625
1692523661346,-0.48705003,0.010950001,5.02605,-0.18053749,-0.111237496,-0.1368125
1692523661374,0.075,-0.42105,5.61705,-0.1491875,-0.0345125,-0.297825
1692523661401,0.39105,-0.675,6.1800003,-0.1159125,0.071225,-0.4279
1692523661430,-0.06105,-0.53595,6.6319504,-0.1549625,0.13475,-0.32381248
1692523661484,-0.31905,-0.12195001,5.6670003,-0.297275,0.00275,-0.014025
1692523661522,-0.11595,0.26295,8.32905,-0.2690875,0.060775,-0.115637496
1692523661547,-1.07595,0.73200005,9.02595,-0.2011625,0.122375,-0.185625
1692523661572,-1.12395,0.58095,10.234051,-0.03025,0.14973749,-0.126775
1692523661607,0.01905,0.022950001,10.6699505,0.099275,0.1904375,-0.193875
1692523661652,-0.23595001,0.064050004,11.934001,0.2655125,0.230175,-0.28545
1692523661675,-1.08105,0.36105,12.22605,0.1766875,0.09075,-0.0015125
1692523661721,-0.19500001,-0.009000001,13.66005,0.043725,-0.0719125,0.34155
1692523661803,-1.2529501,1.26795,12.682951,0.0292875,0.0325875,0.2299
1692523661894,-0.93900007,1.455,12.465,0.2842125,0.1533125,-0.044275
1692523661927,0.41205,1.2270001,13.39395,0.2728,0.1225125,-0.0089375
1692523661950,1.0819501,1.2030001,13.33905,0.22893749,0.051975,0.163075
1692523661973,-0.71400005,2.21295,14.368051,0.214775,-0.0037125,0.3268375
1692523662004,-2.5410001,2.436,15.559951,0.208175,-0.0754875,0.5405125
1692523662029,-1.8030001,1.70595,15.0720005,0.27115,-0.092125,0.6400625
1692523662066,0.22095,0.56895,14.458951,0.36107498,0.141075,0.013612499
1692523662098,0.192,0.15,14.60805,0.31515,0.1991,-0.1876875
1692523662124,-0.564,-0.17205001,14.742001,0.1984125,0.1621125,-0.145475
1692523662160,-0.90795004,-0.261,14.349001,-0.094875,-0.0224125,0.3122625
1692523662218,-1.59,-0.43305,12.432,-0.3510375,-0.0099,0.363275
1692523662264,-0.20205002,-1.3570501,13.35105,-0.3557125,0.08415,0.0968
1692523662301,-0.46500003,-0.67905,12.316951,-0.3540625,0.1452,-0.230725
1692523662341,-2.601,-0.049950004,10.89,-0.4351875,0.065175,-0.16775
1692523662376,0.453,-1.09095,9.7890005,-0.3674,0.0840125,-0.238425
1692523662416,-1.332,-1.0390501,11.379001,-0.1984125,0.251625,-0.70675
1692523662500,0.096,-2.11095,7.7089505,-0.2893,0.1857625,-0.664125
1692523662539,-1.28205,-1.43295,7.93695,-0.3917375,0.20735,-0.58547497
1692523662584,-0.06105,-0.57195,4.8180003,-0.5561875,0.016775,0.0424875
1692523662622,0.97005004,-0.31800002,3.8749502,-0.4932125,0.042625,0.05775
1692523662663,-0.058050003,0.054,5.2530003,-0.3067625,-0.0026125,0.124437496
1692523662711,0.82605004,-0.75795,6.93795,0.012925,-0.35805,0.4769875
1692523662789,-1.7700001,0.14295001,7.6039505,0.11055,-0.4879875,0.436975
1692523662830,-1.0180501,-1.25205,9.01395,0.1287,-0.3282125,0.206525
1692523662879,-0.102000006,-1.1370001,8.31495,0.217525,0.4378,-0.6733375
1692523662932,0.051000003,-1.074,10.075951,-0.04895,0.3306875,-0.60995
1692523662997,-0.60195005,-0.60105,8.767051,-0.16733749,-0.2338875,0.1533125
1692523663050,-0.51105005,-0.47100002,10.219951,-0.012925,-0.0834625,-0.014712499
1692523663084,-0.087000005,-0.37095,9.64605,0.0946,0.010175,-0.0946
1692523663126,0.028950002,-0.19395001,9.801001,0.1511125,-0.1067,0.1441
1692523663176,-0.20700002,-0.42795002,10.347,0.164725,-0.2088625,0.252175
1692523663229,-0.40800002,-0.079050004,9.739051,0.156475,-0.243375,0.224125
1692523663266,-0.264,0.126,9.361051,0.1428625,-0.1236125,0.113575
1692523663368,-0.13005,-0.20595,8.920051,0.167475,-0.0724625,0.2206875
1692523663409,-0.33105,0.081,8.70705,0.082499996,-0.0803,0.3667125
1692523663452,-0.31905,-0.036000002,8.72595,0.0611875,-0.05555,0.2943875
1692523663487,-0.26205,-0.076050006,8.343,0.09405,-0.0061875,0.11605
1692523663530,-0.68100005,0.11400001,7.8120003,0.0922625,0.022,0.007425
1692523663566,-0.35295,-0.19095,7.635,0.0862125,0.037125,-0.034649998
1692523663594,-0.06795,-0.177,7.0720506,0.0836,0.0961125,-0.1846625
1692523663616,-0.19500001,0.022950001,6.1390505,0.069575,0.1065625,-0.2536875
1692523663654,-0.64500004,0.19605,5.4090004,0.022275,0.046475,-0.2407625
1692523663685,-0.52500004,0.069000006,5.29605,0.02255,0.02805,-0.22165
1692523663715,-0.11805001,-0.34695002,6.0859504,0.071775,0.10505,-0.279675
1692523663766,-0.20700002,-0.35205,5.9430003,0.005775,0.1150875,-0.1423125
1692523663830,-0.46500003,-0.23400001,8.03895,-0.1423125,-0.0100375,-0.1428625
1692523663849,-0.38205,-0.31995,8.248051,-0.11385,0.0180125,-0.189475
1692523663877,-0.915,-0.072000004,9.97395,-0.067375,0.054725,-0.2039125
1692523663920,-0.89895004,-0.18405001,9.64995,-0.007425,0.0922625,-0.226325
1692523663962,0.55305004,-0.73005,11.910001,0.051975,0.157575,-0.37565
1692523663997,0.18195,-0.045,11.215951,0.0372625,0.1120625,-0.2761
1692523664034,-0.62595004,0.36795002,12.12495,-0.0605,-0.1912625,0.3058
1692523664119,-0.564,0.44505003,14.191051,0.10945,-0.1824625,0.4173125
1692523664134,-1.167,0.62205005,13.911,0.097625,-0.18315,0.443575
1692523664159,-0.80505,0.38205,12.583051,0.0694375,-0.195525,0.47905
1692523664215,-1.2100501,1.27005,13.82505,0.1313125,-0.053625,0.4360125
1692523664234,-1.9260001,1.9410001,13.05195,0.1755875,0.0011,0.419925
1692523664304,-0.11400001,1.7080501,16.137001,0.394075,0.159225,0.093637496
1692523664314,-0.13305001,1.5840001,15.795001,0.4800125,0.20899999,-0.0361625
1692523664357,0.273,1.7080501,15.594001,0.5009125,0.151525,0.0891
1692523664393,0.24195,1.6150501,16.269001,0.4349125,0.0628375,0.2600125
1692523664420,-0.71400005,0.753,14.6629505,0.2871,-0.09295,0.473275
1692523664457,-0.87000006,0.33195,12.21195,0.163075,-0.1395625,0.4706625
1692523664481,-1.0540501,0.32505003,13.35105,0.091299996,-0.10395,0.3733125
1692523664508,-1.26195,0.43695003,11.58705,-0.0631125,0.0191125,0.14245
1692523664538,-0.513,0.040050004,10.512,-0.116325,0.0757625,0.0281875
1692523664563,0.79695004,-1.3260001,12.802951,-0.1549625,0.149325,-0.215325
1692523664595,0.78105,-2.0389502,15.418951,-0.1832875,0.130625,-0.23333749
1692523664626,-0.65895003,-1.5700501,13.933051,-0.4192375,-0.066,0.161425
1692523664663,-1.03005,-1.6969501,12.55605,-0.5823125,-0.168575,0.404525
1692523664691,-1.50405,-0.96195006,9.33405,-0.7255875,-0.1450625,0.3419625
1692523664712,-0.82905006,-0.29895002,5.84205,-0.7011125,-0.040425,0.0782375
1692523664750,0.24900001,-1.14405,7.8580503,-0.5429875,0.1582625,-0.422125
1692523664776,-2.0359502,-1.25205,11.958,-0.4456375,0.168025,-0.4536125
1692523664800,-1.7989501,-0.75600004,11.488951,-0.378125,0.1126125,-0.32725
1692523664830,0.38295,-0.71505004,6.9859505,-0.3136375,0.113025,-0.2959
1692523664861,1.25205,-0.67200005,4.4440503,-0.2633125,0.1934625,-0.4723125
1692523664898,0.80700004,-0.708,4.1470504,-0.177375,0.073699996,-0.40865
1692523664933,0.67095006,-0.40395,5.301,-0.18205,-0.3334375,0.08745
1692523664959,-0.33600003,0.078,5.754,-0.1929125,-0.476575,0.253275
1692523665010,-0.46095002,0.47595003,4.3390503,-0.0356125,-0.4016375,0.0655875
1692523665029,-0.36195,0.279,5.81295,0.0873125,-0.2006125,-0.240625
1692523665048,-0.28395,-0.08295,7.8430505,0.2035,0.016224999,-0.564025
1692523665073,-0.717,-0.31995,9.253051,0.2935625,0.1815,-0.810975
1692523665097,-1.2739501,-0.64095,9.61695,0.348425,0.272525,-0.945725
1692523665143,0.89100003,-1.24395,9.379951,0.3113,0.3452625,-1.0283625
1692523665169,1.56105,-1.3429501,10.07205,0.219175,0.374,-1.0533875
1692523665203,-0.022950001,-0.14595,8.27595,-0.047575,0.203775,-0.7783875
1692523665228,-0.46095002,-0.19395001,8.52105,-0.2162875,-0.242275,-0.0765875
1692523665269,-0.47505003,-0.88095003,10.906951,-0.0771375,-0.27225,0.1120625
1692523665295,-1.0710001,-0.41595003,10.38,0.0017875,-0.154825,0.033
1692523665324,-0.010950001,-0.46605003,9.63105,0.016224999,0.0609125,-0.131175
1692523665363,0.651,-0.70305,9.291,0.0235125,0.154,-0.2432375
1692523665413,0.34500003,-0.84705,10.146001,0.032449998,0.098175,-0.19607499
1692523665439,0.33495003,-0.897,10.201051,-0.010175,-0.1398375,0.13915
1692523665457,0.38295,-0.76305,9.777,-0.04235,-0.21945,0.3058
1692523665494,0.06705,-0.27705002,9.330001,-0.083325,-0.242275,0.4244625
1692523665515,0.321,-0.31095,9.430051,-0.08195,-0.224125,0.436425
1692523665553,0.14400001,-0.16695,9.556951,-0.012375,-0.1662375,0.44935
1692523665598,0.261,-0.32805002,9.59805,0.0902,-0.10615,0.360525
1692523665639,0.30705002,-0.45705003,9.739051,0.1442375,-0.0746625,0.263725
1692523665674,0.14595,-0.19095,9.507001,0.131725,-0.06655,0.220825
1692523665705,-0.043950003,-0.10305001,9.082951,0.10065,-0.0584375,0.19415
1692523665740,-0.15405001,-0.064050004,9.01395,0.0994125,-0.0419375,0.1742125
1692523665755,-0.049050003,-0.19605,8.84895,0.10725,-0.0154,0.1447875
1692523665770,-0.01305,-0.186,8.70495,0.117837496,0.0177375,0.102575
1692523665792,-0.10395,-0.24405001,8.571,0.1255375,0.050325,0.0518375
1692523665813,-0.21195,-0.12900001,8.146951,0.1255375,0.0749375,0.0056375
1692523665843,-0.384,-0.22500001,7.4719505,0.098725,0.1018875,-0.052525
1692523665873,-0.264,-0.47595003,7.4359503,0.0803,0.117975,-0.07755
1692523665905,-0.19305001,-0.59595,7.1080503,0.059675,0.138875,-0.1005125
1692523665938,0.13905,-0.74895006,7.0290003,-0.013612499,0.1643125,-0.1056
1692523665973,-0.015000001,-0.483,6.1990504,-0.113575,0.1233375,-0.0237875
1692523666006,-0.20700002,-0.294,6.426,-0.1494625,0.0757625,0.0543125
1692523666027,-0.20895001,-0.37995002,6.64905,-0.1678875,-0.0086624995,0.165825
1692523666051,-0.00795,-0.51900005,6.0739503,-0.1678875,-0.0086624995,0.165825
1692523666082,-0.079950005,-0.31800002,5.1480002,-0.116325,0.0171875,0.0504625
1692523666113,-0.666,-0.55305004,6.7330503,-0.0814,0.0559625,-0.0804375
1692523666138,-0.76500005,-0.94500005,9.564,-0.0801625,0.0642125,-0.071775
1692523666171,-0.13995,-0.89295006,8.214001,-0.0930875,0.1518,-0.0985875
1692523666196,-0.73800004,-0.46905002,8.442,-0.1249875,0.2222,-0.1876875
1692523666230,-0.68100005,-0.15,9.556951,-0.1667875,0.2649625,-0.2223375
1692523666257,-0.79800004,-0.094950005,10.55805,-0.1263625,0.2473625,-0.1128875
1692523666284,-0.68100005,-0.36405003,9.868051,-0.0493625,0.2332,0.0111375
1692523666316,-0.24495001,-0.39705002,10.774951,0.113575,0.2066625,0.09405
1692523666344,-0.76695,-0.30405003,12.492001,0.162525,0.1302125,0.0925375
1692523666374,-0.76500005,0.112050004,12.633,0.15675,0.0743875,0.1375
1692523666397,-0.726,0.231,12.208951,0.160875,0.0279125,0.183425
1692523666424,-0.24000001,-0.23700002,11.72805,0.1832875,0.005225,0.2129875
1692523666453,0.31605002,-0.68700004,11.613001,0.234575,-2.75E-4,0.291225
1692523666479,-1.9660501,-0.093,14.566951,0.22055,-0.022824999,0.36245
1692523666508,-0.65895003,-0.30600002,14.517001,0.1258125,-0.0738375,0.3212
1692523666536,0.076950006,0.15195,13.387051,0.094875,-0.042625,0.1255375
1692523666567,0.69195,0.88500005,14.380051,0.0886875,0.0158125,-0.134475
1692523666595,-0.08505,1.45905,15.811951,0.106837496,-0.04895,0.0155375
1692523666620,-0.37905002,2.283,15.016951,0.15345,-0.151525,0.275
1692523666647,-0.46500003,2.59395,14.887951,0.335225,-0.2534125,0.5303375
1692523666675,0.28995,0.89205,17.299952,0.442475,-0.22495,0.4283125
1692523666703,1.743,-1.23705,19.171951,0.558525,-0.135025,0.111237496
1692523666730,0.54405004,-1.182,17.362951,0.4728625,-0.13805,0.076175
1692523666758,-0.91800004,-1.077,16.764,0.2721125,-0.1793,0.15675
1692523666790,0.18,-1.43805,16.872002,-0.180675,-0.2107875,0.31625
1692523666816,0.27795002,-1.4290501,16.365002,-0.3135,-0.154,0.2519
1692523666843,-0.26700002,-0.66300005,12.990001,-0.3905,-0.0906125,0.150975
1692523666880,-0.030000001,-0.73905003,10.998,-0.4384875,-0.042075,0.0213125
1692523666907,0.537,-1.04595,10.846951,-0.3586,-0.0067375,-0.2464
1692523666934,-0.77205,-1.0170001,12.111001,-0.312125,0.004675,-0.391325
1692523666960,-1.815,-0.51000005,12.38895,-0.28655,6.875E-4,-0.4525125
1692523666988,-0.65205,-1.07895,8.743051,-0.2503875,0.0622875,-0.526625
1692523667018,0.75195,-1.9429501,8.83395,-0.21065,0.1661,-0.6835125
1692523667043,0.50295,-2.35695,11.28495,-0.1863125,0.2695,-0.8606125
1692523667073,0.132,-2.0029502,10.146001,-0.2605625,0.1758625,-0.6644
1692523667101,-0.64995,-0.84000003,6.4690504,-0.372075,0.0281875,-0.334125
1692523667129,-0.11400001,-0.507,3.8359501,-0.50105,-0.1406625,0.11385
1692523667156,1.6330501,-1.2709501,3.3360002,-0.469975,-0.1123375,0.1166
1692523667182,1.6810501,-0.88095003,3.4320002,-0.4082375,-0.0688875,0.0853875
1692523667209,-0.28800002,0.42105,3.8530502,-0.3394875,-0.2393875,0.39627498
1692523667240,-1.84395,1.00695,4.602,-0.2996125,-0.4307875,0.6771875
1692523667266,-0.89895004,0.35805002,4.5540004,-0.1816375,-0.4943125,0.73356247
1692523667295,0.513,-0.85200006,4.6519504,0.2633125,0.0331375,-0.1606
1692523667324,0.62700003,-0.82095003,4.8300004,0.436975,0.339625,-0.64955
1692523667349,0.18195,0.064050004,5.787,0.3235375,0.2981,-0.6281
1692523667377,-0.60195005,0.30600002,7.1509504,0.14575,0.06325,-0.2855875
1692523667405,-1.0900501,-0.49500003,9.571051,0.093225,-0.15785,0.11275
1692523667433,0.07005,-0.897,10.41195,0.1991,-0.0452375,0.0155375
1692523667461,1.0320001,-0.16005,9.253051,0.2655125,0.123475,-0.1656875
1692523667488,0.70395005,0.61695004,7.9960504,0.1764125,0.1623875,-0.169125
1692523667516,0.072000004,0.813,8.118,0.14355,-0.010175,0.0661375
1692523667543,-0.35505003,0.13605,9.78195,0.30635,-0.3059375,0.4112625
1692523667571,-0.18495001,-0.162,10.9140005,0.420475,-0.2937,0.3559875
1692523667599,0.15105,-0.22500001,10.2630005,0.46695,-0.1959375,0.2055625
1692523667627,0.12705001,0.081,9.648001,0.422125,-0.0807125,0.0669625
1692523667655,0.28305,0.21000001,9.21,0.21133749,0.016775,0.0248875
1692523667684,0.55095005,-0.03795,9.50205,0.1425875,0.0059125,0.0715
1692523667711,0.57195,-0.39000002,10.033051,0.1071125,-0.0468875,0.19525
1692523667743,0.43095002,-0.53595,10.17,0.092675,-0.0842875,0.279675
1692523667770,0.50100005,-0.49005002,10.030951,-0.00825,-0.149875,0.4318875
1692523667797,0.25605002,-0.124050006,9.8869505,-0.0726,-0.15785,0.4846875
1692523667823,-0.13305001,0.15,9.74895,-0.11825,-0.14973749,0.517275
1692523667854,-0.18795002,0.246,9.588,-0.1122,-0.091437496,0.384725
1692523667880,0.031050002,0.16695,9.624001,-0.0633875,-0.033275,0.188375
1692523667907,0.01905,0.186,9.733951,0.0565125,0.0881375,-0.1335125
1692523667936,0.177,0.13305001,9.708,0.094875,0.1128875,-0.138325
1692523667965,0.08205,0.14295001,9.772051,0.1155,0.0983125,0.011825
1692523667992,-0.027,0.081,9.733951,0.1111,0.0831875,0.0966625
1692523668021,0.031050002,0.025950002,9.97395,0.102575,0.07095,0.1720125
1692523668046,-0.09900001,0.08295,9.684,0.0906125,0.0631125,0.209825
1692523668075,-0.10395,0.19305001,9.295951,0.062975,0.0605,0.15565
1692523668107,-0.312,0.24795002,9.294001,0.049225,0.07425,0.11495
1692523668127,-0.291,0.27705002,9.238951,0.049225,0.07425,0.11495
1692523668158,0.120000005,0.094950005,8.69505,0.061049998,0.10615,0.0862125
1692523668189,0.35505003,0.040050004,8.98305,0.07315,0.11495,0.0345125
1692523668219,0.08400001,0.0139500005,9.327001,0.0650375,0.0845625,0.0460625
1692523668247,-0.31500003,0.14505,8.071051,0.0243375,-0.01375,0.14465
1692523668272,-0.264,-0.049950004,6.9340506,0.006325,-0.035475,0.1445125
1692523668298,-0.09,-0.18900001,6.72795,-0.0056375,-0.0207625,0.0713625
1692523668328,-0.00795,-0.45405003,7.1850004,-0.0314875,0.050049998,-0.137225
1692523668354,-0.15705001,-0.25800002,6.3229504,-0.062975,0.0578875,-0.19305
1692523668383,-0.21900001,-0.11505,4.71,-0.1079375,0.0429,-0.2145
1692523668411,-0.33900002,-0.117000006,4.3819504,-0.150975,0.0257125,-0.2118875
1692523668438,-0.291,-0.507,4.722,-0.166375,0.044275,-0.17847499
1692523668464,0.08205,-0.73695004,5.5669503,-0.147125,0.0792,-0.20405
1692523668494,0.381,-0.744,5.41095,-0.1667875,0.141075,-0.393525
1692523668519,-0.078,-0.36795002,5.052,-0.2250875,0.1241625,-0.4373875
1692523668548,-0.34095,-0.40395,6.852,-0.333025,-0.0023375,-0.2319625
1692523668578,-0.094050005,-0.58395004,8.566051,-0.3311,-0.0350625,-0.1192125
1692523668603,-0.11400001,-0.41595003,8.51595,-0.29205,-0.02255,-0.0906125
1692523668632,-0.45105,-0.060000002,10.407001,-0.18205,0.0229625,-0.108899996
1692523668662,0.024,-0.31095,11.23005,-0.1214125,0.0253,-0.0600875
1692523668684,-0.31905,-0.17895001,11.22105,-0.045649998,0.030524999,-0.0122375
1692523668716,-0.882,0.11895001,12.25905,0.109037496,0.0537625,-0.0163625
1692523668743,-0.20700002,-0.32805002,12.741,0.152075,0.063525,-0.03795
1692523668773,-0.25005,-0.49005002,13.582951,0.1749,0.0977625,-0.084975
1692523668798,-0.20700002,-0.42105,13.485001,0.1590875,0.095699996,-0.0499125
1692523668825,-0.72900003,-0.30795002,13.621051,0.1236125,0.0671,0.0510125
1692523668853,-1.1020501,-0.03795,13.939951,0.049225,0.0097624995,0.2662
1692523668882,-0.57795,0.07095,13.653001,0.04015,0.0275,0.2778875
1692523668909,-0.32700002,0.16695,14.19795,0.052249998,0.07315,0.22659999
1692523668937,0.18,-0.12195001,15.433051,0.104225,0.1302125,0.121
1692523668964,-0.58995,0.588,14.457001,0.1219625,0.0963875,0.1408
1692523668996,-0.64005005,1.08105,15.249001,0.1233375,-0.0389125,0.29865
1692523669031,0.21105,0.34395,16.671001,0.18205,-0.0650375,0.3889875
1692523669055,0.12705001,0.36105,16.341002,0.2322375,-0.0485375,0.3735875
1692523669081,0.273,0.39195,15.690001,0.2525875,-0.055825,0.3587375
1692523669107,0.537,0.11400001,15.474001,0.1868625,-0.125125,0.3834875
1692523669133,-0.45600003,-0.40905002,16.900951,0.1431375,-0.1516625,0.388575
1692523669157,-0.54,-1.338,18.378,0.103125,-0.1626625,0.3551625
1692523669185,-0.80295,-1.062,16.29,-0.0165,-0.1148125,0.115225
1692523669215,0.16305001,-0.87105006,13.428,-0.107525,-0.057475,-0.035475
1692523669237,0.77805007,-1.0510501,12.319051,-0.19635,-0.003025,-0.1189375
1692523669270,0.29505002,-1.24395,11.941051,-0.2880625,-0.0050875,0.054725
1692523669297,-1.014,-1.00695,13.633051,-0.2992,-0.06325,0.2616625
1692523669324,-3.426,0.36795002,13.024951,-0.304975,-0.121,0.452375
1692523669353,0.094050005,-1.02705,10.97595,-0.282975,-0.0556875,0.41525
1692523669382,1.437,-1.4170501,9.366,-0.2319625,0.087037496,0.1351625
1692523669408,1.38405,-1.5600001,8.18505,-0.14795,0.204325,-0.295625
1692523669437,0.108,-1.28295,10.002001,-0.1804,0.05775,-0.168025
1692523669467,-0.74505,-0.36600003,6.9259505,-0.2921875,-0.2800875,0.32175
1692523669494,-1.22895,-0.057000004,3.48705,-0.3012625,-0.2941125,0.379775
1692523669522,-0.13305001,-0.97605,1.43805,-0.2662,-0.1936,0.2712875
1692523669550,1.14195,-1.90005,3.3379502,-0.1423125,0.1475375,-0.205425
1692523669585,0.156,-1.3230001,6.50505,-0.2525875,0.1827375,-0.2338875
1692523669609,-1.6789501,-0.29700002,6.3690004,-0.41415,0.0077,0.04675
1692523669635,-0.97005004,-0.13095,4.5160503,-0.5242875,-0.14739999,0.261525
1692523669661,0.71805006,-0.624,3.11595,-0.4967875,-0.120037496,0.152075
1692523669690,2.1000001,-1.4290501,4.269,-0.3496625,0.07755,-0.2443375
1692523669722,0.41895002,-1.1580001,9.318001,-0.109037496,0.1892,-0.612975
1692523669753,-1.2390001,-0.84195006,6.61005,-0.2228875,-0.4961,0.290125
1692523669779,-0.27405003,-1.3879501,8.154,-0.226325,-0.6232875,0.504625
1692523669813,1.6279501,-1.24695,9.922951,-0.1199,-0.0342375,-0.144925
1692523669841,1.8870001,-0.76305,9.559051,-0.0979,0.2006125,-0.414425
1692523669868,1.125,0.19095,8.07495,-0.0242,-0.14465,-0.0196625
1692523669898,-0.41505003,0.51600003,7.9459505,0.096525,-0.452375,0.3234
1692523669924,-0.19995001,-0.39705002,9.588,0.429825,-0.5704875,0.3779875
1692523669955,0.27600002,-1.04295,11.03205,0.5471125,-0.35805,0.0757625
1692523669981,0.28305,-1.05495,10.534051,0.5743375,-0.0955625,-0.264825
1692523670009,0.37395,-0.69405,10.27995,0.35365,0.186175,-0.590975
1692523670037,0.546,-0.57195,10.504951,0.203775,0.19525,-0.59482497
1692523670064,0.33795002,-0.40905002,10.041,0.1018875,0.1722875,-0.559075
1692523670096,0.42195,-0.56205004,9.777,0.0609125,0.09955,-0.40535
1692523670121,0.71595,-0.63600004,9.82005,0.0774125,0.067925,-0.3147375
1692523670147,0.60405004,-0.43800002,9.7560005,0.0939125,0.0176,-0.137775
1692523670176,0.65595,-0.56895,9.693001,0.08855,-0.0191125,-0.0281875
1692523670205,0.63000005,-0.63600004,10.036051,0.0836,-0.0587125,0.0812625
1692523670237,0.62295,-0.49005002,9.564,0.07865,-0.1054625,0.2055625
1692523670266,0.47895002,-0.19605,9.222,0.070125,-0.1101375,0.214775
1692523670292,0.36705002,-0.10005,8.901,0.0592625,-0.0922625,0.1582625
1692523670321,0.41895002,-0.105000004,8.85105,0.0738375,-0.071775,0.102575
1692523670351,0.69405,-0.29205,8.868,0.1287,-0.0215875,-0.0015125
1692523670373,0.67095006,-0.402,8.65695,0.14575,-0.0077,-0.0284625
1692523670403,0.56505,-0.33195,8.398951,0.1452,-0.0111375,-0.0345125
1692523670432,0.177,-0.28005,7.96995,0.099825,-0.0473,-0.021724999
1692523670463,-0.06795,-0.34695002,7.8619504,0.0715,-0.0532125,-0.034649998
1692523670489,0.156,-0.483,8.10705,0.0325875,0.01375,-0.1181125
1692523670516,0.50100005,-0.67005,7.9200006,0.0171875,0.0727375,-0.1560625
1692523670544,0.50295,-0.33705002,7.1710505,-0.0023375,0.117837496,-0.1621125
1692523670573,0.14595,-0.15300001,5.85195,-0.054725,0.099825,-0.0605
1692523670599,-0.37395,-0.36105,5.2050004,-0.065175,0.0551375,0.0011
1692523670630,0.015000001,-1.0890001,5.73705,-0.036849998,0.0385,-0.0187
1692523670652,0.28995,-1.43295,6.0529504,-0.0405625,0.0801625,-0.0891
1692523670683,0.21795002,-1.5120001,6.5080504,-0.09735,0.12265,-0.1247125
1692523670713,0.120000005,-1.0699501,4.43895,-0.3598375,0.1161875,-0.00495
1692523670741,-0.03705,-1.0360501,4.20195,-0.4844125,0.0792,0.089375
1692523670770,-0.79605,-0.60795003,6.97695,-0.5652625,0.046475,0.1456125
1692523670796,0.39105,-0.37800002,6.81405,-0.53405,0.07205,0.0891
1692523670825,0.18195,-0.354,8.643001,-0.30855,0.1959375,-0.1007875
1692523670851,-0.13995,-0.531,9.0400505,-0.130625,0.2008875,-0.1034
1692523670878,0.20400001,-1.06005,11.319,0.0386375,0.14135,-0.0226875
1692523670909,0.25605002,-1.4310001,12.7240505,0.22247499,0.0462,0.09185
1692523670932,0.30195,-1.62705,13.120951,0.21505,0.037125,0.0897875
1692523670960,-0.59205,-1.39995,12.384001,0.1588125,0.0166375,0.1035375
1692523670987,-0.53505003,-1.182,12.913051,0.0820875,-0.0105875,0.14575
1692523671013,0.13905,-1.27995,13.000951,-0.02255,0.045375,0.1593625
1692523671040,0.27105,-1.4260501,13.927951,-0.0264,0.12773749,0.0895125
1692523671068,0.58395004,-1.4140501,14.48595,-0.0108624995,0.17435,0.032449998
1692523671096,-0.13995,-0.10005,12.70005,0.014162499,0.080575,0.0669625
1692523671125,-0.40095,0.531,12.56595,0.064899996,-0.0268125,0.1214125
1692523671153,-0.3,0.555,13.49505,0.14739999,-0.0276375,0.0908875
1692523671185,-0.16605,0.43500003,14.137951,0.263725,0.0078375,0.0105875
1692523671204,-0.23595001,0.708,14.446951,0.380875,0.056649998,-0.0768625
1692523671237,-1.19505,1.3279501,15.313951,0.512875,0.0991375,-0.1013375
1692523671265,-1.3630501,0.48795003,16.20195,0.5346,0.095425,-0.06765
1692523671291,0.29700002,-0.77505004,18.066,0.56168747,0.14795,-0.16733749
1692523671320,1.08,-0.80895007,16.941,0.52854997,0.2008875,-0.2781625
1692523671348,0.36705002,0.12105001,14.502001,0.2655125,0.1167375,-0.1296625
1692523671376,0.11505,-0.34905002,14.586,0.110825,-0.0240625,0.14685
1692523671409,-0.14895001,-2.1660001,16.97295,-0.0196625,-0.193325,0.48894998
1692523671437,-1.746,-1.608,16.63305,-0.051975,-0.18865,0.4500375
1692523671463,-0.109050006,-0.94305,12.717001,-0.1282875,-0.14355,0.3141875
1692523671495,-0.13005,-0.47805002,11.944051,-0.29067498,0.059675,-0.1018875
1692523671521,-0.32700002,-0.80895007,10.59105,-0.2899875,0.1357125,-0.191125
1692523671550,-0.82005006,-1.01205,12.03705,-0.1984125,0.0961125,0.0262625
1692523671577,-0.64695,-0.90900004,11.55105,-0.1632125,0.066,0.099
1692523671605,0.75195,-1.4140501,9.84405,-0.150975,0.1056,-0.0765875
1692523671633,0.07005,-1.52205,8.93505,-0.163075,0.122237496,-0.19139999
1692523671659,-0.303,-1.6510501,9.880051,-0.1868625,0.0873125,-0.2124375
1692523671688,0.24000001,-1.86405,9.35805,-0.225775,0.0144375,-0.152625
1692523671716,-0.62295,-1.1029501,4.9680004,-0.3216125,-0.0488125,-0.1142625
1692523671748,-0.022950001,-1.8000001,3.2020502,-0.3535125,-0.0149875,-0.168575
1692523671767,0.024,-2.45595,6.7180505,-0.3689125,0.02915,-0.20735
1692523671800,0.19695,-2.7640502,10.005,-0.438075,0.0759,-0.14905
1692523671826,0.16095,-1.90005,7.3240504,-0.528825,0.04235,-0.0160875
1692523671854,0.65595,-1.2589501,4.9759502,-0.6628875,-0.1087625,0.3345375
1692523671883,0.95100003,-0.97905004,3.7090502,-0.6413,-0.172975,0.4261125
1692523671911,0.91995007,-0.57900006,4.782,-0.499675,-0.3125375,0.48014998
1692523671941,0.18,-0.29205,6.1600504,-0.402325,-0.4164875,0.50765
1692523671967,0.25905,-0.924,6.9930005,-0.1412125,-0.55495,0.4676375
1692523671996,-0.44595003,-0.55695003,5.7730503,1.375E-4,-0.494175,0.3155625
1692523672022,-1.7869501,-0.423,6.10305,0.1101375,-0.3542,0.0988625
1692523672052,-2.35395,-1.02195,9.61905,0.2156,0.0543125,-0.378125
1692523672078,0.65595,-1.5840001,9.64305,0.25355,0.3757875,-0.710325
1692523672107,2.1670501,-1.16505,9.073951,0.3089625,0.951775,-1.3066624
1692523672134,1.4940001,-0.39900002,8.104051,0.267575,0.8305,-1.161875
1692523672162,0.462,0.14505,8.69295,0.1964875,0.39655,-0.6703125
1692523672191,0.22995001,-0.33705002,10.76805,0.2288,-0.4943125,0.3540625
1692523672224,0.42405003,-0.78195006,10.869,0.3411375,-0.590975,0.4662625
1692523672253,0.24705002,-0.37800002,9.954,0.4783625,-0.348425,0.2024
1692523672281,0.48105,-0.079050004,9.538051,0.450725,-0.2311375,0.11055
1692523672306,1.0180501,-0.46905002,9.66705,0.3488375,-0.1302125,0.159225
1692523672338,0.98700005,-0.55695003,10.225051,0.328625,-0.126225,0.2597375
1692523672366,0.64395005,-0.35595003,9.44205,0.2838,-0.204325,0.5520625
1692523672393,0.20595,0.022950001,9.19305,0.23773749,-0.2508,0.6567
1692523672419,0.558,-0.24900001,9.945001,0.1992375,-0.258225,0.65945
1692523672449,0.61305004,-0.12705001,9.933001,0.1959375,-0.140525,0.39627498
1692523672478,0.321,0.14805001,9.31305,0.2058375,-0.0749375,0.2399375
1692523672507,0.0049500004,0.27495003,8.941951,0.2035,-0.037125,0.122375
1692523672535,0.00795,0.13800001,9.0400505,0.20047499,0.011,-0.0386375
1692523672562,0.052950002,0.0,8.98305,0.2138125,0.0539,-0.1123375
1692523672590,-0.087000005,0.016050002,8.463,0.2233,0.1452,-0.2024
1692523672617,-0.59895,0.28695002,7.6090503,0.20295,0.1683,-0.1841125
1692523672646,-0.51795,0.13800001,7.5540004,0.1733875,0.182325,-0.1505625
1692523672676,-0.11100001,-0.34005,8.23305,0.1403875,0.2506625,-0.2806375
1692523672704,0.010050001,-0.39000002,7.5030003,0.10505,0.3064875,-0.46035
1692523672733,0.24900001,-0.32505003,7.08195,0.0504625,0.2787125,-0.3757875
1692523672759,0.097950004,0.040050004,7.17495,-0.016224999,0.2223375,-0.216425
1692523672786,-0.62295,0.33405003,5.85195,-0.0941875,0.0911625,0.020075
1692523672812,-1.04205,0.49995002,4.9450502,-0.08195,0.0521125,0.0408375
1692523672841,-0.32700002,-0.39705002,5.84205,-0.029424999,0.06765,-0.034925
1692523672870,0.80895007,-1.20105,7.9680004,0.105325,0.2666125,-0.4521
1692523672894,0.42405003,-0.79200006,7.0680003,0.089925,0.3218875,-0.582725
1692523672925,-1.35105,0.10005,5.8999505,-0.173525,0.0864875,-0.2858625
1692523672952,-0.25500003,-0.53805,8.3550005,-0.2688125,-0.0248875,-0.106837496
1692523672980,0.84105,-0.98595005,9.31995,-0.258225,0.0045375,-0.115637496
1692523673010,0.010050001,-0.124050006,8.18295,-0.153175,0.1489125,-0.3073125
1692523673043,-0.537,0.23595001,8.784,-0.16885,0.0622875,-0.18287499
1692523673072,-0.35805002,-0.15300001,9.612,-0.1065625,-0.1051875,0.117837496
1692523673099,0.333,-0.93105006,11.26605,0.0133375,-0.0598125,0.07645
1692523673129,1.1880001,-1.50495,12.19995,0.126225,0.029424999,-0.038225
1692523673157,-0.64005005,-0.31605002,11.14605,0.049225,-0.0287375,0.0587125
1692523673188,-0.77400005,0.354,10.740001,-0.152075,-0.1940125,0.3298625
1692523673217,0.402,-0.18405001,12.71205,-0.1524875,-0.1530375,0.24887499
1692523673244,0.75900006,-0.076050006,12.67605,-0.078925,-0.0367125,0.0427625
1692523673273,-0.492,1.5139501,10.43805,0.097625,0.0347875,-0.0427625
1692523673302,-0.68100005,1.14795,11.2900505,0.1507,-0.0504625,0.149875
1692523673334,0.15405001,1.0360501,12.760051,0.31185,-0.0848375,0.3210625
1692523673363,-0.726,1.4980501,14.500051,0.40974998,-0.0105875,0.2486
1692523673393,-1.1689501,2.127,15.15795,0.49513748,0.0631125,0.2215125
1692523673423,-0.3,2.055,15.079051,0.504625,0.0812625,0.202125
1692523673452,0.12195001,1.572,16.599,0.531575,0.16293749,0.0408375
1692523673478,0.78300005,1.167,17.767052,0.5207125,0.1634875,0.073975
1692523673759,1.1209501,-1.1730001,12.82005,-0.38073748,-0.0605,-0.0400125
1692523673796,-1.9350001,0.061950002,11.790001,-0.429,-0.3133625,0.3702875
1692523673825,-0.27405003,-0.402,8.24505,-0.4412375,-0.3469125,0.4250125
1692523673852,-0.351,-0.141,7.2300005,-0.3135,-0.06655,-0.093775
1692523673883,-1.21695,0.03795,6.1410003,-0.23485,0.0826375,-0.363275
1692523673907,-1.31805,-0.37305,6.4120502,-0.152625,0.1524875,-0.5643
1692523673939,0.14400001,-1.2060001,6.8710504,-0.115775,0.186175,-0.705925
1692523673976,0.711,-1.386,4.6740003,-0.093637496,0.2987875,-0.92455
1692523674009,-0.40095,-0.59295005,4.6140003,-0.2831125,0.130075,-0.4690125
1692523674028,-0.55395,-0.58395004,4.99695,-0.2831125,0.130075,-0.4690125
1692523674062,0.39795002,-1.05795,5.7010503,-0.4618625,-0.1236125,0.0842875
1692523674092,1.14195,-1.218,4.9300504,-0.4250125,-0.0779625,0.0155375
1692523674121,0.66105,-0.98100007,4.97805,-0.401775,-0.0862125,-0.002475
1692523674149,0.65895003,-0.92100006,7.0530005,-0.438075,-0.3697375,0.3774375
1692523674175,1.45305,-1.10595,7.7710505,-0.436425,-0.5038,0.5533
1692523674204,-0.324,-0.009000001,6.8620505,-0.3903625,-0.5621,0.6120125
1692523674237,-1.8870001,0.57900006,8.06295,-0.2011625,-0.5784625,0.5407875
1692523674268,-0.85800004,-0.42105,9.562051,-0.0589875,-0.44288749,0.2871
1692523674295,1.044,-1.0000501,10.054951,0.3018125,0.2833875,-0.765875
1692523674322,1.1539501,-0.65805006,9.366,0.3993,0.5418875,-1.089825
1692523674358,-0.039,0.033,8.889001,0.248325,0.2838,-0.653125
1692523674384,-0.33405003,-0.15300001,9.4470005,0.148775,-0.009625,-0.2255
1692523674414,-0.47295,-0.555,9.97395,0.15565,-0.2102375,0.0735625
1692523674443,-0.74100006,-0.64395005,10.486051,0.1915375,-0.1109625,-0.0463375
1692523674473,0.076950006,-0.71805006,11.038951,0.1533125,0.128975,-0.2695
1692523674501,0.48105,-0.61995006,10.62705,0.1018875,0.2003375,-0.2847625
1692523674530,0.48900002,-0.42600003,9.877951,0.0589875,0.2138125,-0.2358125
1692523674566,0.28005,-0.36600003,10.000051,0.0143,0.0507375,-0.0020625
1692523674594,0.393,-0.483,10.287001,0.02145,-0.12595,0.210375
1692523674625,0.38595003,-0.47595003,9.5449505,0.0374,-0.1563375,0.276375
1692523674650,0.16305001,-0.34005,9.64995,0.0496375,-0.1626625,0.3389375
1692523674683,0.036000002,-0.29700002,9.47805,0.0444125,-0.15565,0.323675
1692523674711,0.46005002,-0.615,9.871051,0.0419375,-0.1128875,0.216425
1692523674749,0.453,-0.15,8.26395,0.0408375,-0.0713625,0.14575
1692523674785,-0.00795,0.279,8.016001,0.0268125,-0.0837375,0.1595
1692523674816,-0.10395,0.38505003,7.42005,0.0400125,-0.1109625,0.1067
1692523674841,-0.23805001,0.28395,7.2970505,0.0911625,-0.0776875,0.0053625
1692523674894,-0.00795,-0.07395,6.8590503,0.23815,0.0782375,-0.2699125
1692523674915,0.063,-0.079050004,6.79995,0.2385625,0.103125,-0.3113
1692523674956,0.27105,-0.061950002,5.4540005,0.16665,0.0983125,-0.275825
1692523674980,0.21105,-0.14805001,4.971,0.1197625,0.0771375,-0.24213749
1692523675005,0.051000003,-0.186,4.9159503,0.0818125,0.048125,-0.2017125
1692523675035,0.14895001,-0.26295,5.7559505,0.023375,-0.0171875,-0.0430375
1692523675063,0.726,-1.041,7.0650005,-0.0055,-0.0320375,0.0323125
1692523675089,0.9670501,-1.17495,7.2450004,-0.0352,-0.0309375,0.069025
1692523675116,-0.21405001,-0.56205004,6.3760505,-0.16665,-0.0891,0.1885125
1692523675146,-0.37395,-0.483,6.97905,-0.27513748,-0.16775,0.331375
1692523675184,-0.13995,-0.43800002,9.733951,-0.3647875,-0.1560625,0.37867498
1692523675231,-0.753,-0.028050002,9.241051,-0.140525,0.207625,-0.197175
1692523675270,-0.291,-0.49995002,10.717951,0.031625,0.2888875,-0.3810125
1692523675308,-0.10395,-0.54300004,11.565001,0.115225,0.32945,-0.4169
1692523675358,-0.05595,-0.67695004,12.74295,0.058575,0.20047499,-0.1956625
1692523675401,-0.043950003,-0.23895001,12.528001,0.0097624995,0.0930875,-0.1546875
1692523675449,-0.40995002,0.11400001,12.148951,0.032725,-0.009625,6.875E-4
1692523675496,-0.95100003,0.70995003,12.26895,0.1423125,0.057475,-0.055
1692523675530,-0.53505003,1.2750001,13.18305,0.2470875,0.1442375,-0.19305
1692523675563,-0.975,1.593,13.641001,0.30635,0.1637625,-0.205425
1692523675600,-1.12605,1.15995,14.040001,0.4376625,0.1617,-0.0792
1692523675631,1.0390501,0.0,16.83105,0.49981248,0.16005,-0.0034375
1692523675653,0.975,0.025950002,17.403,0.4675,0.1425875,4.125E-4
1692523675682,0.09105001,0.44205,15.058051,0.372075,0.0713625,0.07645
1692523675709,0.052950002,0.93000007,15.3810005,0.0988625,-0.15015,0.4373875
1692523675736,-0.16095,0.47595003,16.40505,0.0165,-0.20253749,0.5443625
1692523675765,-1.3770001,-0.61995006,18.052052,-0.0061875,-0.2024,0.54175
1692523675795,-0.62595004,-1.9699501,15.544051,-8.25E-4,-0.125675,0.354475
1692523675824,-0.27600002,-1.4239501,12.204,-0.059675,-0.0540375,0.2184875
1692523675849,-1.4779501,-0.77505004,12.84405,-0.31239998,0.0724625,0.108075
1692523675879,-1.128,-1.2199501,13.096951,-0.413325,0.0867625,0.1511125
1692523675909,0.19695,-2.29305,13.582951,-0.4310625,0.1370875,-0.006325
1692523675932,0.89295006,-2.298,11.75895,-0.4046625,0.1758625,-0.1716
1692523675962,-0.22095,-1.4100001,11.686951,-0.4129125,0.1612875,-0.2063875
1692523675988,-1.5660001,-0.837,12.04905,-0.51315,-0.0539,0.2305875
1692523676018,-0.882,-1.2970501,10.996051,-0.51535,-0.12595,0.3641
1692523676047,0.50295,-2.26605,9.064051,-0.352,0.034375,-0.1310375
1692523676075,-0.058050003,-1.8090001,7.7380505,-0.2809125,0.128975,-0.4019125
1692523676100,-1.2430501,-1.4430001,6.9480004,-0.2784375,0.130075,-0.43559998
1692523676129,-0.573,-1.8190501,9.981001,-0.378125,0.0449625,-0.1566125
1692523676157,0.63705003,-1.9290001,8.116051,-0.39985,0.092125,-0.1720125
1692523676191,-2.5140002,0.15195,4.9560003,-0.4063125,0.1478125,-0.3056625
1692523676212,-1.899,0.0,4.092,-0.385825,0.1109625,-0.304425
1692523676248,2.4420002,-1.9099501,4.7980504,-0.1573,0.3531,-0.7090875
1692523676321,-2.7850502,1.335,5.196,-0.1824625,-0.145475,0.084425
1692523676364,0.012,-0.23400001,5.256,0.1051875,-0.1584,0.1436875
1692523676402,-1.8589501,-0.53805,7.49595,0.6494125,0.5885,-0.727375
1692523676441,-1.15995,-0.48105,6.03105,0.5897375,0.50655,-0.5754375
1692523676534,0.864,-0.117000006,9.243,-0.0188375,-0.0537625,0.260975
1692523676598,-0.75705004,-0.45195,10.31595,-0.04675,-1.095325,1.613975
1692523676634,-0.34305,-0.56205004,10.504951,0.11935,-0.73356247,0.9807875
1692523676678,0.024,-0.0139500005,9.727051,0.1346125,-0.2297625,0.214225
1692523676717,0.31395,0.15195,9.232051,0.1243,-0.0559625,0.0180125
1692523676752,0.29205,-0.11505,9.528001,0.1832875,-0.1296625,0.22275
1692523676785,0.15795001,-0.14295001,9.226951,0.2134,-0.1772375,0.3146
1692523676817,-0.39600003,0.20505,9.423,0.2226125,-0.2057,0.341275
1692523676829,-0.43695003,0.38700002,9.30795,0.1793,-0.19167499,0.24475
1692523676850,-0.22095,0.24795002,9.117001,0.1645875,-0.13585,0.13805
1692523676884,-0.279,0.09,9.361051,0.1742125,-0.0567875,0.0055
1692523676905,0.039,-0.08295,9.448951,0.205425,0.0556875,-0.164725
1692523676930,-0.109050006,0.14295001,9.592951,0.1898875,0.0666875,-0.153725
1692523676963,-0.30495003,0.36600003,9.36795,0.115225,0.0358875,0.007975
1692523676988,-0.231,0.47100002,8.700001,0.09845,0.0202125,0.0573375
1692523677014,-0.20895001,0.45195,8.06295,0.112475,0.0207625,0.01485
1692523677041,-0.22095,0.36795002,8.016001,0.14533749,0.03355,-0.092675
1692523677075,-0.018000001,0.049950004,7.8480005,0.19195,0.0518375,-0.234025
1692523677108,0.29205,-0.273,7.7089505,0.1555125,0.037125,-0.12485
1692523677136,0.32295,-0.081,6.8280005,0.100375,0.010725,-0.02035
1692523677165,0.192,-0.048,5.39505,0.031625,-0.0312125,0.0875875
1692523677194,0.055050004,-0.15300001,5.0809503,-0.0719125,-0.1266375,0.2644125
1692523677221,-0.48900002,-0.012,4.3510504,-0.0881375,-0.15125,0.3177625
1692523677254,-0.003,-0.74205005,4.8130503,-0.0908875,-0.11055,0.2682625
1692523677275,0.402,-1.00995,5.5360503,-0.0908875,-0.11055,0.2682625
1692523677307,0.46695003,-0.69600004,6.7759504,-0.219175,0.0603625,-0.204325
1692523677344,-0.76005006,0.126,5.44995,-0.4371125,-0.1480875,0.14533749
1692523677370,-0.08505,-0.30105,7.2330003,-0.423225,-0.1953875,0.269225
1692523677394,0.64395005,-0.555,8.418,-0.3158375,-0.124025,0.152075
1692523677426,0.37605003,-0.021000002,8.99895,-0.1832875,-0.0045375,-0.092125
1692523677457,-1.2940501,0.91095006,9.222,-0.038775,0.0301125,-0.2512125
1692523677514,-0.351,-0.45405003,11.505,0.117425,-0.044275,-0.2475
1692523677557,-1.2720001,-0.15300001,12.4129505,0.1656875,0.153725,-0.65505
1692523677608,-0.46500003,-0.69405,13.759951,0.0089375,0.297275,-0.7563875
1692523677713,-0.34095,0.033,13.64805,-0.0708125,0.104225,-0.183425
1692523677752,-0.35295,0.31800002,13.866001,-0.001375,0.06215,0.112475
1692523677787,-0.054,0.32505003,16.40295,0.08635,-0.0066,0.514525
1692523677802,-0.11400001,0.61005,16.348051,0.08635,-0.0066,0.514525
1692523677829,-0.252,1.07595,16.32405,0.1508375,-0.0928125,0.804925
1692523677863,-0.07005,0.75600004,16.819052,0.1813625,-0.115775,0.795025
1692523677892,0.87600005,-0.13095,17.668951,0.2487375,-0.1315875,0.6224625
1692523677912,1.33095,-0.45900002,17.7,0.254375,-0.1368125,0.5478
1692523677961,-0.81705004,-0.045,15.976951,0.1379125,-0.208725,0.58905
1692523677984,-1.437,-0.91605,16.86705,0.052525,-0.2605625,0.671
1692523678021,0.37605003,-2.19705,15.5119505,-0.059125,-0.1876875,0.4280375
1692523678062,-0.72195005,-1.4070001,12.670951,-0.1984125,0.0342375,-0.2167
1692523678090,-0.51795,-1.3039501,11.283001,-0.38334998,0.0792,-0.427075
1692523678115,0.675,-1.623,12.573001,-0.4195125,0.088825,-0.485925
1692523678146,0.55095005,-1.4290501,13.462951,-0.4158,0.114675,-0.575025
1692523678175,-0.47700003,-0.32505003,9.79605,-0.368225,0.077825,-0.530475
1692523678199,0.23505001,-0.684,7.3020005,-0.337975,-0.0022,-0.3526875
1692523678237,0.24405001,-0.90900004,8.986951,-0.234025,-0.0842875,-0.0864875
1692523678274,-0.23595001,-1.149,10.93305,-0.1775125,-0.0837375,-0.0180125
1692523678304,-0.57105005,-0.402,6.912,-0.121,-0.0935,0.11935
1692523678332,0.252,-0.48105,4.2979503,-0.1148125,-0.073699996,0.1353
1692523678365,1.02195,-0.53295004,3.34995,-0.09075,0.0471625,-0.0760375
1692523678395,0.192,-0.124050006,4.392,-0.0705375,0.002475,-0.13653749
1692523678419,-0.657,0.058950003,4.40595,-0.0727375,-0.127325,0.05775
1692523678443,-0.40995002,0.033,3.93195,-0.0584375,-0.2347125,0.2366375
1692523678479,1.02495,-1.0360501,4.32705,0.0488125,-0.147675,0.0840125
1692523678550,0.13005,-0.68895006,5.8710003,-0.148225,-0.27005,0.2030875
1692523678571,-0.33105,0.25800002,5.1460505,-0.263725,-0.4233625,0.44494998
1692523678596,-0.58695,-0.90900004,8.985001,-0.2921875,-0.4398625,0.5231875
1692523678615,-0.81705004,-0.97605,9.351001,-0.2332,-0.3059375,0.394625
1692523678665,1.6210501,-0.61695004,7.5130506,-0.046475,0.170225,-0.193875
1692523678704,1.07505,-0.10695001,8.3550005,0.0276375,0.3777125,-0.4338125
1692523678726,0.46500003,-0.036000002,9.17595,0.05115,0.193325,-0.1164625
1692523678755,-0.45105,0.291,9.67695,0.1736625,-0.402875,0.9098375
1692523678776,-0.97305006,0.26700002,9.436951,0.2644125,-0.4706625,1.0154375
1692523678808,-0.98505,0.31500003,11.314051,0.394075,-0.060775,0.2487375
1692523678848,-0.19500001,0.57405,10.43595,0.462275,0.41965,-0.5819
1692523678869,-0.40605003,0.77505004,10.617001,0.472725,0.50435,-0.741125
1692523678893,-0.432,0.59805006,10.926001,0.472725,0.50435,-0.741125
1692523678919,-0.066,0.31500003,10.30605,0.4580125,0.396,-0.6502375
1692523678950,0.192,0.028050002,9.373051,0.4015,0.2316875,-0.4252875
1692523678974,0.18,0.006,9.342,0.34347498,0.159225,-0.308
1692523679008,0.32295,0.018000001,9.67905,0.1874125,0.0099,-0.0688875
1692523679036,-0.015000001,0.246,9.66195,0.111237496,-0.050875,0.0583
1692523679067,-0.20700002,0.51600003,9.14805,0.0543125,-0.089375,0.18315
1692523679093,0.036000002,0.36105,9.540001,0.0286,-0.0925375,0.3058
1692523679119,0.17295001,0.124050006,9.580951,0.048125,-0.0715,0.292325
1692523679146,-0.216,0.49005002,9.238951,0.069575,-0.052249998,0.2677125
1692523679175,0.02205,0.354,8.00805,0.078099996,-0.041525,0.2399375
1692523679202,-0.28800002,0.42795002,8.568001,0.072875,-0.0356125,0.2118875
1692523679230,-0.24300002,0.12900001,9.088051,0.0878625,0.002475,0.0606375
1692523679257,-0.69000006,0.31005,9.61005,0.0972125,0.027224999,-0.0424875
1692523679287,-0.39405003,0.25305,8.302951,0.091437496,0.05555,-0.1395625
1692523679316,-0.28395,0.23595001,7.8360004,0.043449998,0.1232,-0.27307498
1692523679351,0.30405003,-0.26505002,7.4119506,0.0155375,0.1599125,-0.2784375
1692523679374,0.34500003,-0.37800002,7.6849504,0.002475,0.138875,-0.20899999
1692523679402,0.108,-0.15,7.3069506,-0.03025,0.0826375,-0.081675
1692523679429,-0.079950005,0.20505,6.2970004,-0.136125,-0.0658625,0.1788875
1692523679459,-0.003,0.28905,5.3419504,-0.1637625,-0.108075,0.2030875
1692523679489,-0.72195005,0.47295,4.34805,-0.1524875,-0.115637496,0.154825
