timestamp,time,accX,accY,accZ,gyrX,gyrY,gyrZ
1692533078333,0.0,-0.41295,0.162,10.014001,0.039875,0.4461875,1.1668249
1692533078369,0.036,-0.32205,0.13305001,9.68595,-0.97061247,0.6287875,6.3790374
1692533078392,0.059,-0.43005002,0.15705001,9.889951,-1.6608624,0.9780375,11.2662
1692533078419,0.086,-0.39105,0.126,9.89505,-1.6608624,0.9780375,11.2662
1692533078452,0.119,-0.049050003,-0.124050006,9.81795,-2.128225,1.0646625,16.300625
1692533078479,0.146,-0.312,-0.097950004,9.889951,-1.4543375,0.520025,10.82125
1692533078509,0.176,-0.07305,-0.23700002,9.574051,-1.1884125,0.3026375,8.508637
1692533078541,0.208,-0.123,-0.23895001,9.64095,-0.8100125,0.027775,5.296775
1692533078565,0.232,-0.27600002,-0.25095,9.571051,-0.6788375,-0.0438625,4.0715127
1692533078592,0.259,0.097950004,-0.423,9.571051,-0.5776375,-0.09295,3.1724
1692533078617,0.284,0.06705,-0.423,9.62895,-0.4973375,-0.12155,2.4991999
1692533078649,0.316,0.18495001,-0.684,10.012051,-0.3900875,-0.14245,1.6478
1692533078675,0.342,0.34005,-0.711,9.83205,-0.36025,-0.1596375,1.3921875
1692533078702,0.369,0.112950005,-0.49800003,9.816001,-0.3408625,-0.1821875,1.1853875
1692533078731,0.398,-0.20895001,-0.18405001,9.61005,-0.327525,-0.2215125,0.879175
1692533078760,0.427,-0.16395001,-0.16005,9.49695,-0.26633748,-0.1959375,0.558525
1692533078788,0.455,-0.29295,-0.27,10.078951,-0.2006125,-0.147125,0.34265
1692533078813,0.48,-0.351,-0.29700002,10.354051,-0.1359875,-0.0946,0.15565
1692533078841,0.508,-0.324,-0.33,10.242001,-0.057475,-0.014575,0.0009625
1692533078871,0.538,-0.027,-0.402,9.85095,-0.040975,0.018424999,-0.029424999
1692533078899,0.566,-0.20505,-0.282,9.727051,-0.03575,0.0540375,-0.1175625
1692533078926,0.593,-0.17595,-0.30105,9.837001,-0.0407,0.0474375,-0.1258125
1692533078956,0.623,-0.20205002,-0.28005,9.859051,-0.040975,0.0202125,-0.0237875
1692533078983,0.65,-0.102000006,-0.32505003,9.8869505,-0.034375,0.0144375,0.041525
1692533079010,0.677,-0.24495001,-0.273,9.732,-0.0284625,0.011825,0.096525
1692533079040,0.707,-0.21900001,-0.25095,9.703051,-0.023924999,-0.0017875,0.1698125
1692533079067,0.734,-0.16395001,-0.26805001,9.721951,-0.020075,-0.008525,0.155375
1692533079095,0.762,-0.126,-0.37095,9.753,-0.01265,-0.0089375,0.0930875
1692533079119,0.786,-0.126,-0.48795003,10.111951,-0.0044,-0.00495,0.0097624995
1692533079146,0.813,-0.22395001,-0.20595,10.07205,-0.0039875,-0.0037125,-0.0661375
1692533079174,0.841,-0.26205,-0.33705002,10.18395,-0.00605,-0.0048125,-0.0521125
1692533079212,0.879,-0.17295001,-0.34905002,9.684,-0.0066,0.00825,-0.085525
1692533079241,0.908,-0.17295001,-0.34905002,9.684,-0.0066,0.00825,-0.085525
1692533079276,0.943,-0.123,-0.24405001,9.741,-0.00275,0.0154,-0.0972125
1692533079319,0.986,-0.123,-0.24405001,9.741,-0.00275,0.0154,-0.0972125
1692533079338,1.005,-0.123,-0.24405001,9.741,-0.00275,0.0154,-0.0972125
1692533079362,1.029,-0.123,-0.24405001,9.741,-0.00275,0.0154,-0.0972125
1692533079390,1.057,-0.25500003,-0.23700002,10.419001,0.004675,-0.017875,0.041249998
1692533079417,1.084,-0.25500003,-0.23700002,10.419001,0.004675,-0.017875,0.041249998
1692533079453,1.12,-0.25500003,-0.23700002,10.419001,0.004675,-0.017875,0.041249998
1692533079486,1.153,-0.25500003,-0.23700002,10.419001,0.004675,-0.017875,0.041249998
1692533079510,1.177,-0.25500003,-0.23700002,10.419001,0.004675,-0.017875,0.041249998
1692533079543,1.21,-0.25500003,-0.06705,9.757951,0.0699875,0.0418,-0.0132
1692533079594,1.261,-0.20505,-0.076050006,9.660001,0.0785125,0.0301125,-0.0088
1692533079609,1.276,-0.126,-0.094950005,9.733951,0.07095,0.0224125,0.0077
1692533079641,1.308,-0.09195001,-0.072000004,9.550051,0.0495,-0.00165,0.059675
1692533079663,1.33,-0.216,0.045,9.580951,0.0408375,-0.014162499,0.0826375
1692533079692,1.359,-0.09900001,-0.043050002,9.84,0.0356125,-0.0251625,0.0955625
1692533079718,1.385,0.10605001,-0.15795001,9.85095,0.0347875,-0.0320375,0.091299996
1692533079747,1.414,-0.05595,-0.094950005,9.837001,0.0400125,-0.0380875,0.05335
1692533079775,1.442,-0.09705,-0.072000004,9.880051,0.0364375,-0.0449625,0.050875
1692533079806,1.473,-0.075,-0.13095,9.913951,0.0270875,-0.051975,0.0570625
1692533079836,1.503,0.043050002,-0.13905,9.8230505,0.009075,-0.047849998,0.037675
1692533079865,1.532,-0.11595,-0.0139500005,9.660001,0.0017875,-0.041249998,-0.0246125
1692533079889,1.556,-0.058050003,-0.055050004,9.724951,0.001925,-0.0446875,-0.0699875
1692533079915,1.582,-0.043950003,-0.20295002,9.990001,0.004675,-0.0457875,-0.1192125
1692533079941,1.608,-0.109050006,-0.15,10.06005,0.0072875,-0.0320375,-0.12595
1692533079971,1.638,-0.094050005,-0.024,9.696,0.0022,-0.0242,-0.0672375
1692533079996,1.663,-0.08505,-0.021000002,9.603001,-0.00495,-0.0185625,0.002475
1692533080028,1.695,-0.13305001,-0.09105001,9.93795,-0.0067375,-0.00605,0.066
1692533080057,1.724,-0.13695,-0.13905,9.81795,0.0103124995,0.0026125,-0.0900625
1692533080083,1.75,-0.13995,-0.124050006,9.85095,0.014025,0.0081124995,-0.186175
1692533080112,1.779,-0.19695,-0.079050004,9.700951,0.0121,0.0132,-0.2256375
1692533080139,1.806,-0.147,-0.105000004,9.708,0.0034375,0.01815,-0.149875
1692533080167,1.834,-0.21900001,-0.040050004,9.724951,0.0009625,0.0204875,-0.0933625
1692533080197,1.864,-0.16395001,-0.043050002,9.712951,0.001375,0.0253,-0.0551375
1692533080230,1.897,-0.11805001,-0.14295001,10.14105,0.0103124995,0.0358875,-0.0334125
1692533080256,1.923,-0.21405001,0.010950001,9.825001,0.013612499,0.0334125,-0.014712499
1692533080281,1.948,-0.18105,0.009000001,9.724951,0.013062499,0.017875,0.0639375
1692533080306,1.973,-0.16095,-0.036000002,9.784051,0.0158125,0.015125,0.0664125
1692533080334,2.001,-0.19695,0.078,9.648001,0.02255,0.0165,0.015125
1692533080360,2.027,-0.22095,0.15,9.378,0.0303875,0.0185625,-0.0666875
1692533080389,2.056,-0.25500003,0.117000006,9.45195,0.044,0.02145,-0.192775
1692533080421,2.088,-0.252,0.162,9.495001,0.0639375,0.0273625,-0.2512125
1692533080448,2.115,-0.26700002,0.124050006,9.837001,0.07095,0.0314875,-0.2195875
1692533080475,2.142,-0.09900001,0.10695001,10.10805,0.073699996,0.0353375,-0.137775
1692533080500,2.167,-0.039,0.24795002,9.95895,0.0732875,0.0375375,-0.0548625
1692533080529,2.196,-0.094050005,0.492,9.78195,0.0702625,0.022824999,-0.067375
1692533080559,2.226,-0.13005,0.68895006,9.33705,0.075625,0.004125,-0.1522125
1692533080587,2.254,-0.09900001,0.693,9.415951,0.1302125,-0.0281875,-0.3576375
1692533080613,2.28,-0.252,0.65295005,9.801001,0.1731125,-0.0347875,-0.4527875
1692533080642,2.309,-0.20205002,0.68100005,9.715051,0.2319625,-0.0363,-0.6001875
1692533080673,2.34,0.036000002,0.72,9.81795,0.2360875,-0.031625,-0.6351125
1692533080701,2.368,0.28995,0.74100006,9.89505,0.2140875,-0.028324999,-0.57145
1692533080727,2.394,0.25605002,0.85395,9.327001,0.1997875,-0.0452375,-0.48894998
1692533080754,2.421,0.21795002,0.98100007,9.229051,0.1881,-0.0771375,-0.4076875
1692533080785,2.452,0.156,1.0210501,9.576,0.1841125,-0.1420375,-0.3004375
1692533080813,2.48,0.015000001,1.1700001,9.33195,0.1942875,-0.1555125,-0.285725
1692533080841,2.508,0.18900001,1.1770501,9.109051,0.21945,-0.146025,-0.3345375
1692533080868,2.535,0.32295,1.12395,9.186001,0.2327875,-0.1315875,-0.3460875
1692533080894,2.561,0.30900002,1.0210501,9.48495,0.2459875,-0.1175625,-0.3168
1692533080926,2.593,0.261,1.0020001,9.46395,0.24035,-0.11,-0.20515
1692533080951,2.618,0.063,1.07595,9.411,0.2143625,-0.114675,-0.1725625
1692533080979,2.646,-0.109050006,1.09095,9.259951,0.1524875,-0.106425,-0.1742125
1692533081009,2.676,-0.27405003,1.452,8.932051,0.1302125,-0.0823625,-0.2105125
1692533081035,2.702,-0.20895001,2.12205,9.052051,0.1166,-0.0474375,-0.2594625
1692533081065,2.732,0.46500003,3.216,7.9510503,0.1524875,0.0254375,-0.3416875
1692533081092,2.759,0.72300005,3.6760502,6.5839505,0.2388375,0.04015,-0.419375
1692533081119,2.786,1.3909501,3.348,8.262,0.5990875,-0.0836,-0.799975
1692533081148,2.815,1.4440501,3.6450002,8.99205,0.8130375,-0.2228875,-1.000175
1692533081177,2.844,0.42900002,3.8080502,7.3090506,0.9692375,-0.374,-1.0726374
1692533081203,2.87,1.4629501,3.2209501,6.90705,1.0357875,-0.570625,-0.829675
1692533081232,2.899,2.00895,1.4140501,8.109,1.0153,-0.5874,-0.7181625
1692533081258,2.925,1.24695,0.294,8.805,0.979825,-0.577775,-0.6565625
1692533081288,2.955,-1.215,-0.65805006,8.2570505,0.64968747,-0.5493125,-0.2022625
1692533081316,2.983,-0.92295,-1.5169501,9.729,0.2825625,-0.4431625,0.2234375
1692533081343,3.01,-0.135,-2.7570002,10.251,-0.604725,0.1529,0.88054997
1692533081372,3.039,-1.2220501,-2.772,9.715051,-1.013925,0.5110875,1.1556875
1692533081399,3.066,-1.1910001,-3.4660501,10.99995,-1.6787375,0.9123125,2.0895875
1692533081429,3.096,-0.96105003,-4.0279503,11.154,-1.8918625,0.958925,2.66805
1692533081458,3.125,-1.23405,-3.5640001,10.94505,-2.0194626,0.940775,3.2217624
1692533081483,3.15,-1.0830001,-3.3750002,11.78295,-2.099075,0.674025,4.162125
1692533081511,3.178,-1.1880001,-3.28095,11.45505,-2.03995,0.4621375,4.3957376
1692533081540,3.207,-0.60195005,-3.04905,11.09595,-1.6795624,0.1280125,4.0789375
1692533081569,3.236,-0.3,-2.5729501,11.314051,-1.4454,0.022824999,3.6779876
1692533081597,3.264,-0.58305,-2.3500502,11.701951,-1.221825,-0.06435,3.230425
1692533081624,3.291,-0.64695,-2.661,11.979001,-0.8113875,-0.20625,2.2851124
1692533081653,3.32,-0.93195003,-2.53905,12.991951,-0.61985,-0.23265,1.833425
1692533081679,3.346,-1.1520001,-1.7260501,12.738001,-0.3084125,-0.177375,1.0861125
1692533081707,3.374,-0.51795,-0.8880001,10.816051,-0.1841125,-0.113575,0.752675
1692533081736,3.403,0.20400001,-0.54300004,9.816001,-0.051975,-0.0308,0.39214998
1692533081765,3.432,-0.11400001,-0.64395005,10.629001,0.254375,0.1115125,-0.4126375
1692533081792,3.459,-0.16605,-0.84705,11.532001,0.3870625,0.1247125,-0.7767375
1692533081821,3.488,-0.35805002,-1.1850001,12.027,0.52648747,0.07425,-1.1881375
1692533081851,3.518,-0.36495003,-1.299,10.91205,0.53061247,0.0493625,-1.201475
1692533081882,3.549,-0.43695003,-1.17495,11.091001,0.429275,0.0290125,-1.0269876
1692533081915,3.582,-0.13005,-1.28295,11.833051,0.353375,0.033825,-0.9359625
1692533081947,3.614,-0.09900001,-1.04805,11.412001,0.2838,0.041249998,-0.850575
1692533081977,3.644,-0.46305,0.23595001,9.33195,0.185075,0.015675,-0.6705875
1692533082010,3.677,-0.49905002,0.72195005,9.378,0.21395,0.0122375,-0.705375
1692533082041,3.708,-0.513,0.11895001,10.44705,0.38995,0.0655875,-0.886325
1692533082075,3.742,-0.11805001,-0.75105006,12.280951,0.4907375,0.1043625,-0.99962497
1692533082099,3.766,-0.29805002,-1.17495,12.33405,0.5385875,0.125675,-0.9805125
1692533082125,3.792,-0.70995003,-1.2250501,12.312,0.4522375,0.088825,-0.7519875
1692533082151,3.818,-0.91305006,-1.4770501,12.781051,0.31501248,0.038225,-0.4635125
1692533082181,3.848,-0.13305001,-1.67805,13.273951,0.0319,0.020075,-0.032175
1692533082208,3.875,-0.05595,-1.4770501,12.247951,-0.0749375,0.044,0.1353
1692533082237,3.904,-0.47295,-1.4310001,11.853001,-0.1555125,0.039875,0.3003
1692533082267,3.934,-0.73095006,-1.797,12.57495,-0.22825,-0.0477125,0.48455
1692533082297,3.964,-0.59205,-2.2429502,12.68805,-0.231825,-0.069299996,0.4855125
1692533082325,3.992,-1.11405,-2.0629501,11.476951,-0.2448875,-0.0345125,0.5119125
1692533082353,4.02,-1.401,-2.4870002,11.637,-0.2715625,-0.014162499,0.604725
1692533082382,4.049,-0.95400006,-3.3769503,12.9199505,-0.3509,0.0264,0.8859125
1692533082409,4.076,-0.96300006,-3.3439503,12.58695,-0.4021875,0.0490875,1.0410125
1692533082436,4.103,-1.2070501,-3.0949502,11.391001,-0.4665375,0.0512875,1.1815375
1692533082467,4.134,-1.4250001,-2.8189502,10.938001,-0.5806625,0.003575,1.2452
1692533082495,4.162,-1.08105,-3.2980502,11.13,-0.5982625,-0.01045,1.2027125
1692533082524,4.191,-1.15005,-3.7909503,11.974951,-0.5918,-0.0125124995,1.1793375
1692533082552,4.219,-1.7629501,-1.9219501,11.24205,-0.554125,-0.016224999,1.1466125
1692533082580,4.247,-0.003,-0.90195006,8.571,-0.4538875,0.00825,0.88715
1692533082608,4.275,1.22595,-0.92805004,7.1370006,-0.3161125,0.0732875,0.5611375
1692533082634,4.301,1.044,0.010950001,6.0739503,-0.1276,0.13145,0.087175
1692533082663,4.33,-0.08205,1.7179501,7.04895,0.21175,0.02585,-0.9279875
1692533082694,4.361,1.6060501,1.9069501,8.764951,0.35021248,-0.0829125,-1.31505
1692533082720,4.387,1.3240501,1.3090501,9.780001,0.8072625,-0.089237496,-2.2675126
1692533082748,4.415,1.7839501,1.6459501,4.9900503,1.08955,-0.0837375,-2.8848875
1692533082777,4.444,2.286,0.753,2.87595,1.2782,-0.18095,-3.3338249
1692533082812,4.479,1.7260501,-0.73200005,8.599951,1.2533125,-0.5588,-3.28295
1692533082836,4.503,0.57000005,-0.32295,8.925,0.8727125,-0.9394,-2.3659625
1692533082865,4.532,0.15105,0.25305,7.3690505,0.59565,-0.9972875,-1.752575
1692533082894,4.561,0.78795004,0.162,6.7639503,0.341825,-0.86845,-1.2329625
1692533082921,4.588,1.0540501,0.19800001,8.343,0.175725,-0.602525,-0.9139625
1692533082953,4.62,0.62505,1.05495,8.547,0.0924,-0.141075,-0.6928625
1692533082978,4.645,0.11805001,0.86595005,6.9910502,0.1073875,-0.0490875,-0.645975
1692533083007,4.674,1.00605,0.040050004,9.294001,0.194975,0.0358875,-0.6898375
1692533083039,4.706,1.4940001,-0.82995003,11.484,0.2484625,0.0818125,-0.74965
1692533083068,4.735,0.20595,0.37305,9.772051,0.1695375,0.0705375,-0.440825
1692533083096,4.763,0.252,0.20295002,8.55405,-0.0573375,0.0075625,0.063525
1692533083127,4.794,0.59205,-0.27495003,9.68595,-0.082499996,0.0658625,0.0323125
1692533083153,4.82,-0.11805001,-0.162,10.258051,-0.0606375,0.1549625,-0.122925
1692533083180,4.847,-0.384,0.72195005,10.531051,-0.047849998,0.2528625,-0.2893
1692533083213,4.88,-0.55905,0.70305,6.9360003,-0.0551375,0.2905375,-0.246125
1692533083239,4.906,-0.78105,-0.933,8.061001,0.019524999,0.4136,-0.27513748
1692533083268,4.935,-0.20505,-2.12505,12.658951,0.058025,0.4668125,-0.352
1692533083299,4.966,0.30195,-1.524,12.966001,-0.1489125,0.5104,0.045925
1692533083326,4.993,-0.018000001,-0.33705002,10.728001,-0.386375,0.4519625,0.5669125
1692533083354,5.021,-0.68295,0.36600003,9.303,-0.5762625,0.3389375,0.9926125
1692533083381,5.048,-0.37905002,-0.555,10.290001,-0.5069625,0.1816375,0.8272
1692533083407,5.074,0.27600002,-1.1700001,9.90705,-0.3322,0.18933749,0.4349125
1692533083433,5.1,0.04605,-1.0360501,9.339001,-0.19085,0.210375,0.1233375
1692533083462,5.129,0.04095,-0.51405,8.908051,-0.1423125,0.1373625,0.013062499
1692533083492,5.159,0.19395001,-0.51900005,9.403951,-0.171875,0.0671,0.0688875
1692533083519,5.186,0.45495003,-0.711,9.922951,-0.177925,0.0196625,0.1032625
1692533083546,5.213,0.54105,-0.66,9.567,-0.109037496,-0.0353375,0.121825
1692533083577,5.244,0.028950002,-0.049950004,9.28695,-0.0760375,-0.0726,0.132
1692533083606,5.273,-0.62805,0.15495001,9.0400505,-0.032449998,-0.139975,0.1023
1692533083635,5.302,-1.11195,-0.124050006,8.86305,0.016775,-0.12485,-0.0083875
1692533083660,5.327,-1.16205,-0.68700004,9.969001,0.16665,0.064625,-0.3205125
1692533083687,5.354,-0.915,-0.94995004,11.488951,0.2046,0.19855,-0.38953748
1692533083713,5.38,-0.65205,-0.75600004,11.323951,0.181225,0.3128125,-0.3598375
1692533083741,5.408,-0.693,-0.25605002,10.29705,0.01595,0.3821125,-0.122237496
1692533083770,5.437,-0.83895004,-0.13905,9.34395,-0.0435875,0.3400375,-0.031075
1692533083795,5.462,-1.04205,-0.28500003,9.528001,-0.0515625,0.2858625,-0.0177375
1692533083825,5.492,-1.0879501,-0.72,10.467001,0.0187,0.229075,-0.1032625
1692533083854,5.521,-0.81000006,-0.76605004,10.46895,0.04235,0.2299,-0.11165
1692533083883,5.55,-1.0330501,-0.37995002,10.134001,0.00495,0.2288,-0.0174625
1692533083909,5.576,-0.89595,-0.028050002,9.552,-0.0342375,0.2096875,0.0378125
1692533083935,5.602,-0.82905006,0.124050006,9.28905,-0.0485375,0.1887875,0.046475
1692533083964,5.631,-0.9990001,0.411,8.829,0.038775,0.16445,-0.0628375
1692533083993,5.66,-0.90105003,0.40605003,8.7960005,0.1093125,0.152625,-0.111925
1692533084018,5.685,-0.75000006,0.20505,8.944051,0.2338875,0.1329625,-0.1783375
1692533084049,5.716,-0.56100005,0.054,9.247951,0.2723875,0.1227875,-0.2006125
1692533084075,5.742,-0.50595003,0.105000004,9.625951,0.28215,0.1023,-0.1808125
1692533084109,5.776,-0.84405005,0.62595004,9.406051,0.224675,0.023924999,0.02035
1692533084134,5.801,-0.66195005,0.897,9.03495,0.1887875,-0.0177375,0.1159125
1692533084160,5.827,-0.40095,1.041,8.18295,0.206525,-0.0576125,0.0441375
1692533084189,5.856,-0.22095,1.0309501,9.373051,0.265925,-0.0598125,-0.077275
1692533084217,5.884,-0.38205,1.218,9.693001,0.39655,-0.0847,-0.2688125
1692533084244,5.911,-0.61095005,1.4670001,8.805,0.43505,-0.1142625,-0.31515
1692533084273,5.94,-0.66195005,1.4830501,9.35805,0.454025,-0.1401125,-0.325325
1692533084298,5.965,-0.55200005,1.4830501,9.250951,0.46805,-0.1450625,-0.3232625
1692533084330,5.997,-0.70995003,1.7950501,9.01095,0.5049,-0.0994125,-0.4279
1692533084356,6.023,-0.44400004,1.99995,8.16195,0.5108125,-0.078375,-0.5204375
1692533084384,6.051,0.61605,2.2420502,7.37895,0.5102625,-0.0650375,-0.61545
1692533084412,6.079,0.80700004,2.80695,7.2850504,0.535425,-0.081675,-0.627275
1692533084444,6.111,0.58395004,2.8930502,8.03895,0.654775,-0.254925,-0.6221875
1692533084471,6.138,0.051000003,2.69895,8.70495,0.7415375,-0.390225,-0.6095375
1692533084500,6.167,-0.058050003,2.4790502,7.8580503,0.8529125,-0.5295125,-0.5402375
1692533084528,6.195,-0.07305,-0.53595,8.608951,0.8305,-0.4945875,-0.51315
1692533084557,6.224,-0.47700003,-1.4070001,10.807051,0.74305,-0.4115375,-0.49005
1692533084587,6.254,-1.11195,-2.118,11.137051,0.1529,-0.1021625,0.0829125
1692533084613,6.28,-2.0380502,-1.4260501,8.03505,-0.373175,0.126225,0.7962625
1692533084643,6.31,-1.2,-2.35695,9.816001,-1.2824625,0.5721375,2.280575
1692533084672,6.339,-1.45905,-3.3460503,12.84405,-1.5037,0.7238,2.759075
1692533084702,6.369,-1.4640001,-3.2020502,13.24995,-1.6242875,0.7882875,3.13885
1692533084730,6.397,-0.72900003,-1.6900501,9.98295,-1.8151375,0.6177875,3.8963375
1692533084760,6.427,0.048,-0.85395,8.69505,-1.4590125,0.2677125,3.864575
1692533084786,6.453,-0.47700003,-0.86895007,9.519,-1.0253375,0.1079375,3.403675
1692533084814,6.481,-1.45605,-0.76095,11.14605,-0.8537375,-0.0290125,2.83525
1692533084843,6.51,-1.6140001,-0.48105,12.37695,-0.4384875,-0.1628,1.83865
1692533084871,6.538,-1.07805,-0.45405003,11.218051,-0.2646875,-0.1131625,1.46355
1692533084898,6.565,-0.95400006,-0.69600004,9.93,0.03025,0.08305,0.738375
1692533084930,6.597,-1.9590001,-0.744,11.734951,0.1287,0.1258125,0.3876125
1692533084956,6.623,-2.00895,-0.77805007,13.252951,0.1727,0.1291125,0.132275
1692533084983,6.65,-1.389,-0.91200006,13.873051,0.1720125,0.13213749,0.0081124995
1692533085009,6.676,-0.93195003,-0.21300001,12.019951,0.1384625,0.194425,-0.0196625
1692533085040,6.707,-1.1359501,0.54495,10.44495,0.163075,0.165275,-0.235125
1692533085070,6.737,-1.15005,0.51900005,10.443001,0.2189,0.113437496,-0.461725
1692533085100,6.767,-1.07805,0.26295,11.6320505,0.301675,0.0759,-0.680075
1692533085129,6.796,-1.5619501,0.78900003,11.167951,0.45705,0.0499125,-0.89608747
1692533085159,6.826,-1.23405,1.09605,9.892051,0.511775,0.0405625,-0.9252375
1692533085185,6.852,-0.93705004,0.85095006,10.15305,0.511775,0.0405625,-0.9252375
1692533085212,6.879,-0.58305,0.60495,9.780001,0.56925,0.0609125,-0.9939875
1692533085246,6.913,-0.54,0.30600002,10.213051,0.5746125,0.0053625,-1.0184625
1692533085274,6.941,-0.312,0.57600003,11.52,0.518375,-0.0603625,-0.9598875
1692533085299,6.966,-0.09705,0.624,11.11995,0.34925,-0.17435,-0.621775
1692533085324,6.991,-0.27405003,0.76305,10.552951,0.2811875,-0.21725,-0.4591125
1692533085356,7.023,-0.25500003,-0.34905002,13.303051,0.23815,-0.25905,-0.3928375
1692533085384,7.051,-1.2270001,-0.88995004,13.67895,0.20927499,-0.29315,-0.38747498
1692533085414,7.081,-2.433,-1.59405,13.906051,0.0765875,-0.2899875,-0.20295
1692533085444,7.111,-1.7719501,-1.9699501,13.960951,-0.24447499,-0.0589875,0.383075
1692533085470,7.137,-2.21295,-1.3260001,12.396001,-0.41085,0.1181125,0.689975
1692533085500,7.167,-2.6460001,-1.3110001,11.02005,-0.623975,0.3040125,1.0307
1692533085530,7.197,-2.21805,-2.2999501,13.159051,-0.6402,0.3254625,1.03565
1692533085565,7.232,-1.03695,-3.6360002,14.599951,-0.597575,0.369325,0.959475
1692533085592,7.259,-1.3609501,-3.0730503,11.577001,-0.636625,0.3345375,0.9692375
1692533085619,7.286,-0.98700005,-3.0370502,10.687051,-0.7266875,0.231825,1.0008625
1692533085649,7.316,-0.93705004,-3.1519501,10.76805,-0.8941625,-0.0207625,1.0432125
1692533085677,7.344,-1.983,-2.41995,10.60305,-0.9301875,-0.1126125,1.060125
1692533085705,7.372,-0.70695,-1.2610501,9.69795,-0.905025,-0.2149125,1.0701625
1692533085731,7.398,0.36900002,0.17400001,7.353,-0.8179875,-0.2013,1.00155
1692533085763,7.43,-0.97800004,1.6680001,1.46895,-0.421025,-0.1243,0.47685
1692533085789,7.456,-3.65595,1.6290001,3.6349502,-0.1271875,-0.1071125,0.028875
1692533085825,7.492,0.46905002,-2.298,18.354,0.4819375,0.1016125,-0.8053375
1692533085851,7.518,1.6999501,-0.30795002,16.386002,0.720225,0.3188625,-1.08845
1692533085878,7.545,0.381,2.46705,10.43295,0.8333875,0.382525,-1.338425
1692533085907,7.574,-2.2080002,2.6560502,4.09695,0.8344875,-0.1857625,-2.047375
1692533085937,7.604,-0.47505003,0.423,8.7960005,0.94435,-0.3911875,-2.5036
1692533085965,7.632,1.06095,-1.2540001,10.71105,1.133825,-0.3565375,-2.9104624
1692533085994,7.661,-0.76905006,-0.43500003,5.6509504,1.262525,-0.0317625,-3.01895
1692533086029,7.696,-1.3990501,1.04295,4.9900503,0.5971625,-0.109175,-1.6082
1692533086045,7.712,-0.96105003,0.84405005,5.8159504,0.2761,-0.133925,-0.94476247
1692533086081,7.748,-0.65505004,0.34905002,6.8950505,0.1958,0.1084875,-0.697125
1692533086107,7.774,-1.5640501,0.555,6.7369504,0.2677125,0.19167499,-0.79475
1692533086139,7.806,-1.58595,0.56700003,7.2060003,0.280775,0.1879625,-0.773575
1692533086168,7.835,-1.3560001,0.19095,7.9819503,0.277475,0.243375,-0.7569375
1692533086192,7.859,-1.0999501,0.052050002,8.679001,0.2827,0.3364625,-0.753775
1692533086221,7.888,-0.75705004,0.492,9.411,0.1989625,0.402325,-0.5121875
1692533086251,7.918,-0.88005006,0.22905001,6.9259505,0.1079375,0.3408625,-0.288475
1692533086285,7.952,-1.11195,-0.42795002,9.65505,0.0081124995,0.1249875,-0.0292875
1692533086322,7.989,-0.89895004,-0.26295,12.817051,-0.073975,-0.0006875,0.21573749
1692533086334,8.001,-0.89895004,-0.26295,12.817051,-0.073975,-0.0006875,0.21573749
1692533086369,8.036,-1.2270001,0.98805004,7.55805,-0.2657875,-0.0961125,0.52195
1692533086398,8.065,-1.31505,0.49005002,9.05895,-0.1104125,-0.13035,-0.0407
1692533086426,8.093,-0.71400005,0.025950002,10.830001,0.071225,-0.0807125,-0.48235
1692533086454,8.121,0.18195,0.18405001,9.87495,0.1997875,-0.0207625,-0.7759125
1692533086483,8.15,0.22305001,0.40605003,9.79395,0.1731125,-0.054175,-0.7077125
1692533086518,8.185,0.04095,0.51900005,11.58405,0.048675,-0.307725,-0.316525
1692533086546,8.213,0.051000003,0.41295,12.121051,0.0375375,-0.407,-0.2484625
1692533086574,8.241,-0.094050005,0.294,11.3880005,0.0471625,-0.45595,-0.2602875
1692533086604,8.271,-0.72405005,0.36105,10.825951,0.051425,-0.4483875,-0.2816
1692533086629,8.296,-0.72195005,0.28905,10.46895,0.038225,-0.4002625,-0.2638625
1692533086659,8.326,-0.55905,0.52395004,10.10295,0.0254375,-0.3188625,-0.2682625
1692533086686,8.353,-0.48705003,0.63405,9.27495,0.01925,-0.12265,-0.326425
1692533086716,8.383,-0.23295002,0.67695004,8.7289505,0.0301125,-0.0554125,-0.3234
1692533086747,8.414,0.28800002,0.16695,9.4129505,0.0792,-0.005225,-0.27307498
1692533086775,8.442,0.66795003,-0.37800002,10.321051,0.09955,-0.01595,-0.2387
1692533086802,8.469,0.60795003,-0.57705003,10.524,0.036025,-0.130075,-0.0224125
1692533086829,8.496,0.54405004,-0.22905001,10.234051,-0.0581625,-0.2143625,0.16445
1692533086859,8.526,0.32595003,0.52605003,9.637951,-0.24475,-0.32505,0.5152125
1692533086889,8.556,0.31395,0.588,9.3490505,-0.270875,-0.33605,0.59785
1692533086914,8.581,0.33495003,0.88305,8.93505,-0.2300375,-0.321475,0.5644375
1692533086950,8.617,0.18705001,1.2270001,8.08005,-0.028875,-0.2528625,0.1984125
1692533086977,8.644,0.44805002,1.23,8.061001,0.0779625,-0.22055,-0.036849998
1692533087005,8.672,0.28305,1.3609501,8.21205,0.2743125,-0.1706375,-0.465025
1692533087033,8.7,-0.025050001,1.44,7.6800003,0.3510375,-0.157025,-0.600875
1692533087062,8.729,0.38595003,1.5480001,7.5319505,0.43614998,-0.132275,-0.7156875
1692533087088,8.755,0.33495003,1.4500501,8.57295,0.4670875,-0.1073875,-0.74635
1692533087119,8.786,-0.051000003,1.4929501,9.67395,0.4992625,-0.083875,-0.702075
1692533087148,8.815,0.25395,1.9090501,9.543,0.4725875,-0.0796125,-0.6089875
1692533087177,8.844,0.81195,2.8140001,8.466001,0.42267498,-0.0589875,-0.504625
1692533087204,8.871,1.128,3.42195,7.6759505,0.3793625,-0.0402875,-0.4164875
1692533087234,8.901,2.2120502,3.3930001,9.064051,0.4541625,-0.104637496,-0.47575
1692533087264,8.931,3.2050502,4.02495,9.67695,0.7535,-0.38279998,-0.610775
1692533087290,8.957,2.5900502,4.15905,7.4389505,0.8727125,-0.5526125,-0.5418875
1692533087320,8.987,1.60395,3.25005,5.29605,0.9730875,-0.851675,-0.2385625
1692533087349,9.016,-0.303,1.7869501,10.567051,0.9981125,-0.9306,-0.1593625
1692533087379,9.046,-1.1880001,-1.299,12.784051,0.858275,-0.7170625,-0.077275
1692533087409,9.076,-1.128,-1.43595,9.66195,0.5405125,-0.3223,0.0820875
1692533087437,9.104,-2.42805,-1.9120501,6.70095,0.0479875,0.2017125,0.4059
1692533087466,9.133,-2.42595,-3.08295,12.8869505,-0.946275,1.0825375,1.341725
1692533087494,9.161,-1.27695,-4.1290503,13.954051,-1.2806749,1.3545125,1.7826875
1692533087524,9.191,-1.404,-2.60205,6.7660503,-1.838925,1.602975,2.88915
1692533087549,9.216,-1.107,-1.077,7.2019506,-2.0685499,1.4810125,3.5641375
1692533087576,9.243,-0.72195005,-1.2919501,10.387951,-2.1517375,1.2260875,4.0400248
1692533087605,9.272,-0.55395,-1.5010501,11.40495,-1.774575,0.7088125,3.947625
1692533087633,9.3,-1.83,-0.83295006,11.383051,-1.4488375,0.49665,3.557125
1692533087662,9.329,-1.6189501,-0.88500005,11.69505,-0.874225,0.17985,2.64275
1692533087690,9.357,-1.167,-1.2760501,11.673,-0.644325,0.1408,2.2298374
1692533087719,9.386,-1.53795,-1.08405,14.067,-0.3128125,0.176825,1.59775
1692533087749,9.416,-0.42195,-0.84705,13.39605,-0.220275,0.155375,1.327425
1692533087775,9.442,0.15105,-0.45705003,12.192,-0.1522125,0.105325,1.0368875
1692533087809,9.476,-0.99000007,0.59295005,9.415951,0.0050875,-0.0517,0.3375625
1692533087834,9.501,-0.441,-0.045,11.434051,0.1057375,-0.136675,-0.0022
1692533087865,9.532,0.028950002,-0.47595003,12.678,0.32999998,-0.1538625,-0.41965
1692533087893,9.56,-0.86505,-0.21495001,12.799951,0.396,-0.12265,-0.51205
1692533087930,9.597,-0.13305001,0.12900001,13.320001,0.3433375,-0.142725,-0.573375
1692533087955,9.622,1.00605,-0.93795,13.906051,0.3081375,-0.13145,-0.6012875
1692533087983,9.65,0.108,-0.49800003,13.791,0.2963125,-0.1021625,-0.7415375
1692533088009,9.676,-0.58500004,-0.75405,14.233951,0.2349875,-0.180125,-0.7561125
1692533088042,9.709,-0.58995,-1.4500501,13.807951,0.128425,-0.2817375,-0.6857125
1692533088062,9.729,-0.68100005,-1.6870501,13.744051,-0.05115,-0.27445,-0.432025
1692533088097,9.764,-0.40305,-1.7880001,13.288951,-0.111237496,-0.1881,-0.2880625
1692533088124,9.791,-0.63795,-1.7329501,13.417951,-0.2437875,-0.059125,0.00825
1692533088152,9.819,-0.81495005,-1.40205,12.616051,-0.293975,-0.0319,0.133925
1692533088181,9.848,-0.77205,-1.5079501,11.898001,-0.3188625,-0.013475,0.315425
1692533088211,9.878,0.034050003,-2.4390001,12.661951,-0.2987875,0.0033,0.3625875
1692533088241,9.908,-0.27405003,-2.7139502,13.417951,-0.2701875,0.014025,0.48688748
1692533088269,9.936,-1.7359501,-2.061,13.401001,-0.305525,-0.02695,0.615175
1692533088299,9.966,-1.6099501,-1.86705,13.075951,-0.3625875,-0.08085,0.7484125
1692533088327,9.994,-0.45105,-1.70895,10.52595,-0.394075,-0.053075,0.8525
1692533088358,10.025,0.16800001,-1.59105,8.7619505,-0.3480125,0.028875,0.8168875
1692533088384,10.051,-0.906,-0.67695004,8.887051,-0.2525875,0.0752125,0.6149
1692533088411,10.078,-1.19295,-0.70605004,9.84405,-0.22013749,0.0325875,0.4582875
1692533088439,10.106,-0.66195005,-0.097950004,9.315001,-0.1672,0.0100375,0.2699125
1692533088473,10.14,0.18,0.75600004,6.5839505,0.038775,0.099,-0.1291125
1692533088502,10.169,0.22995001,1.5310501,5.21295,0.1716,0.14795,-0.3427875
1692533088532,10.199,1.57095,1.608,7.932,0.4827625,0.1208625,-0.968
1692533088559,10.226,0.47895002,1.77495,8.571,0.842875,-0.0361625,-1.9082249
1692533088586,10.253,-0.37005,2.1780002,4.2379503,1.0014125,-0.175175,-2.431
1692533088615,10.282,1.59195,1.5960001,4.26,1.1122375,-0.3199625,-2.8898375
1692533088641,10.308,2.35995,0.12900001,7.83795,1.2040875,-0.445225,-3.4882374
1692533088670,10.337,1.2349501,0.33705002,7.9249506,1.16875,-0.5220875,-3.4626625
1692533088699,10.366,0.43800002,0.63795,6.5839505,1.0146124,-0.6774625,-3.010975
1692533088741,10.408,0.59205,0.38205,9.705001,0.3001625,-0.76285,-1.22705
1692533088765,10.432,0.30705002,0.18795002,10.732051,0.186725,-0.5754375,-1.06425
1692533088795,10.462,0.12195001,0.79395,7.7550006,0.097625,-0.3795,-0.9414625
1692533088823,10.49,0.69195,0.504,8.06595,-0.055275,-0.0697125,-0.6700375
1692533088852,10.519,1.26405,0.19995001,10.950001,-0.076725,0.029424999,-0.61765
1692533088876,10.543,1.2910501,1.1359501,9.423,-0.0661375,0.0507375,-0.47465
1692533088903,10.57,0.50295,0.80100006,7.2690005,-0.0661375,0.0507375,-0.47465
1692533088931,10.598,0.50505,-0.29700002,11.299951,-0.08305,-0.0930875,-0.0815375
1692533088959,10.626,1.8649501,-0.99300003,13.356001,-0.065175,-0.098175,0.081675
1692533088986,10.653,1.02195,0.66,9.86295,-0.132,-0.0490875,0.2332
1692533089014,10.681,-0.15705001,1.8019501,6.9409504,-0.231,-0.0363,0.4434375
1692533089045,10.712,0.16995001,1.09305,8.269051,-0.213125,-0.081675,0.444675
1692533089072,10.739,0.18900001,0.27705002,9.67395,-0.0548625,-0.0468875,0.1467125
1692533089098,10.765,-0.03705,-0.021000002,10.17195,0.2352625,0.100237496,-0.40094998
1692533089127,10.794,-0.69495004,0.246,10.1650505,0.2267375,0.1604625,-0.3862375
1692533089160,10.827,-0.657,0.19605,9.873,0.015125,0.2894375,-0.0045375
1692533089190,10.857,-0.20895001,-0.14805001,9.361051,-0.0686125,0.372075,0.1254
1692533089214,10.881,0.156,-0.85395,10.278001,-0.1164625,0.443025,0.1626625
1692533089261,10.928,-0.11400001,-0.057000004,10.549951,-0.301125,0.3388,0.3612125
1692533089289,10.956,-0.27195,0.32505003,9.693001,-0.36987498,0.2495625,0.4813875
1692533089313,10.98,-0.61905,0.64605004,9.17895,-0.3839,0.1837,0.50325
1692533089376,11.043,-0.83400005,0.55695003,10.239,-0.1170125,0.168025,-0.0295625
1692533089388,11.055,-0.80505,0.58605003,10.42395,-0.0048125,0.1989625,-0.2448875
1692533089412,11.079,-0.27195,0.26700002,10.828051,0.082775,0.2256375,-0.39655
1692533089433,11.1,-0.06105,0.186,10.488001,0.1346125,0.242,-0.46365
1692533089456,11.123,-0.33600003,0.42495003,9.65505,0.1485,0.24213749,-0.4565
1692533089482,11.149,-0.609,0.57105005,9.415951,0.1029875,0.17379999,-0.339625
1692533089514,11.181,-0.70500004,0.55905,9.637951,0.0807125,0.130625,-0.26785
1692533089539,11.206,-0.70995003,0.57105005,9.753,0.0864875,0.117699996,-0.15455
1692533089566,11.233,-0.441,0.58605003,10.017,0.09955,0.1351625,-0.14093749
1692533089594,11.261,-0.58305,0.82305,9.46395,0.109175,0.147675,-0.1527625
1692533089625,11.292,-0.528,1.1530501,8.96805,0.120037496,0.1310375,-0.18425
1692533089651,11.318,-0.19500001,1.0210501,9.38895,0.1364,0.1106875,-0.220275
1692533089679,11.346,-0.075,1.2030001,9.636001,0.2132625,0.0642125,-0.3994375
1692533089708,11.375,-0.25995,1.66005,8.911051,0.2547875,0.022824999,-0.49513748
1692533089735,11.402,-0.12795001,1.6870501,8.643001,0.2894375,-0.028324999,-0.554125
1692533089761,11.428,-0.33405003,1.65795,8.68095,0.372625,-0.1027125,-0.5718625
1692533089790,11.457,-0.27195,1.452,8.853001,0.4203375,-0.1167375,-0.5641625
1692533089817,11.484,-0.13005,1.5670501,8.443951,0.4555375,-0.11715,-0.526075
1692533089847,11.514,-0.027,1.6840501,8.323951,0.43395,-0.1079375,-0.47341248
1692533089872,11.539,-0.19005,2.4790502,8.302951,0.39875,-0.0988625,-0.394075
1692533089900,11.567,-0.32205,3.0940502,6.97905,0.36465,-0.10175,-0.2699125
1692533089928,11.595,0.13695,3.3649502,5.7439504,0.420475,-0.118525,-0.33935
1692533089956,11.623,0.60105,3.0990002,6.42105,0.7280625,-0.2044625,-0.82981247
1692533089988,11.655,0.18,1.96695,8.253,0.9117625,-0.28545,-1.0846
1692533090014,11.681,0.01695,1.1389501,9.391951,1.02795,-0.3716625,-1.1836
1692533090043,11.71,-0.075,0.89895004,9.8869505,0.801075,-0.3806,-0.7360375
1692533090066,11.733,-0.65205,-0.40695003,8.96595,0.46254998,-0.269225,-0.312125
1692533090098,11.765,-0.25005,-0.85395,12.5779505,0.0804375,-0.12045,0.1065625
1692533090125,11.792,0.132,-1.06005,11.09595,-0.606375,0.1959375,0.907775
1692533090155,11.822,-0.32700002,-1.36395,8.061001,-0.916575,0.3256,1.4232625
1692533090183,11.85,0.32805002,-2.3140502,13.303051,-1.317525,0.377575,2.39305
1692533090220,11.887,0.41895002,-2.7139502,12.286051,-1.399475,0.252175,2.92435
1692533090243,11.91,-0.027,-1.8720001,10.59105,-1.4246374,0.150975,3.164975
1692533090270,11.937,0.30705002,-1.299,10.6699505,-1.425875,0.031075,3.33135
1692533090297,11.964,0.49605003,-0.97605,10.443001,-1.3618,-0.069575,3.3253
1692533090323,11.99,-0.20205002,-0.32805002,10.347,-1.0197,-0.156475,2.82755
1692533090353,12.02,-0.04695,-0.27495003,10.31295,-0.7948875,-0.17545,2.4715624
1692533090380,12.047,-0.058050003,-0.16695,9.729,-0.5698,-0.175725,2.1069124
1692533090410,12.077,-0.22395001,-0.105000004,10.5379505,-0.1830125,-0.101475,1.4422375
1692533090437,12.104,0.14400001,-0.43500003,12.130051,0.0554125,-0.024475,0.9791375
1692533090463,12.13,0.08895,-0.60300004,13.144951,0.0554125,-0.024475,0.9791375
1692533090492,12.159,-0.95595,0.37995002,11.06295,0.1584,0.0127875,0.6395125
1692533090521,12.188,-0.93195003,0.55005,10.351951,0.1804,0.0534875,0.3696
1692533090547,12.214,-0.70995003,0.27705002,11.616,0.2091375,0.1219625,0.2270125
1692533090575,12.242,-0.40305,0.61395,11.425951,0.2563,0.207625,0.0749375
1692533090603,12.27,-0.92505,0.79605,9.909,0.322025,0.276925,-0.2519
1692533090629,12.296,-1.3770001,0.96195006,10.207951,0.3344,0.2495625,-0.44233748
1692533090658,12.325,-0.24300002,0.41295,10.750951,0.3773,0.220275,-0.71995
1692533090687,12.354,0.38595003,0.058950003,11.23995,0.3931125,0.2344375,-0.7415375
1692533090713,12.38,-1.0519501,0.22905001,10.014001,0.379775,0.2168375,-0.6941
1692533090740,12.407,-0.16605,0.064050004,12.003,0.25025,0.0336875,-0.391875
1692533090768,12.435,1.1730001,-0.18405001,15.14595,0.1670625,-0.0353375,-0.187
1692533090796,12.463,-0.010950001,0.591,12.754951,0.0924,-0.064899996,-0.040425
1692533090826,12.493,-2.42595,1.491,10.17,-0.0176,-0.1711875,-0.0158125
1692533090854,12.521,-1.0830001,-0.74205005,13.236001,-0.02035,-0.1852125,-0.07425
1692533090884,12.551,-1.1380501,-1.55805,14.742001,0.0719125,0.1018875,-0.1117875
1692533090909,12.576,-1.7530501,-1.0030501,14.007001,0.0396,0.2508,0.047575
1692533090939,12.606,-1.04505,-1.23,13.485001,-0.2627625,0.301675,0.610225
1692533090970,12.637,-0.030000001,-2.3719501,13.375051,-0.385275,0.2855875,0.7530875
1692533091000,12.667,-1.15995,-2.30205,11.944051,-0.48894998,0.1898875,0.6989125
1692533091028,12.695,-1.6570501,-1.6849501,10.894951,-0.5504125,0.0952875,0.660275
1692533091057,12.724,-0.41295,-2.0320501,12.159,-0.6180625,0.025024999,0.6659125
1692533091086,12.753,-0.252,-2.42205,12.264001,-0.64556247,0.0468875,0.7734375
1692533091114,12.781,-0.43395,-1.5679501,11.967001,-0.6155875,0.0484,0.819775
1692533091141,12.808,-0.17595,0.034950003,8.97795,-0.55962497,-0.067925,0.697675
1692533091171,12.838,0.18495001,1.31295,5.2050004,-0.4895,-0.11,0.49981248
1692533091198,12.865,-1.3440001,2.05995,5.02605,-0.3463625,-0.1175625,0.212025
1692533091227,12.894,-0.39405003,0.96405005,9.44505,0.1425875,-0.0638,-0.571175
1692533091258,12.925,0.25395,1.5670501,12.891001,0.41745,0.0055,-1.0275375
1692533091285,12.952,0.441,2.46195,10.08405,0.8476875,0.1013375,-2.0766625
1692533091313,12.98,-1.2739501,2.15595,3.4770002,0.982575,0.028324999,-2.6107125
1692533091341,13.008,-2.4090002,1.215,4.2259502,1.1693,-0.19525,-3.4023
1692533091371,13.038,0.13395001,-0.74895006,9.612,1.2233375,-0.1953875,-3.5925999
1692533091404,13.071,0.38295,-0.90900004,6.984,1.0406,0.024475,-3.262875
1692533091428,13.095,-0.58995,0.078,4.0279503,0.6804875,0.06765,-2.4739
1692533091455,13.122,-1.179,0.66705,4.70295,0.2283875,0.0034375,-1.4183125
1692533091488,13.155,-0.24300002,-0.025950002,7.8769503,-0.2646875,-0.08965,-0.0614625
1692533091511,13.178,0.156,-0.43995002,9.942,-0.2388375,-0.0022,0.013475
1692533091540,13.207,-0.966,0.53805,8.437051,-0.165825,0.11275,0.049225
1692533091566,13.233,-1.19505,1.455,8.121,-0.2149125,0.06985,0.2707375
1692533091595,13.262,-1.1400001,1.4260501,7.1179504,-0.2223375,0.04015,0.418825
1692533091627,13.294,-1.0639501,1.04295,8.67105,0.0774125,0.14135,0.00495
1692533091656,13.323,-0.79800004,0.022950001,13.18095,0.2838,0.2047375,-0.3430625
1692533091684,13.351,-1.4970001,0.89895004,11.379001,0.37895,0.2198625,-0.440825
1692533091709,13.376,-1.28205,1.383,8.31705,0.2366375,0.1753125,-0.1694
1692533091735,13.402,-0.87195003,1.5139501,8.442,0.087725,0.134475,0.0638
1692533091766,13.433,-1.69095,1.5649501,9.889951,0.10725,0.129525,-0.1472625
1692533091791,13.458,-1.5310501,1.8210001,8.50605,0.230725,0.1375,-0.4184125
1692533091818,13.485,-1.57395,1.62705,8.31,0.4233625,0.148775,-0.731225
1692533091849,13.516,-0.726,1.143,10.359,0.478225,0.164725,-0.8017625
1692533091874,13.541,0.22500001,0.84900004,11.22105,0.5058625,0.1797125,-0.825275
1692533091903,13.57,0.27795002,1.5409501,9.28905,0.3752375,0.0902,-0.510125
1692533091931,13.598,-0.44895002,1.8349501,8.619,0.235125,-0.056925,-0.1951125
1692533091965,13.632,-0.42705002,1.266,11.047951,0.11165,-0.35021248,0.1692625
1692533091993,13.66,-0.41505003,1.218,11.27295,0.14575,-0.3894,0.1379125
1692533092023,13.69,-0.46500003,1.5000001,9.777,0.1364,-0.309925,0.051425
1692533092048,13.715,-0.69000006,1.524,9.531,0.0779625,-0.2597375,0.0653125
1692533092077,13.744,-0.52305,0.88995004,9.562051,0.034925,-0.21779999,0.0578875
1692533092104,13.771,-0.67395,0.53805,10.6050005,0.0295625,-0.1392875,-0.053625
1692533092135,13.802,-0.87000006,0.94005007,9.777,0.00605,-0.095425,-0.051975
1692533092165,13.832,-0.85800004,1.146,9.27705,-0.1480875,-0.0028875,0.1412125
1692533092193,13.86,-0.537,0.98805004,9.901951,-0.1997875,0.038225,0.2028125
1692533092222,13.889,-0.31905,0.78195006,9.945001,-0.15619999,0.0858,0.1095875
1692533092251,13.918,-0.312,0.67905,9.765,-0.121275,0.0746625,0.053075
1692533092281,13.948,-0.28605002,0.69600004,9.588,-0.1247125,-0.013475,0.0512875
1692533092319,13.986,-0.46500003,0.98295003,9.18795,-0.14465,-0.060225,0.0636625
1692533092353,14.02,-0.37395,1.0570501,8.83905,-0.1458875,-0.100375,0.0730125
1692533092366,14.033,-0.58005005,1.1029501,8.841001,-0.1159125,-0.0941875,0.0537625
1692533092395,14.062,-0.71400005,0.873,9.64095,-0.0732875,-0.081675,0.006875
1692533092423,14.09,-0.291,0.64605004,10.2630005,0.00495,-0.0463375,-0.1189375
1692533092452,14.119,-0.20505,0.75105006,9.883051,0.015262499,-0.0199375,-0.1436875
1692533092481,14.148,-0.31905,1.146,8.985001,-0.0474375,-0.0127875,0.006875
1692533092508,14.175,-0.18300001,1.2420001,9.0379505,-0.075625,-0.03795,0.1057375
1692533092543,14.21,-0.20205002,1.452,9.208051,-0.018424999,-0.086625,0.0682
1692533092571,14.238,-0.043950003,1.572,9.14805,0.0463375,-0.1082125,-0.0529375
1692533092595,14.262,-0.26895002,1.7869501,9.373051,0.109725,-0.12979999,-0.179025
1692533092631,14.298,0.27105,1.5960001,9.528001,0.2146375,-0.153725,-0.2844875
1692533092655,14.322,0.51000005,1.5120001,9.946951,0.2531375,-0.1524875,-0.252725
1692533092692,14.359,0.41895002,1.5139501,9.222,0.2737625,-0.173525,-0.149875
1692533092721,14.388,-0.051000003,1.6170001,8.55195,0.22,-0.2564375,-0.1170125
1692533092746,14.413,0.094050005,1.3230001,9.741,0.196625,-0.2773375,-0.11495
1692533092772,14.439,0.048,1.608,9.898951,0.185075,-0.260975,-0.108899996
1692533092799,14.466,-0.513,1.9090501,9.35805,0.1684375,-0.2149125,-0.0928125
1692533092828,14.495,-0.762,2.9340003,8.061001,0.1082125,-0.10395,-0.0836
1692533092860,14.527,0.04605,3.1350002,8.302951,0.2091375,0.0045375,-0.353375
1692533092889,14.556,0.63705003,3.0559502,9.15495,0.354475,0.033275,-0.5974375
1692533092919,14.586,0.642,3.9220502,7.1059504,0.631125,-0.07865,-0.9120375
1692533092947,14.614,0.59595,4.7389503,6.1080003,0.703175,-0.2008875,-0.8881125
1692533092974,14.641,0.83295006,4.353,7.089,0.7799,-0.3251875,-0.8320125
1692533093004,14.671,0.36900002,2.91,9.265051,1.0492625,-0.51315,-0.8734
1692533093035,14.702,-0.49905002,1.6009501,9.612,1.1149875,-0.545325,-0.864325
1692533093062,14.729,-1.1050501,0.354,7.4820004,0.7189875,-0.34347498,-0.44825
1692533093092,14.759,-0.12105001,-0.34905002,7.79295,0.3350875,-0.11935,-0.1304875
1692533093121,14.788,-0.50595003,-1.113,9.1050005,-0.0551375,0.1346125,0.19525
1692533093150,14.817,-2.0689502,-0.141,8.158951,-0.7684875,0.58753747,1.0390875
1692533093178,14.845,-0.36195,-0.84705,9.106951,-1.0736,0.7481375,1.54
1692533093209,14.876,-0.12105001,-1.1580001,8.89605,-1.3894374,0.9933,2.2017875
1692533093243,14.91,-0.45795003,-1.06005,12.06795,-1.4757875,0.9189125,2.90345
1692533093265,14.932,-0.372,-1.146,12.1710005,-1.5010875,0.7258625,3.2588875
1692533093294,14.961,-0.44595003,-0.71295005,11.22795,-1.4020875,0.5284125,3.433925
1692533093324,14.991,0.15405001,-1.35,12.219001,-1.0022374,0.241725,3.296975
1692533093352,15.019,0.072000004,-1.04805,13.81095,-0.9563125,0.138875,3.151225
1692533093382,15.049,-0.027,-0.57705003,12.814951,-0.7970875,-0.054175,2.8040376
1692533093411,15.078,0.40005,-0.32295,12.622951,-0.6936875,-0.1387375,2.5137749
1692533093443,15.11,-0.135,0.47595003,12.118051,-0.5688375,-0.1969,2.1366124
1692533093472,15.139,-0.60405004,0.79395,10.395,-0.276375,-0.2347125,1.282325
1692533093507,15.174,0.78795004,-0.15300001,12.882001,0.0402875,-0.15675,0.42941248
1692533093529,15.196,0.40500003,0.54300004,11.515051,0.1557875,-0.109037496,0.0691625
1692533093559,15.226,0.22995001,1.31595,9.95895,0.20075,-0.1062875,-0.197725
1692533093589,15.256,0.52905005,0.957,11.544001,0.197725,-0.18315,-0.5677375
1692533093615,15.282,0.34995002,0.528,12.835951,0.2432375,-0.19525,-0.7541875
1692533093645,15.312,-0.29295,1.27995,11.05095,0.3564,-0.1860375,-0.979825
1692533093676,15.343,-0.564,1.6800001,10.41405,0.3504875,-0.1414875,-1.003475
1692533093703,15.37,-0.33405003,1.12695,11.604,0.3551625,-0.08195,-1.0553125
1692533093734,15.401,0.36705002,0.40905002,13.240951,0.37661248,-0.01375,-1.1130625
1692533093761,15.428,0.64395005,0.53805,10.878,0.3474625,0.06875,-1.0296
1692533093793,15.46,-0.74805003,0.11400001,11.769001,0.2613875,0.0506,-0.857725
1692533093821,15.488,0.120000005,-1.4310001,16.16805,0.0606375,-0.0367125,-0.429
1692533093848,15.515,0.22800002,-2.5129502,17.14995,-0.043725,-0.036849998,-0.15125
1692533093878,15.545,-1.32,-0.462,12.292951,-0.3735875,0.0246125,0.5913875
1692533093907,15.574,-1.12605,0.303,11.149051,-0.533225,0.0545875,0.8405375
1692533093938,15.605,-0.0010500001,-0.69405,12.385951,-0.5212625,0.1819125,0.8289875
1692533093967,15.634,-0.01305,-1.2589501,12.867001,-0.3837625,0.24035,0.725725
1692533093995,15.662,-0.42495003,-1.7400001,13.561951,-0.2707375,0.23925,0.645975
1692533094023,15.69,-1.0999501,-1.3780501,12.669001,-0.239525,0.1824625,0.61545
1692533094053,15.72,-1.3060501,-1.35405,10.464001,-0.335775,0.0726,0.669625
1692533094079,15.746,-0.84795004,-1.8259501,11.497951,-0.3950375,0.12925,0.68488747
1692533094109,15.776,-1.0900501,-1.8499501,11.77095,-0.4038375,0.181225,0.7096375
1692533094138,15.805,-2.052,-1.05495,10.09095,-0.41593748,0.2061125,0.76353747
1692533094166,15.833,-1.6309501,-0.10695001,8.071051,-0.419375,0.21615,0.7679375
1692533094196,15.863,-1.26705,0.43695003,5.63595,-0.3724875,0.258225,0.664125
1692533094226,15.893,-1.6530001,1.33305,7.9750504,-0.14093749,0.385275,0.2459875
1692533094255,15.922,-0.44400004,1.8690001,7.5870004,0.0374,0.4296875,-0.1197625
1692533094283,15.95,0.53400004,1.8589501,5.9040003,0.52195,0.4657125,-1.1759
1692533094313,15.98,-0.303,3.32205,5.60505,0.7984625,0.406725,-1.7791125
1692533094344,16.011,1.2070501,3.20895,5.6790004,1.2868625,0.063525,-2.898775
1692533094367,16.034,1.75995,2.4169502,4.69995,1.5274875,-0.159225,-3.41495
1692533094399,16.066,1.2,1.23195,8.68095,1.8530875,-0.7022125,-3.8786
1692533094429,16.096,0.29700002,1.0380001,9.435,1.7637125,-0.974325,-3.5264626
1692533094456,16.123,-0.063,0.76305,9.415951,1.073325,-1.1221375,-2.157925
1692533094486,16.153,0.20595,0.41295,9.574051,0.66165,-0.964975,-1.5910125
1692533094513,16.18,0.42900002,0.51405,9.29895,0.31735,-0.7436,-1.2061499
1692533094545,16.212,0.055050004,1.40205,8.260051,-0.1390125,-0.3799125,-0.7052375
1692533094573,16.24,0.30405003,1.4860501,8.4199505,-0.2556125,-0.2847625,-0.5399625
1692533094602,16.269,1.1880001,0.73200005,8.887051,-0.280225,-0.2330625,-0.4767125
1692533094629,16.296,0.88395005,0.34905002,9.093,-0.1392875,-0.2074875,-0.5258
1692533094661,16.328,1.03005,0.13605,9.8869505,-0.1120625,-0.2641375,-0.208175
1692533094691,16.358,0.50295,0.49500003,9.708,-0.1791625,-0.2855875,0.066
1692533094718,16.385,0.50100005,0.684,10.026,-0.256025,-0.278575,0.284625
1692533094744,16.411,0.47400004,0.83505005,8.81505,-0.3234,-0.1959375,0.4019125
1692533094774,16.441,-0.18300001,0.73695004,8.85795,-0.2866875,-0.1445125,0.329725
1692533094806,16.473,0.59205,0.26700002,10.227,-0.1524875,-0.0413875,0.1742125
1692533094833,16.5,0.642,0.40095,9.883051,-0.1071125,0.01815,0.15455
1692533094864,16.531,0.642,0.40095,9.883051,-0.1071125,0.01815,0.15455
1692533094891,16.558,-0.44595003,0.804,9.226951,-0.129525,0.0873125,0.2305875
1692533094919,16.586,-0.33900002,0.77205,9.660001,-0.10175,0.1291125,0.1043625
1692533094949,16.616,-0.44595003,0.81795,9.153001,-0.0628375,0.195525,-0.0207625
1692533094976,16.643,-0.324,0.61905,9.97605,-0.0270875,0.26015,-0.1390125
1692533095003,16.67,-0.14205001,0.59805006,10.608001,-0.002475,0.3034625,-0.22247499
1692533095033,16.7,0.201,0.78195006,9.859051,0.007425,0.3210625,-0.26455
1692533095065,16.732,0.39105,0.55905,10.15305,-0.015675,0.2325125,-0.1958
1692533095093,16.76,0.20895001,0.51195,10.3279505,-0.0191125,0.1552375,-0.1483625
1692533095122,16.789,0.16095,0.58605003,10.10295,-0.02255,0.0749375,-0.087037496
1692533095153,16.82,-0.058050003,0.67905,9.315001,-0.050875,-0.027775,0.0666875
1692533095181,16.848,-0.0010500001,0.47595003,9.61005,-0.049225,-0.0158125,0.22715
1692533095210,16.877,-0.22605,0.246,10.431001,-0.034375,0.011275,0.2952125
1692533095237,16.904,-0.32205,0.045,9.946951,-0.0484,0.0576125,0.3257375
1692533095266,16.933,-0.70995003,0.17895001,9.27705,-0.0873125,0.0837375,0.342375
1692533095294,16.961,-1.0489501,0.46605003,8.87205,-0.1318625,0.1192125,0.39105
1692533095326,16.993,-1.0350001,0.55905,9.081,-0.1634875,0.221925,0.39765
1692533095354,17.021,-0.95400006,0.86100006,9.391951,-0.1348875,0.2872375,0.2965875
1692533095384,17.051,-0.78105,1.7080501,9.385051,-0.036025,0.3810125,0.06545
1692533095411,17.078,-0.93495005,1.96395,9.153001,0.0265375,0.38279998,-0.0196625
1692533095441,17.108,-0.564,1.404,9.739051,0.25465,0.302775,-0.3344
1692533095475,17.142,-0.63495004,1.3369501,10.194,0.4753375,0.1716,-0.6835125
1692533095504,17.171,-0.42705002,1.6489501,8.545051,0.4745125,0.1101375,-0.6721
1692533095537,17.204,-0.50895,1.74405,7.7590504,0.4202,0.0605,-0.5665
1692533095560,17.227,-0.135,1.57395,7.7980504,0.3598375,0.000275,-0.403975
1692533095590,17.257,-0.18105,1.6339501,8.55405,0.3762,-0.02145,-0.3749625
1692533095624,17.291,-0.33900002,1.84695,8.7960005,0.3861,-0.0748,-0.2547875
1692533095655,17.322,-0.33600003,2.4460502,8.073,0.363,-0.09735,-0.150975
1692533095681,17.348,-0.31500003,2.6950502,8.004001,0.3383875,-0.106425,-0.0595375
1692533095708,17.375,-0.23295002,2.8549502,9.042001,0.384725,-0.1126125,-0.1183875
1692533095737,17.404,-0.39105,3.17595,8.905951,0.4676375,-0.1337875,-0.3009875
1692533095764,17.431,-0.24000001,3.42195,8.37705,0.623975,-0.2003375,-0.69575
1692533095795,17.462,-0.28605002,2.9989502,8.64,0.677325,-0.224125,-0.8149625
1692533095819,17.486,-0.93900007,2.601,9.106951,0.7310875,-0.23567499,-0.8756
1692533095850,17.517,-0.96300006,2.30205,8.68095,0.692175,-0.21175,-0.8151
1692533095879,17.546,-0.73095006,1.6489501,8.13,0.59785,-0.15619999,-0.713625
1692533095910,17.577,-0.74505,1.11705,8.83395,0.303875,0.0174625,-0.4536125
1692533095939,17.606,-2.28705,-0.18900001,8.82705,-0.054175,0.17215,-0.0484
1692533095967,17.634,-1.2739501,-0.61695004,10.89,-0.054175,0.17215,-0.0484
1692533095993,17.66,1.02705,-2.0650501,10.179001,-0.516725,0.368775,0.5570125
1692533096022,17.689,-0.37695003,-2.322,10.053,-1.197075,0.491975,1.680525
1692533096051,17.718,-1.21905,-1.9150501,11.57505,-1.538075,0.4109875,2.445025
1692533096081,17.748,-0.18300001,-1.6320001,10.785001,-1.784475,0.28325,3.1271625
1692533096108,17.775,-0.59895,-0.85905004,10.012051,-1.8484125,0.1434125,3.65145
1692533096139,17.806,-0.65895003,-0.531,9.97395,-1.44705,0.0699875,3.13335
1692533096175,17.842,-0.975,-0.47805002,9.126,-1.1930875,0.02915,2.74065
1692533096199,17.866,-0.28605002,-0.94995004,10.15095,-0.95315,0.0059125,2.39305
1692533096229,17.896,0.61995006,-1.55595,12.55605,-0.5731,0.0114124995,1.8591375
1692533096257,17.924,-0.50595003,-0.49305,12.216001,-0.4354625,-0.119075,1.3656499
1692533096283,17.95,-0.76500005,-0.048,11.08695,-0.4354625,-0.119075,1.3656499
1692533096311,17.978,-0.513,-0.23400001,11.2879505,-0.3727625,-0.2836625,0.8248625
1692533096341,18.008,-0.31695002,-0.19095,12.183001,-0.1079375,-0.1299375,0.3029125
1692533096368,18.035,-0.84105,0.41595003,10.902,0.015262499,-0.0468875,0.1197625
1692533096399,18.066,-0.89100003,0.066,10.536,0.154825,0.025575,-0.217525
1692533096425,18.092,-0.34095,-0.30105,11.72595,0.20927499,0.071775,-0.3958625
1692533096455,18.122,-0.21195,0.14505,10.870951,0.247775,0.120037496,-0.509575
1692533096486,18.153,-0.75495005,0.43005002,10.528951,0.2338875,0.1016125,-0.4582875
1692533096514,18.181,-0.64005005,0.40605003,10.993051,0.2167,0.0484,-0.4002625
1692533096546,18.213,-0.492,0.693,11.491051,0.2374625,0.0122375,-0.3876125
1692533096574,18.241,-0.91995007,0.27,10.6699505,0.2564375,0.0290125,-0.40315
1692533096603,18.27,-0.37905002,0.86100006,12.111001,0.2619375,0.060775,-0.4041125
1692533096631,18.298,-0.57795,1.6200001,11.055,0.2572625,0.06985,-0.4010875
1692533096660,18.327,-0.06795,1.368,9.33705,0.2695,0.066275,-0.444125
1692533096688,18.355,0.075,0.43695003,11.508,0.3762,0.007975,-0.7266875
1692533096723,18.39,-0.010950001,-0.31305,13.17405,0.43408749,-0.109037496,-0.8965
1692533096750,18.417,-0.62595004,-0.14295001,11.838,0.35227498,-0.1700875,-0.75515
1692533096778,18.445,0.051000003,-0.76095,12.621,0.204325,-0.2014375,-0.47547498
1692533096806,18.473,0.522,-1.8210001,15.027,-0.095425,-0.1417625,0.106425
1692533096834,18.501,-0.49695003,-1.09095,12.69795,-0.224675,-0.113299996,0.345675
1692533096861,18.528,-0.87495005,-0.95205003,11.319,-0.3636875,-0.1233375,0.6045875
1692533096892,18.559,-0.063,-1.04595,11.436001,-0.5522,-0.1406625,0.996325
1692533096922,18.589,-0.17295001,-1.3450501,12.228001,-0.4943125,-0.0501875,0.9433875
1692533096952,18.619,0.28005,-2.0700002,12.7570505,-0.4415125,-0.024475,0.843425
1692533096980,18.647,0.59205,-2.4169502,12.867001,-0.4076875,-0.0537625,0.67375
1692533097008,18.675,-0.21195,-1.9050001,11.568001,-0.4362875,-0.0933625,0.6494125
1692533097035,18.702,-1.2390001,-1.5510001,10.866,-0.476025,-0.1379125,0.65587497
1692533097066,18.733,-0.53505003,-1.491,10.512,-0.490875,-0.1335125,0.6769125
1692533097094,18.761,-0.06795,-1.4140501,10.825951,-0.4500375,-0.0581625,0.6886
1692533097121,18.788,-0.38205,0.21705002,8.181001,-0.392425,0.0231,0.6892875
1692533097148,18.815,-1.404,2.02905,5.7060003,-0.245025,0.082499996,0.4907375
1692533097174,18.841,-1.9879501,2.388,6.2250004,-0.104225,0.1065625,0.1896125
1692533097204,18.871,-0.76695,1.8900001,10.17195,0.42075,0.3018125,-0.7591375
1692533097231,18.898,0.76905006,2.6800501,9.64605,0.7470375,0.434775,-1.276825
1692533097263,18.93,0.22305001,2.604,3.9769502,1.2500125,0.417725,-2.238775
1692533097290,18.957,-1.6170001,2.53695,3.4320002,1.3882,0.1813625,-2.64165
1692533097318,18.985,0.32805002,0.07395,11.494051,1.4999875,-0.2814625,-3.062675
1692533097346,19.013,0.99600005,-0.55695003,9.79905,1.42505,-0.3048375,-2.9827874
1692533097382,19.049,-1.1719501,1.9480501,5.0620503,0.7591375,-0.2583625,-1.798775
1692533097410,19.077,-0.039,1.6680001,6.7900505,0.3768875,-0.295625,-1.0522875
1692533097436,19.103,0.31605002,1.0690501,9.87495,0.175175,-0.19415,-0.595375
1692533097463,19.13,-0.42705002,0.95205003,9.31305,0.238425,-0.117975,-0.6842
1692533097490,19.157,-0.39600003,1.1719501,8.157001,0.2534125,-0.106975,-0.6876375
1692533097522,19.189,-0.89100003,1.7509501,7.15395,0.1304875,-0.0991375,-0.454575
1692533097543,19.21,-1.0159501,1.8589501,7.3740005,0.1304875,-0.0991375,-0.454575
1692533097573,19.24,0.46695003,0.81600004,11.395051,0.1639,-0.0031625,-0.5204375
1692533097604,19.271,0.15105,1.62495,10.323001,0.213125,0.0375375,-0.56581247
1692533097634,19.301,-1.4610001,2.63205,7.5750003,0.1078,-0.01045,-0.3067625
1692533097662,19.329,-0.09,1.7869501,8.50395,-0.0210375,-0.1491875,0.0653125
1692533097690,19.357,0.32595003,1.0999501,10.057051,0.0818125,-0.1342,-0.124437496
1692533097719,19.386,-0.03705,0.82500005,9.696,0.2794,-0.0675125,-0.588225
1692533097749,19.416,-0.39405003,1.2390001,8.071051,0.21395,-0.086625,-0.53473747
1692533097780,19.447,-0.46500003,1.09605,8.652,-0.0345125,-0.105325,-0.1995125
1692533097809,19.476,-0.03705,0.49695003,10.585951,-0.0837375,-0.0697125,-0.1265
1692533097839,19.506,0.192,0.34395,11.026951,-0.095699996,-0.0182875,-0.0837375
1692533097867,19.534,0.14205001,0.96900004,9.603001,-0.2101,0.0396,0.1797125
1692533097897,19.564,0.10095,1.3110001,9.20505,-0.3097875,0.016775,0.35365
1692533097925,19.592,0.25395,1.0720501,9.82995,-0.3422375,-0.06765,0.38005
1692533097954,19.621,0.23700002,0.87105006,10.548,-0.2607,-0.0985875,0.230175
1692533097983,19.65,0.22800002,0.93000007,9.715051,-0.1093125,-0.137225,-0.05115
1692533098012,19.679,0.087000005,1.08405,9.583051,-0.0900625,-0.1450625,-0.088825
1692533098039,19.706,0.17295001,0.96405005,9.708,-0.0884125,-0.1420375,-0.0752125
1692533098069,19.736,0.55605,0.93000007,10.036051,-0.0609125,-0.10945,-0.0471625
1692533098099,19.766,0.25605002,1.4070001,9.98295,-0.038225,-0.0952875,-0.0677875
1692533098128,19.795,0.23295002,1.5289501,9.15705,-0.0352,-0.1034,-0.0639375
1692533098160,19.827,0.21300001,1.5649501,9.078,0.0352,-0.1139875,-0.1227875
1692533098186,19.853,0.37905002,1.299,9.303,0.1027125,-0.110825,-0.1962125
1692533098214,19.881,0.546,1.01205,9.46605,0.1628,-0.105325,-0.2484625
1692533098241,19.908,0.49605003,1.026,9.265051,0.1918125,-0.1013375,-0.24475
1692533098270,19.937,0.26595002,1.14795,9.10005,0.1342,-0.1076625,-0.1043625
1692533098301,19.968,0.21300001,1.3039501,9.253051,0.036025,-0.1142625,-0.0202125
1692533098330,19.997,-0.01305,1.7010001,8.72595,0.016224999,-0.1032625,-0.05115
1692533098359,20.026,0.15105,1.70595,8.676001,0.018424999,-0.084975,-0.127325
1692533098385,20.052,0.24900001,1.608,9.84195,0.0897875,-0.0517,-0.3694625
1692533098420,20.087,0.13905,1.6030501,9.366,0.1808125,-0.0380875,-0.4833125
1692533098446,20.113,-0.135,1.7629501,9.31305,0.18727499,-0.03575,-0.4368375
1692533098475,20.142,0.13005,1.725,9.045,0.172425,-0.0306625,-0.375375
1692533098503,20.17,0.10095,2.0989501,8.533051,0.1516625,-0.0042625,-0.372075
1692533098535,20.202,0.010050001,2.4499502,7.563,0.1577125,0.0053625,-0.39655
1692533098564,20.231,-0.018000001,2.5840502,7.4290504,0.2316875,-0.0044,-0.425425
1692533098593,20.26,0.21795002,2.9580002,7.7470503,0.313225,-0.0202125,-0.49665
1692533098620,20.287,0.43800002,3.0940502,9.436951,0.405625,-0.0449625,-0.6070625
1692533098647,20.314,1.0870501,3.2640002,6.8550005,0.5592125,-0.1291125,-0.755975
1692533098677,20.344,1.2910501,3.4099503,5.94495,0.6120125,-0.181775,-0.72833747
1692533098702,20.369,1.314,3.14895,5.55705,0.7110125,-0.33605,-0.518925
1692533098735,20.402,1.161,2.0359502,8.865001,0.7797625,-0.443575,-0.418825
1692533098763,20.43,-0.018000001,1.71105,7.8550506,0.7781125,-0.5688375,-0.1909875
1692533098790,20.457,0.16800001,0.64995,6.6319504,0.598675,-0.50215,0.0042625
1692533098819,20.486,-0.537,-0.88995004,8.20005,0.061875,-0.152075,0.31735
1692533098846,20.513,-1.2720001,-2.38905,11.479051,-0.1923625,0.05335,0.4362875
1692533098875,20.542,-1.2100501,-2.709,12.276001,-0.490325,0.2899875,0.6934125
1692533098903,20.57,-1.179,-2.53695,11.7619505,-1.3842125,0.91987497,1.96845
1692533098934,20.601,-1.047,-2.9920502,10.189051,-1.7996,1.1477125,2.7908375
1692533098961,20.628,-1.3300501,-3.35295,11.934001,-2.035275,1.20175,3.4435499
1692533098994,20.661,-0.98505,-3.693,13.453951,-2.058375,0.944625,3.955875
1692533099019,20.686,-1.2,-2.6539502,12.195001,-1.989075,0.7528125,3.9466624
1692533099055,20.722,-1.6620001,-0.99105006,10.585951,-1.781175,0.3861,3.59315
1692533099081,20.748,-0.31005,-1.07895,10.897051,-1.294425,0.211475,2.7269
1692533099108,20.775,-0.051000003,-1.0530001,10.081051,-0.95411247,0.212575,2.142525
1692533099136,20.803,-0.43005002,-0.92595005,10.675051,-0.621225,0.2079,1.5376625
1692533099166,20.833,-0.32895002,-1.6990501,12.310051,-0.16499999,0.055275,0.6381375
1692533099193,20.86,0.039,-2.2039502,13.554001,-0.0495,-0.0345125,0.4125
1692533099222,20.889,-0.53505003,-1.5799501,12.927001,0.0055,-0.0950125,0.2794
1692533099251,20.918,-1.0639501,-0.82305,10.962001,-0.02475,-0.176825,0.161425
1692533099278,20.945,-0.21195,-0.77295005,11.841001,-0.0077,-0.1255375,0.007425
1692533099310,20.977,0.048,-0.98100007,12.436951,0.062425,-0.0413875,-0.1596375
1692533099337,21.004,-0.85995007,-0.77505004,11.686951,0.1376375,0.0215875,-0.3509
1692533099374,21.041,0.177,-1.11,13.45905,0.2123,0.0257125,-0.639375
1692533099400,21.067,0.25905,-1.0890001,13.276951,0.2123,0.0257125,-0.639375
1692533099427,21.094,-0.34800002,-1.9960501,11.838,0.2212375,-0.0281875,-0.74909997
1692533099453,21.12,-0.102000006,-2.9890501,14.36295,0.1854875,-0.056925,-0.626725
1692533099484,21.151,-0.52305,-4.42605,17.844002,-0.0125124995,-0.110275,-0.05115
1692533099512,21.179,-2.0740502,-2.8170002,13.911,-0.176275,-0.1428625,0.349525
1692533099540,21.207,-2.4469502,-1.7209501,12.34605,-0.3449875,-0.1672,0.7129375
1692533099570,21.237,-0.47700003,-2.2039502,12.298051,-0.49568748,-0.0441375,1.0415624
1692533099597,21.264,-0.3,-2.496,13.549951,-0.4503125,0.0858,1.0393625
1692533099626,21.293,0.201,-2.8270502,12.528001,-0.2908125,0.1555125,0.8674875
1692533099655,21.322,-1.023,-2.2450502,12.1369505,-0.2407625,0.07425,0.7313625
1692533099683,21.35,-1.5589501,-2.43195,11.70705,-0.2055625,-0.08965,0.5269
1692533099712,21.379,-1.353,-2.9530501,11.371051,-0.198275,-0.1013375,0.49555
1692533099742,21.409,-1.6789501,-2.523,10.30605,-0.206525,0.009075,0.539825
1692533099773,21.44,-1.72395,-1.4500501,10.005,-0.236775,0.0653125,0.590425
1692533099801,21.468,-0.15900001,-1.2610501,8.68095,-0.269225,0.0979,0.6598625
1692533099835,21.502,-0.38895002,0.15,6.8910003,-0.2091375,0.1351625,0.6617875
1692533099853,21.52,-1.5640501,1.9260001,6.9030004,-0.098175,0.1364,0.4261125
1692533099890,21.557,-0.20505,3.7879503,7.4100003,0.2591875,0.1645875,-0.512325
1692533099918,21.585,0.87195003,3.4990501,6.6580505,1.0527,0.4406875,-2.0651126
1692533099945,21.612,1.24995,3.0559502,5.35395,1.59115,0.495825,-3.2129624
1692533099975,21.642,2.18805,1.11,4.58295,2.0493,0.3372875,-4.3192873
1692533100003,21.67,2.72895,0.081,5.643,2.3002374,0.0039875,-4.9605875
1692533100033,21.7,0.47400004,0.97395,8.00805,2.0658,-0.7294375,-4.2988
1692533100058,21.725,-0.81000006,1.43295,9.01605,1.1829125,-1.13355,-2.209625
1692533100087,21.754,-0.23805001,1.3609501,8.475,0.803275,-1.050775,-1.435225
1692533100117,21.784,1.4460001,0.81795,8.226001,0.5685625,-0.7698625,-1.0483
1692533100142,21.809,0.47205,1.2730501,7.15395,0.346775,-0.2281125,-0.7976375
1692533100173,21.84,0.55995005,0.97395,8.51595,0.26565,-0.1816375,-0.628375
1692533100202,21.869,1.9270501,0.26505002,10.528951,0.17847499,-0.2365,-0.33605
1692533100230,21.897,1.2229501,0.61695004,9.8539505,0.1397,-0.2325125,-0.215875
1692533100261,21.928,-0.030000001,1.05495,8.248051,-0.05995,-0.2905375,0.2805
1692533100288,21.955,-0.453,1.35405,9.19995,-0.13859999,-0.301675,0.455125
1692533100316,21.983,-0.44400004,1.0020001,9.913951,-0.1434125,-0.22385,0.4225375
1692533100344,22.011,-0.81195,0.83205,9.258,-0.0331375,0.12375,0.003575
1692533100373,22.04,-0.10395,0.58305,10.09305,-0.0022,0.2803625,-0.162525
1692533100402,22.069,0.20595,0.43695003,9.579,-0.0055,0.3900875,-0.2448875
1692533100429,22.096,0.61605,0.94995004,9.64095,-0.066825,0.4505875,-0.201025
1692533100459,22.126,-0.0010500001,0.72195005,8.36505,-0.120175,0.27719998,0.0055
1692533100489,22.156,-0.38895002,0.025950002,9.208051,-0.1111,0.1678875,0.0787875
1692533100522,22.189,0.112950005,0.028050002,12.172951,-0.092125,0.0864875,0.1945625
1692533100554,22.221,-0.47505003,1.146,9.95205,-0.1489125,0.12155,0.32175
1692533100580,22.247,-0.84405005,1.69605,8.367001,-0.23127499,0.165275,0.463925
1692533100609,22.276,-0.37005,1.2919501,9.40905,-0.2140875,0.19855,0.3738625
1692533100636,22.303,-0.28800002,1.02405,10.203,-0.0702625,0.2079,0.0606375
1692533100667,22.334,-0.051000003,0.66,10.44495,0.2154625,0.1945625,-0.6062375
1692533100696,22.363,0.28005,0.21705002,10.081051,0.2332,0.1489125,-0.70675
1692533100725,22.392,0.65595,-0.025950002,10.45005,0.071225,0.0339625,-0.44935
1692533100752,22.419,0.29205,0.351,10.10295,-0.034649998,-0.0221375,-0.22935
1692533100781,22.448,-0.025050001,0.44505003,9.72,-0.20955,-0.1439625,0.1898875
1692533100810,22.477,-0.37005,0.48795003,9.504001,-0.2426875,-0.1744875,0.32065
1692533100840,22.507,-0.46095002,0.44700003,9.279,-0.1975875,-0.103125,0.3513125
1692533100870,22.537,-0.16905001,0.291,9.30105,-0.1584,-0.025575,0.2871
1692533100897,22.564,-0.102000006,0.47805002,8.99205,-0.1271875,0.0488125,0.2072125
1692533100925,22.592,-0.23805001,0.92100006,9.186001,-0.0946,0.11275,0.092675
1692533100957,22.624,-0.04695,0.97800004,9.34395,-0.0383625,0.082775,0.022275
1692533100987,22.654,-0.13305001,0.99000007,9.27495,0.0191125,0.0669625,-0.0103124995
1692533101013,22.68,-0.31005,1.0210501,9.361051,0.0803,0.0526625,-0.012925
1692533101044,22.711,-0.46995002,1.0570501,9.96195,0.1579875,0.0320375,0.041249998
1692533101073,22.74,-0.52995,1.2100501,9.568951,0.171875,0.039325,0.0259875
1692533101106,22.773,-0.69495004,1.3780501,9.217051,0.1799875,0.081125,-0.1725625
1692533101135,22.802,-0.73800004,1.4280001,9.366,0.1947,0.1005125,-0.319275
1692533101163,22.83,-0.84105,1.43295,9.43995,0.2558875,0.1302125,-0.5674625
1692533101192,22.859,-0.95400006,1.35195,9.492001,0.2805,0.1428625,-0.63621247
1692533101220,22.887,-0.77205,1.36395,9.52095,0.2902625,0.155375,-0.65945
1692533101248,22.915,-0.19995001,1.4929501,9.460951,0.268125,0.1791625,-0.5935875
1692533101277,22.944,-0.32205,1.9260001,8.23095,0.2410375,0.1698125,-0.506825
1692533101305,22.972,-0.56805,2.1370502,7.5679502,0.209825,0.0638,-0.3284875
1692533101334,23.001,0.0049500004,1.78005,8.455951,0.2459875,-0.003025,-0.3496625
1692533101362,23.029,0.62295,1.67505,9.571051,0.3883,-0.082499996,-0.548625
1692533101390,23.057,0.24405001,2.493,8.413051,0.4148375,-0.114125,-0.5198875
1692533101427,23.094,-1.06605,3.1330502,6.867,0.3568125,-0.2297625,-0.1793
1692533101454,23.121,-0.051000003,2.1660001,8.905951,0.38073748,-0.2718375,-0.149325
1692533101481,23.148,-0.102000006,1.4239501,9.535951,0.5825875,-0.2195875,-0.5391375
1692533101509,23.176,-0.80295,1.24905,8.82495,0.59675,-0.1705,-0.62425
1692533101537,23.204,-0.64695,1.1340001,8.133,0.467775,-0.123475,-0.4741
1692533101567,23.234,-1.2580501,-0.26505002,7.8960004,0.247225,-0.0628375,-0.19305
1692533101593,23.26,-0.31905,-1.1200501,11.89605,-0.1376375,0.120037496,0.215325
1692533101622,23.289,0.55095005,-1.4260501,10.335,-0.6076125,0.367675,0.8575875
1692533101653,23.32,-0.53505003,-1.1220001,6.5670004,-0.93555,0.4263875,1.4620374
1692533101681,23.348,-0.18300001,-1.5769501,9.910951,-1.20285,0.383625,2.052875
1692533101712,23.379,0.39795002,-2.0010002,13.063951,-1.362625,0.187825,2.685375
1692533101745,23.412,-0.38595003,-1.0360501,10.737,-1.3165625,0.0257125,2.9550126
1692533101773,23.44,0.0,-0.57900006,10.069051,-1.2560625,-0.0661375,2.98595
1692533101800,23.467,-0.08505,-0.31800002,10.61295,-0.95425,-0.14135,2.586925
1692533101827,23.494,-0.549,0.08505,12.349951,-0.744975,-0.130075,2.21265
1692533101855,23.522,-0.26700002,-0.34905002,10.45695,-0.5372125,-0.1164625,1.7895625
1692533101885,23.552,-0.252,-0.36405003,10.8810005,-0.1782,-0.0631125,0.951775
1692533101913,23.58,0.22995001,-0.96405005,11.722951,-0.060775,-0.02805,0.6578
1692533101943,23.61,-0.34095,-0.684,12.769051,-0.0075625,-0.01485,0.502425
1692533101977,23.644,-1.04205,0.51195,11.067,-0.0394625,-0.0353375,0.549725
1692533102003,23.67,-0.81195,0.73905003,10.534051,-0.05115,-0.0127875,0.4598
1692533102033,23.7,-0.91305006,0.66495,10.91205,0.02585,0.0589875,0.2501125
1692533102061,23.728,-0.453,0.41595003,11.625001,0.2517625,0.1973125,-0.2728
1692533102089,23.756,-0.83895004,0.40905002,11.38605,0.32793748,0.216975,-0.4774
1692533102116,23.783,-1.179,0.87495005,11.0460005,0.362725,0.2036375,-0.6150375
1692533102145,23.812,-0.59205,0.957,12.0060005,0.35365,0.1606,-0.71665
1692533102173,23.84,-0.12795001,0.79395,11.742001,0.3498,0.1610125,-0.72765
1692533102203,23.87,-0.528,0.54,10.773001,0.3685,0.1005125,-0.737275
1692533102229,23.896,-0.41805002,0.33900002,11.047951,0.36313748,0.0275,-0.6901125
1692533102259,23.926,0.606,0.504,11.69505,0.3344,-0.0312125,-0.5984
1692533102289,23.956,-0.52995,0.33195,11.482051,0.204325,-0.0897875,-0.344025
1692533102326,23.993,-0.27405003,0.354,12.49905,0.0694375,-0.15565,0.011275
1692533102355,24.022,0.031050002,-0.043050002,11.70705,0.0312125,-0.1557875,0.17875
1692533102382,24.049,-0.14895001,-0.57900006,11.532001,-0.0240625,-0.106837496,0.34705
1692533102409,24.076,-0.31695002,-0.933,12.670951,-0.0653125,-0.100237496,0.3873375
1692533102438,24.105,-0.56595004,-1.077,13.264951,-0.1296625,-0.1027125,0.4552625
1692533102465,24.132,-0.61905,-0.70305,12.772051,-0.2996125,-0.0743875,0.6859875
1692533102495,24.162,-0.786,-0.84495,11.629951,-0.366575,-0.0405625,0.80355
1692533102526,24.193,0.35505003,-2.0269501,12.975,-0.4096125,0.0352,0.9306
1692533102560,24.227,1.0819501,-2.7210002,14.60805,-0.4200625,0.043725,0.9097
1692533102586,24.253,-1.07595,-0.43500003,12.54705,-0.48014998,-0.0303875,0.9189125
1692533102615,24.282,-0.52995,-0.109950006,7.93695,-0.5520625,-0.1309,0.921525
1692533102644,24.311,0.59895,-0.8880001,7.5679502,-0.4651625,-0.159225,0.6296125
1692533102673,24.34,-0.86295,0.25305,10.744051,-0.31075,-0.0847,0.3744125
1692533102702,24.369,-1.3579501,1.23,8.62395,-0.095699996,-0.0017875,0.028875
1692533102731,24.398,-3.31395,2.8620002,3.3340502,-0.0111375,0.033,-0.13145
1692533102766,24.433,-0.37905002,0.96900004,8.03505,0.389675,0.331925,-0.8100125
1692533102788,24.455,0.61995006,1.38495,11.476951,0.6708625,0.5608625,-1.3145
1692533102820,24.487,-0.72405005,2.874,9.0379505,0.997975,0.5663625,-2.181575
1692533102854,24.521,-2.4760501,2.19405,4.602,1.01805,0.2926,-2.42495
1692533102881,24.548,-0.92505,0.85605,7.5850506,1.14345,-0.0886875,-2.9050999
1692533102911,24.578,0.72795004,-0.36795002,10.93305,1.2056,-0.093775,-3.0369625
1692533102940,24.607,-0.40995002,0.12900001,8.596951,1.132175,-0.0518375,-2.8653624
1692533102968,24.635,-0.69795,1.299,6.642,0.4877125,-0.1084875,-1.5448124
1692533102996,24.663,0.052950002,0.97395,7.8360004,0.1571625,-0.17613749,-0.8925125
1692533103023,24.69,-0.48705003,1.2079501,8.844001,-0.0353375,-0.15895,-0.4310625
1692533103055,24.722,-2.29695,1.677,7.45305,0.0105875,-0.13859999,-0.418275
1692533103083,24.75,-1.5310501,0.59295005,7.9579506,0.1139875,-0.0917125,-0.477125
1692533103111,24.778,1.212,0.31305,11.829,0.1766875,0.048675,-0.59565
1692533103142,24.809,0.49305,0.91395,12.03705,0.21779999,0.2215125,-0.6912125
1692533103174,24.841,-2.28495,2.28495,6.5290504,0.0015125,0.104225,-0.2160125
1692533103204,24.871,-0.64305,1.14795,8.79105,-0.1445125,-0.2682625,0.159775
1692533103230,24.897,0.07005,0.81795,9.732,-0.0039875,-0.2198625,-0.0925375
1692533103257,24.924,-0.92505,1.503,8.643001,0.16335,-0.101475,-0.3953125
1692533103283,24.95,-1.09695,1.8880501,8.134951,0.2022625,-0.0452375,-0.4093375
1692533103313,24.98,0.52500004,1.2100501,9.0709505,0.1574375,-0.06325,-0.3025
1692533103339,25.006,0.63705003,1.0639501,9.448951,0.17435,-0.0532125,-0.321475
1692533103368,25.035,-0.89100003,1.251,9.909,0.2437875,-0.1054625,-0.389675
1692533103395,25.062,-0.40305,1.029,10.222051,0.1896125,-0.2006125,-0.2453
1692533103426,25.093,0.076950006,1.2870001,10.1959505,0.020624999,-0.2479125,0.0320375
1692533103454,25.121,0.177,1.28205,9.106951,-0.0306625,-0.1948375,0.061875
1692533103484,25.151,-0.17805001,0.933,9.688951,-0.055825,-0.172975,0.00165
1692533103516,25.183,0.058050003,0.39705002,10.9789505,-0.044825,-0.202125,-0.0441375
1692533103543,25.21,0.079050004,0.33900002,10.861951,-0.0807125,-0.2068,-0.013062499
1692533103572,25.239,-0.00795,0.411,10.31595,-0.15895,-0.17875,0.0928125
1692533103602,25.269,-0.20505,0.68100005,9.705001,-0.3234,-0.1232,0.328625
1692533103628,25.295,-0.12105001,0.86100006,9.526051,-0.3499375,-0.098175,0.3686375
1692533103659,25.326,-0.039,0.78705,9.543,-0.280775,-0.047849998,0.268125
1692533103694,25.361,0.24405001,0.55905,9.526051,-0.2156,-0.030524999,0.170775
1692533103721,25.388,0.35205,0.93000007,9.66195,-0.0996875,-0.0325875,0.00385
1692533103749,25.416,0.015000001,1.2970501,9.684,-0.06215,-0.0548625,-0.029424999
1692533103776,25.443,0.45795003,0.46800002,9.363001,-0.036575,-0.084425,-0.02145
1692533103805,25.472,-0.29805002,0.94695,10.155001,-0.0105875,-0.121825,0.0658625
1692533103834,25.501,-0.51105005,1.12695,10.419001,-0.0072875,-0.115775,0.095699996
1692533103861,25.528,-0.36705002,1.266,9.76305,0.0149875,-0.0396,-0.047849998
1692533103890,25.557,-0.64995,1.7899501,8.944051,0.039875,0.0165,-0.2035
1692533103919,25.586,-0.25005,1.54305,9.265051,0.076175,0.0636625,-0.3625875
1692533103947,25.614,0.273,1.28205,9.492001,0.199925,0.1101375,-0.6331875
1692533103979,25.646,0.11805001,1.55505,7.3170004,0.2696375,0.057475,-0.6859875
1692533104006,25.673,-0.21195,1.5619501,7.9990506,0.2696375,0.057475,-0.6859875
1692533104030,25.697,0.11805001,1.7179501,8.403001,0.245575,-0.06215,-0.53075
1692533104057,25.724,0.23700002,2.14395,7.3669505,0.27513748,-0.0939125,-0.49115
1692533104081,25.748,-0.11595,2.53395,7.6090503,0.29865,-0.100375,-0.4915625
1692533104108,25.775,-0.12105001,2.5200002,8.260051,0.3372875,-0.124575,-0.5061375
1692533104136,25.803,-0.16095,2.47005,8.7310505,0.4057625,-0.1557875,-0.582725
1692533104165,25.832,-0.58995,2.6850002,9.526051,0.5542625,-0.1827375,-0.865975
1692533104188,25.855,-0.55605,2.5530002,10.665001,0.5770875,-0.1739375,-0.9244125
1692533104216,25.883,-0.20700002,2.328,11.448001,0.5636125,-0.14533749,-0.895675
1692533104246,25.913,0.91005003,2.87205,9.86295,0.440825,-0.026124999,-0.629475
1692533104275,25.942,0.924,3.1519501,6.5389504,0.3377,0.02365,-0.38541248
1692533104305,25.972,0.92700005,2.1700501,5.9089503,0.24887499,-0.0774125,0.0193875
1692533104332,25.999,1.0009501,0.66195005,9.684,0.3240875,-0.2079,0.050049998
1692533104359,26.026,-0.53505003,-0.91905004,10.93095,0.408925,-0.3158375,0.056375
1692533104387,26.054,-1.8679501,-0.75105006,8.30805,0.139975,-0.2569875,0.5324
1692533104418,26.085,-1.4419501,-0.34695002,6.32595,-0.64845,0.287925,1.4216125
1692533104449,26.116,-0.38595003,-0.531,7.2349505,-0.9207,0.61435,1.6721375
1692533104472,26.139,-0.633,-0.64395005,7.5100503,-1.039225,0.846175,1.7754
1692533104508,26.175,-0.86805004,-0.57405,8.31705,-1.040875,0.88825,1.9954
1692533104533,26.2,-0.68295,-1.04295,10.09305,-1.0263,0.7896625,2.1839125
1692533104562,26.229,-0.38205,-1.21305,11.376,-1.02795,0.599775,2.5843124
1692533104590,26.257,-0.98700005,-1.3260001,11.70705,-1.0269876,0.49335,2.768975
1692533104618,26.285,-1.0570501,-1.09395,13.734,-1.0344125,0.3686375,2.8865376
1692533104648,26.315,-0.312,-1.04295,13.654951,-1.0099375,0.1706375,2.781625
1692533104677,26.344,0.02205,-0.93600005,11.556001,-0.92565,0.116875,2.567125
1692533104706,26.373,0.058050003,-0.34695002,12.405001,-0.6725125,-0.0209,1.8898
1692533104735,26.402,0.522,-0.71295005,15.30405,-0.5413375,-0.1079375,1.5096124
1692533104763,26.43,0.28305,-0.19095,13.480051,-0.2833875,-0.2385625,0.8218375
1692533104798,26.465,-0.63495004,0.14805001,11.88105,-0.1711875,-0.285175,0.5138375
1692533104823,26.49,-0.33105,-0.097950004,12.16905,-0.0070125,-0.302775,-0.02805
1692533104851,26.518,-0.30705002,-0.31800002,12.654,0.06435,-0.2431,-0.23127499
1692533104878,26.545,-0.915,-0.024,11.103001,0.148775,-0.083325,-0.4444
1692533104908,26.575,-1.3800001,0.27705002,9.342,0.14973749,-0.02695,-0.5009125
1692533104935,26.602,-0.65895003,-0.12900001,10.378051,0.1439625,0.032175,-0.5484875
1692533104966,26.633,-0.15900001,-0.55305004,12.645,0.1516625,0.1907125,-0.5141125
1692533104995,26.662,-0.025050001,-0.33705002,12.135,0.1436875,0.2226125,-0.4261125
1692533105025,26.692,-0.102000006,-0.052050002,11.259001,0.0675125,0.1007875,-0.30153748
1692533105052,26.719,-0.078,-0.049950004,11.44095,0.03135,0.0158125,-0.3056625
1692533105083,26.75,-0.04695,-1.1410501,13.935,0.0154,-0.0902,-0.371525
1692533105112,26.779,-0.86505,-1.7370001,14.0119505,0.0031625,-0.115775,-0.34553748
1692533105139,26.806,-1.0489501,-1.5820501,13.803,-0.1351625,-0.11495,0.06545
1692533105167,26.834,-1.1740501,-1.0890001,13.258051,-0.23815,-0.071225,0.3994375
1692533105198,26.865,-1.09695,-0.39705002,11.962951,-0.3166625,-0.0037125,0.678975
1692533105225,26.892,-1.5810001,-0.591,12.23805,-0.302225,0.1285625,0.759
1692533105254,26.921,-1.3270501,-1.5079501,12.958051,-0.2226125,0.17545,0.605825
1692533105287,26.954,-0.61395,-1.608,12.61095,-0.08415,0.2398,0.328625
1692533105314,26.981,-0.39105,-1.5510001,10.62495,-0.0875875,0.24035,0.3320625
1692533105346,27.013,0.33495003,-1.4140501,11.601001,-0.2074875,0.1232,0.5878125
1692533105373,27.04,-0.56805,-0.56505,12.1060505,-0.260975,0.0312125,0.687775
1692533105405,27.072,-3.144,1.1910001,9.6,-0.25575,-0.1232,0.54175
1692533105432,27.099,-2.01405,1.6099501,4.65495,-0.1626625,-0.1137125,0.3416875
1692533105461,27.128,0.24405001,0.10695001,4.44705,0.22013749,0.228525,-0.1711875
1692533105489,27.156,0.252,-0.19605,7.48395,0.4261125,0.4109875,-0.4697
1692533105519,27.186,0.91695005,-0.40905002,10.45005,0.5484875,0.44605,-0.7038625
1692533105547,27.214,0.34005,0.91605,8.53695,0.455125,0.08745,-0.777975
1692533105576,27.243,-1.8940501,1.9069501,5.703,0.3488375,-0.1483625,-0.7715125
1692533105605,27.272,-2.80905,2.7970502,6.67995,0.3950375,-0.367125,-1.199275
1692533105632,27.299,0.63495004,1.4620501,9.05895,0.58341247,-0.2413125,-1.6347375
1692533105665,27.332,1.70895,0.88005006,6.63705,1.051875,0.1395625,-2.582525
1692533105693,27.36,-0.64500004,1.8330001,6.4759502,1.14125,0.071225,-2.7839625
1692533105723,27.39,0.3,1.0860001,8.928,0.8908625,-0.4156625,-2.2356124
1692533105750,27.417,0.36195,0.88695,9.828,0.7231125,-0.52854997,-1.8018
1692533105776,27.443,-0.693,1.146,9.073951,0.584375,-0.5115,-1.43715
1692533105805,27.472,-0.75495005,1.6390501,9.265051,0.312675,-0.3667125,-0.91245
1692533105834,27.501,-0.25005,2.2350001,7.872,0.2101,-0.2707375,-0.72627497
1692533105863,27.53,-0.34605002,2.13,7.79505,0.2193125,-0.063525,-0.61215
1692533105893,27.56,0.70605004,1.1029501,10.6699505,0.3172125,-0.0298375,-0.6974
1692533105917,27.584,0.92205006,0.78405005,11.953051,0.455125,-0.082225,-0.77825
1692533105946,27.613,-0.40095,1.1389501,9.03495,0.3768875,-0.1428625,-0.5944125
1692533105977,27.644,-1.15695,1.1220001,6.9960003,0.0561,-0.2237125,-0.0389125
1692533106014,27.681,-0.30705002,0.72900003,9.613951,-0.0389125,-0.1463,0.0479875
1692533106039,27.706,-0.13695,0.88305,9.394051,-0.0988625,0.1167375,-0.0996875
1692533106071,27.738,-0.19695,1.2580501,8.51595,-0.13859999,0.16499999,-0.0658625
1692533106098,27.765,-0.63105005,1.3879501,8.18805,-0.1824625,0.1496,0.0776875
1692533106127,27.794,0.22500001,0.42795002,9.79605,-0.159775,0.0776875,0.20735
1692533106154,27.821,0.86700004,0.51195,10.926001,-0.106425,0.0506,0.1241625
1692533106180,27.847,0.32805002,0.91095006,10.929001,-0.08745,0.01925,0.0889625
1692533106215,27.882,-0.79800004,1.3660501,9.291,-0.205975,-0.089925,0.3647875
1692533106241,27.908,-0.58500004,0.83895004,10.12695,-0.211475,-0.1318625,0.3933875
1692533106268,27.935,-0.53205,0.73905003,10.729951,-0.1364,-0.073425,0.18493749
1692533106295,27.962,-0.76500005,0.98505,10.045051,-0.05995,0.080575,-0.0895125
1692533106323,27.99,-0.46305,0.92295,9.19095,-0.0814,0.132825,-0.054449998
1692533106353,28.02,-0.06105,0.47805002,9.579,-0.0996875,0.16665,0.0097624995
1692533106383,28.05,0.12495001,0.22695,9.94995,-0.091575,0.1595,0.0820875
1692533106413,28.08,0.252,0.17205001,9.79605,-0.110275,0.1093125,0.14465
1692533106441,28.108,0.273,0.25305,9.430051,-0.2212375,-0.023924999,0.3955875
1692533106471,28.138,-0.025050001,0.51405,9.33405,-0.268125,-0.080575,0.48235
1692533106497,28.164,-0.051000003,0.64305,9.16695,-0.28545,-0.12595,0.4763
1692533106526,28.193,-0.25995,0.61005,9.4470005,-0.22687499,-0.154825,0.2712875
1692533106555,28.222,-0.042000003,0.61200005,10.689,-0.168575,-0.1309,0.1755875
1692533106586,28.253,0.15105,0.564,10.93095,-0.1111,-0.093225,0.11055
1692533106612,28.279,-0.64005005,0.933,9.741,-0.0435875,-0.0389125,0.00165
1692533106642,28.309,-0.43905002,0.88695,9.75105,-0.0177375,-0.0155375,-0.0715
1692533106672,28.339,0.19695,0.84705,10.182,0.0094875,0.018975,-0.1016125
1692533106701,28.368,-0.33600003,1.2079501,9.327001,0.07755,0.073699996,-0.1901625
1692533106729,28.396,-0.22605,1.1719501,9.106951,0.098725,0.0523875,-0.2319625
1692533106758,28.425,-0.10395,0.98295003,9.62205,0.121275,0.018975,-0.2806375
1692533106787,28.454,-0.15900001,0.768,9.96195,0.17325,-0.005225,-0.3157
1692533106817,28.484,-0.49905002,0.96405005,9.220051,0.1725625,-0.00495,-0.23155
1692533106844,28.511,-0.71895003,1.2270001,8.70705,0.1131625,0.0053625,-0.014162499
1692533106875,28.542,-0.34605002,1.11195,9.543,0.092125,0.0268125,0.0031625
1692533106903,28.57,-0.17595,1.005,9.892051,0.1183875,0.0968,-0.1236125
1692533106933,28.6,-0.40800002,1.53795,8.72595,0.13585,0.1111,-0.1601875
1692533106961,28.628,-0.46305,1.66005,8.145,0.136675,0.0972125,-0.1406625
1692533106989,28.656,-0.34095,1.6800001,8.98305,0.156475,0.039875,-0.150425
1692533107019,28.686,-0.72195005,1.7160001,8.691,0.205425,0.0218625,-0.2635875
1692533107049,28.716,-0.86295,1.3090501,8.475,0.3051125,0.013612499,-0.450175
1692533107074,28.741,-0.74295,1.16295,10.234051,0.3218875,0.033275,-0.4373875
1692533107106,28.773,-0.16395001,1.52205,11.853001,0.2688125,0.10175,-0.3499375
1692533107135,28.802,-0.22605,2.5510502,9.670051,0.1887875,0.1164625,-0.3037375
1692533107163,28.83,-0.43905002,3.1920002,7.69995,0.098175,0.095699996,-0.250525
1692533107193,28.86,-0.51600003,3.3409503,6.531,0.1296625,-0.03575,-0.382525
1692533107222,28.889,-0.38205,2.97,7.31895,0.5462875,-0.16005,-0.9757
1692533107249,28.916,-0.77205,2.4820502,9.613951,0.759,-0.198825,-1.2123375
1692533107277,28.944,-1.1020501,2.22795,9.262951,0.8834375,-0.219175,-1.2865875
1692533107307,28.974,-0.73605,1.4950501,6.8980503,0.776875,-0.148225,-0.97295
1692533107343,29.01,-1.18605,-0.342,7.5820503,0.4074125,0.033,-0.5581125
1692533107358,29.025,-0.43695003,-0.51000005,9.097051,0.18053749,0.1335125,-0.31845
1692533107395,29.062,-0.05595,-0.016050002,8.856,-0.1131625,0.24887499,0.0774125
1692533107423,29.09,-0.00795,0.04695,6.1050005,-0.782375,0.4049375,1.2892
1692533107451,29.118,0.40005,-0.82095003,8.454,-0.9856,0.379225,1.8423625
1692533107481,29.148,1.06095,-1.6870501,11.505,-1.0577875,0.21133749,2.4195874
1692533107508,29.175,0.29505002,-1.197,11.392951,-1.0913374,0.10395,2.6153874
1692533107538,29.205,0.252,-1.29495,9.5449505,-1.1867625,-0.0143,2.8410249
1692533107567,29.234,0.21105,-1.5340501,10.653001,-1.3011625,-0.1881,2.977425
1692533107597,29.264,0.19395001,-1.2780001,11.379001,-1.2423126,-0.2151875,2.8241124
1692533107625,29.292,-1.059,-0.40695003,10.668,-1.033175,-0.21945,2.4426875
1692533107657,29.324,-0.60705,0.049950004,11.3880005,-0.8998,-0.1926375,2.223375
1692533107683,29.35,0.15795001,-0.19605,11.668051,-0.5182375,-0.0048125,1.5917
1692533107711,29.378,0.034050003,-0.186,11.029051,-0.3067625,0.0919875,1.1988626
1692533107739,29.406,-0.73095006,-0.63900006,12.08205,-0.0246125,0.082225,0.507375
1692533107770,29.437,-0.43695003,-0.507,13.633051,0.0224125,0.033825,0.31913748
1692533107799,29.466,-1.6840501,0.76995003,13.53495,0.006875,0.0460625,0.2118875
1692533107829,29.496,-1.9039501,1.4569501,10.816051,0.0108624995,0.094875,0.1439625
1692533107856,29.523,-0.82395005,0.92100006,10.79205,0.0754875,0.168025,-0.039875
1692533107886,29.553,-0.46995002,0.21705002,12.148951,0.359425,0.357775,-0.69905
1692533107916,29.583,-0.90105003,0.24795002,11.806951,0.464475,0.388025,-0.9777625
1692533107942,29.609,-0.32205,0.24105,10.960051,0.4758875,0.3466375,-1.082675
1692533107973,29.64,-0.16395001,0.48795003,10.3279505,0.3111625,0.19965,-0.829675
1692533108001,29.668,-0.91095006,0.84405005,10.351951,0.1793,0.055,-0.5666375
1692533108032,29.699,-0.09705,0.43695003,11.845051,0.162525,-0.012925,-0.5457375
1692533108065,29.732,-0.30495003,0.50895,11.92905,0.1739375,-0.07645,-0.6084375
1692533108098,29.765,-0.92505,0.39405003,10.41195,0.1656875,-0.104225,-0.60225
1692533108125,29.792,-0.41805002,-0.15,11.93595,0.11605,-0.1480875,-0.45815
1692533108152,29.819,-0.022950001,-0.71295005,14.206051,0.087175,-0.12155,-0.3482875
1692533108180,29.847,-0.44400004,-0.735,14.019001,0.041525,-0.078925,-0.19167499
1692533108209,29.876,-0.47295,-0.30795002,11.944051,-0.1255375,-0.048125,0.27335
1692533108235,29.902,0.38295,-0.32505003,12.790951,-0.20927499,-0.04455,0.454575
1692533108267,29.934,-0.18495001,-0.70095,13.35795,-0.268125,-0.047849998,0.491425
1692533108295,29.962,-0.846,-0.97605,12.04905,-0.2547875,-0.083325,0.41635
1692533108323,29.99,-0.92505,-1.31895,11.3209505,-0.2399375,-0.1324125,0.258775
1692533108353,30.02,-0.049050003,-1.2760501,12.56805,-0.2594625,-0.0933625,0.24653749
1692533108382,30.049,0.13005,-2.2069502,11.22795,-0.3482875,-0.00605,0.4543
1692533108411,30.078,-0.68595004,-2.12505,11.673,-0.3977875,-0.0231,0.6114625
1692533108441,30.108,-0.27405003,-2.3070002,12.336,-0.514525,-0.099,0.88935
1692533108468,30.135,-0.66405004,-1.9120501,11.545951,-0.5698,-0.1122,0.959475
1692533108499,30.166,-1.116,-0.873,9.162001,-0.586575,-0.095425,0.9384375
1692533108523,30.19,-0.65505004,-0.30795002,7.3999505,-0.5401,-0.060775,0.8718875
1692533108552,30.219,0.076950006,0.483,5.7319503,-0.4547125,-0.0055,0.762025
1692533108583,30.25,-0.74100006,1.7899501,6.7249503,-0.1739375,0.0735625,0.385
1692533108613,30.28,-0.56805,2.4120002,7.8550506,0.011,0.069025,0.0985875
1692533108641,30.308,0.25605002,2.982,9.009001,0.2402125,0.07425,-0.290125
1692533108676,30.343,0.62700003,2.2350001,4.73595,0.8672125,0.1529,-1.4829375
1692533108701,30.368,-1.6380001,1.70595,3.6540003,1.3781625,-0.019524999,-2.6830375
1692533108727,30.394,-1.5109501,1.1869501,8.118,1.4587375,-0.16665,-2.9167874
1692533108755,30.422,0.57495004,0.09705,10.43295,1.430275,-0.2041875,-2.879525
1692533108786,30.453,-0.010950001,0.84405005,7.0630503,1.0522875,0.03135,-2.12465
1692533108859,30.526,0.30195,1.26795,9.28695,0.254375,-0.09845,-0.6017
1692533108896,30.563,-1.54305,1.96905,6.8980503,0.3141875,-0.0155375,-0.6182
1692533108937,30.604,-0.35295,0.57105005,9.816001,0.34553748,-0.0400125,-0.572825
1692533108974,30.641,0.40695003,1.17495,14.191051,0.4024625,0.02145,-0.6188875
1692533109010,30.677,-1.983,2.4,7.7860503,0.0796125,0.0490875,-0.115775
1692533109045,30.712,0.65400004,0.87105006,8.6310005,-0.158675,-0.0466125,0.2321
1692533109081,30.748,0.13395001,0.78195006,10.26105,0.0900625,0.02805,-0.4046625
1692533109115,30.782,-0.753,1.4500501,8.32005,0.1192125,-0.0169125,-0.484
1692533109151,30.818,-0.58995,0.73905003,9.018001,-0.0286,-0.1419,-0.17325
1692533109185,30.852,0.57495004,0.70305,11.247001,-0.033,-0.039325,-0.2399375
1692533109202,30.869,0.41400003,0.89205,10.861951,-0.0570625,0.0061875,-0.2627625
1692533109239,30.906,-0.37905002,1.5190501,7.9840503,-0.190025,-0.087725,-0.0716375
1692533109266,30.933,-0.34800002,1.3039501,8.587951,-0.186175,-0.1648625,-0.0603625
1692533109294,30.961,0.12195001,0.88500005,10.30395,-0.109037496,-0.195525,-0.1546875
1692533109321,30.988,0.28995,0.52395004,11.161051,0.0526625,-0.13475,-0.3136375
1692533109350,31.017,0.22095,0.48495004,9.700951,0.0297,-0.108075,-0.242825
1692533109379,31.046,0.20595,0.57600003,9.49995,-0.0561,-0.1065625,-0.084425
1692533109409,31.076,-0.123,0.99000007,9.52095,-0.21807499,-0.1315875,0.2432375
1692533109443,31.11,-0.09,0.96195006,9.093,-0.2237125,-0.1166,0.3188625
1692533109469,31.136,0.132,0.768,9.423,-0.169125,-0.086899996,0.2332
1692533109502,31.169,0.522,0.56205004,10.254001,-0.0455125,-0.0350625,-0.0097624995
1692533109529,31.196,0.321,0.90405005,9.93,-0.0341,-0.042075,-0.0570625
1692533109555,31.222,0.201,1.146,9.732,-0.058025,-0.0741125,-0.0323125
1692533109585,31.252,0.36900002,1.251,9.82995,-0.0853875,-0.14093749,0.0452375
1692533109613,31.28,0.18900001,1.452,9.883051,-0.0485375,-0.15015,-0.022275
1692533109642,31.309,-0.13005,1.3090501,9.018001,0.060225,-0.15235,-0.2960375
1692533109670,31.337,0.19905001,0.99000007,9.58605,0.1035375,-0.143825,-0.380875
1692533109698,31.365,0.57495004,0.63405,10.12695,0.1370875,-0.1188,-0.405625
1692533109726,31.393,0.13905,0.92595005,9.712951,0.124437496,-0.064899996,-0.2809125
1692533109754,31.421,-0.04695,1.23195,8.98305,0.06875,-0.0603625,-0.1560625
1692533109782,31.449,0.04095,1.2270001,9.232051,-0.013062499,-0.050875,-0.0429
1692533109809,31.476,-0.10605001,1.371,9.16905,-0.00165,-0.028324999,-0.1181125
1692533109840,31.507,-0.43695003,1.8139501,8.30805,0.0680625,0.016775,-0.34705
1692533109868,31.535,-0.55905,1.95,8.083051,0.106837496,0.034925,-0.425975
1692533109895,31.562,0.11505,1.4239501,9.222,0.1574375,0.0565125,-0.4855125
1692533109924,31.591,0.21795002,1.3110001,9.34395,0.2688125,0.0947375,-0.56374997
1692533109952,31.619,-0.126,1.7850001,8.643001,0.2781625,0.0842875,-0.5380375
1692533109981,31.648,-0.18495001,2.4840002,8.293051,0.198275,0.0075625,-0.410575
1692533110007,31.674,0.46695003,2.77095,8.04705,0.18755,-0.02365,-0.4228125
1692533110035,31.702,0.762,2.8240502,7.68795,0.2415875,-0.045649998,-0.507925
1692533110063,31.73,-0.03705,4.09005,7.6060505,0.4774,-0.13475,-0.6065125
1692533110091,31.758,0.60405004,3.96795,8.116051,0.597025,-0.2057,-0.567325
1692533110120,31.787,1.3600501,3.2209501,6.9889503,0.8375125,-0.3084125,-0.66495
1692533110149,31.816,0.78105,2.364,6.9100504,0.9307375,-0.3573625,-0.742225
1692533110179,31.846,-0.27600002,2.0029502,8.142,0.8859125,-0.49115,-0.5522
1692533110209,31.876,-0.41505003,1.0530001,7.8739505,0.7393375,-0.4819375,-0.3696
1692533110240,31.907,0.052950002,0.021000002,6.9480004,0.3078625,-0.1670625,-0.07095
1692533110267,31.934,0.72795004,-1.23,10.597951,0.047025,0.0438625,0.08415
1692533110297,31.964,-1.713,-1.7020501,9.4129505,-0.26125,0.226325,0.32587498
1692533110326,31.993,-3.216,-1.1850001,8.93505,-0.6301625,0.37661248,0.7390625
1692533110355,32.022,0.18495001,-3.0370502,11.920051,-1.3596,0.692175,1.848275
1692533110380,32.047,-0.00795,-3.0180001,12.56805,-1.7623374,0.9997625,2.681525
1692533110411,32.078,-1.2859501,-2.19,11.74995,-1.8990124,0.931975,3.1510875
1692533110440,32.107,-0.95400006,-1.9549501,11.899951,-1.9562125,0.441375,3.8120499
1692533110467,32.134,-0.39105,-2.1730502,11.629951,-1.797675,0.2872375,3.7401376
1692533110496,32.163,-1.07595,-1.5289501,11.166,-1.565575,0.2209625,3.482325
1692533110526,32.193,-1.4640001,-1.0170001,11.167951,-1.1191125,0.0952875,2.8054125
1692533110555,32.222,-0.23805001,-1.25205,12.204,-0.91795,0.047575,2.44805
1692533110584,32.251,-0.09195001,-1.3110001,12.36705,-0.5072375,0.0493625,1.7314
1692533110613,32.28,-0.98505,-0.675,12.441001,-0.335225,0.029424999,1.3748626
1692533110643,32.31,-0.38205,0.07395,11.689951,-0.1049125,-0.06215,0.68901247
1692533110671,32.338,-0.11100001,0.36105,11.460001,0.00055,-0.0661375,0.3796375
1692533110699,32.366,-0.92295,0.16695,10.809001,0.2569875,-0.018975,-0.2179375
1692533110727,32.394,-1.0210501,-0.41400003,12.118051,0.370425,-0.0127875,-0.495275
1692533110758,32.425,0.120000005,-1.2040501,13.851001,0.438625,-0.007425,-0.6835125
1692533110784,32.451,0.34500003,-1.01505,12.661951,0.444675,0.00825,-0.7233875
1692533110812,32.479,-0.915,0.22695,10.693951,0.27981248,-0.0213125,-0.4169
1692533110841,32.508,-0.15195,-0.37095,12.23805,0.1049125,-0.1189375,-0.1181125
1692533110868,32.535,0.14400001,-0.69900006,12.738001,0.1049125,-0.1189375,-0.1181125
1692533110897,32.564,-1.1380501,-0.68205005,12.240001,0.1095875,-0.095699996,-0.0704
1692533110926,32.593,-0.99705005,-1.0890001,12.469951,0.0818125,-0.073425,0.064625
1692533110953,32.62,-0.22800002,-1.43595,13.236001,0.0358875,-0.0380875,0.1604625
1692533110982,32.649,-0.41805002,-1.5700501,13.921051,-0.0653125,0.0680625,0.29205
1692533111012,32.679,-0.92700005,-1.419,14.281951,-0.1205875,0.0675125,0.301675
1692533111040,32.707,-1.0570501,-1.029,13.24995,-0.2033625,0.0174625,0.2314125
1692533111069,32.736,-1.0849501,-1.27995,14.656051,-0.2096875,0.02915,0.20405
1692533111098,32.765,0.16605,-2.3449502,13.729051,-0.159225,0.086075,0.1816375
1692533111129,32.796,-0.48705003,-1.81605,12.298051,-0.1467125,0.0826375,0.19813749
1692533111159,32.826,-1.5690001,-1.05495,10.866,-0.2374625,-0.0449625,0.3988875
1692533111187,32.854,-0.28800002,-2.2069502,10.309051,-0.2827,-0.09735,0.511225
1692533111216,32.883,0.81900007,-2.2810502,12.043951,-0.2915,-0.091025,0.5795625
1692533111250,32.917,0.079050004,-0.30795002,10.065001,-0.2882,-0.0581625,0.6312625
1692533111276,32.943,-0.74100006,1.19595,6.1530004,-0.2954875,-0.10945,0.5919375
1692533111304,32.971,-0.46800002,0.91800004,4.06605,-0.25135,-0.164175,0.445225
1692533111337,33.004,0.22305001,0.20295002,9.89505,0.08195,-0.100925,-0.11605
1692533111365,33.032,1.0510501,0.564,12.40305,0.441925,0.07535,-0.65945
1692533111393,33.06,1.3050001,1.89495,8.67105,0.5346,0.0798875,-0.8936125
1692533111424,33.091,0.642,3.4770002,4.8300004,0.6730625,-0.132275,-1.5516875
1692533111453,33.12,2.4540002,2.56005,4.8460503,0.8116625,-0.24805,-2.0299125
1692533111480,33.147,2.526,1.27005,5.9740505,1.0137875,-0.348425,-2.5619
1692533111512,33.179,2.253,0.41595003,7.6519504,1.3553375,-0.713075,-3.2283626
1692533111540,33.207,0.72795004,1.28505,7.2019506,1.0575125,-1.1427625,-2.41065
1692533111567,33.234,-0.006,1.677,7.6210504,0.74085,-1.170675,-1.6989499
1692533111595,33.262,0.48600003,1.4950501,9.030001,0.488125,-1.034825,-1.1540375
1692533111623,33.29,0.58905005,1.5619501,9.11205,0.3111625,-0.455675,-0.8382
1692533111660,33.327,-0.38895002,2.35695,8.262,0.2556125,-0.029424999,-0.7975
1692533111687,33.354,0.91200006,1.93605,10.189051,0.2649625,0.06215,-0.8207375
1692533111713,33.38,1.5469501,1.39995,10.972051,0.3169375,0.1172875,-0.9191875
1692533111743,33.41,0.20895001,1.7539501,8.679001,0.331375,0.099825,-0.8982875
1692533111771,33.438,-0.77400005,1.9290001,7.6780505,0.24145,0.032449998,-0.6788375
1692533111801,33.468,0.039,1.2030001,8.929951,0.1087625,0.0499125,-0.4571875
1692533111827,33.494,0.063,1.3920001,10.026,0.0979,0.1632125,-0.5214
1692533111857,33.524,0.043050002,1.7680501,8.84595,0.019524999,0.3202375,-0.46048748
1692533111887,33.554,-0.025050001,1.7509501,8.784,-0.0383625,0.3223,-0.3260125
1692533111917,33.584,0.31605002,1.30095,9.47805,-0.058575,0.29741248,-0.24365
1692533111945,33.612,0.109950006,0.96900004,9.318001,-0.0127875,0.2234375,-0.2044625
1692533111974,33.641,0.11805001,0.66195005,10.036051,-0.0182875,0.194425,-0.1236125
1692533112003,33.67,0.043050002,0.66495,9.519,-0.1485,0.1568875,0.113299996
1692533112032,33.699,0.012,0.78195006,8.905951,-0.2360875,0.14465,0.20295
1692533112062,33.729,0.18900001,0.507,8.908051,-0.306625,0.1390125,0.287375
1692533112089,33.756,0.33495003,0.22905001,10.74705,-0.35901248,0.1395625,0.4503125
1692533112121,33.788,0.25395,0.34395,10.965,-0.3774375,0.1199,0.5473875
1692533112148,33.815,-0.51600003,0.73905003,9.780001,-0.407825,0.097625,0.595925
1692533112175,33.842,-0.54405004,0.61695004,9.82005,-0.4268,0.0763125,0.61545
1692533112205,33.872,-0.39105,0.34905002,9.739051,-0.3568125,0.111925,0.3947625
1692533112241,33.908,-0.12795001,0.21000001,10.12905,-0.24585,0.2121625,0.064625
1692533112269,33.936,-0.11400001,-0.060000002,9.861,-0.2277,0.22605,0.0132
1692533112296,33.963,0.031050002,-0.18195,10.12005,-0.2321,0.2088625,0.019524999
1692533112322,33.989,0.097950004,-0.25095,10.17,-0.2699125,0.127875,0.066825
1692533112350,34.017,-0.01305,0.00405,9.916051,-0.29479998,0.08415,0.1093125
1692533112378,34.045,-0.16095,0.07095,9.54705,-0.314325,0.0441375,0.17875
1692533112409,34.076,-0.171,0.078,9.801001,-0.297825,-0.00165,0.3147375
1692533112436,34.103,0.039,-0.057000004,10.134001,-0.259875,0.0034375,0.3161125
1692533112464,34.131,-0.022950001,0.08295,10.10805,-0.215875,0.0198,0.2828375
1692533112495,34.162,0.10095,0.102000006,9.898951,-0.1533125,0.0292875,0.2688125
1692533112522,34.189,0.10605001,0.16005,9.97605,-0.110275,0.0015125,0.223025
1692533112551,34.218,-0.14895001,0.28695002,9.538051,-0.0878625,-0.01485,0.1727
1692533112580,34.247,-0.20505,0.23595001,9.658051,-0.0449625,-0.038225,0.108899996
1692533112609,34.276,0.072000004,0.0139500005,9.98595,-0.0213125,-0.0297,0.0686125
1692533112638,34.305,-0.20205002,0.040050004,9.682051,0.00385,0.005775,0.0265375
1692533112667,34.334,-0.27600002,0.12900001,9.727051,-0.0055,0.011,0.077275
1692533112695,34.362,-0.043950003,0.10005,9.46605,-0.0207625,0.01375,0.164725
1692533112731,34.398,-0.01305,0.18405001,9.46605,-0.032449998,0.034649998,0.3007125
1692533112757,34.424,-0.07305,0.25500003,9.607051,-0.0286,0.0378125,0.3020875
1692533112784,34.451,-0.066,0.27195,9.703051,-0.0116875,0.0177375,0.1832875
1692533112817,34.484,0.08400001,0.14505,9.580951,0.0037125,0.0086624995,0.1172875
1692533112845,34.512,0.010050001,0.20295002,9.637951,0.0334125,-0.003025,0.122099996
1692533112872,34.539,-0.025050001,0.24105,9.753,0.0375375,-0.0138875,0.1552375
1692533112901,34.568,-0.06105,0.291,9.5449505,0.0334125,-0.0347875,0.0867625
1692533112933,34.6,-0.102000006,0.34395,9.48495,0.03355,-0.0345125,0.0273625
1692533112955,34.622,-0.11805001,0.24795002,9.576,0.037125,-0.027775,-0.0012375
1692533112987,34.654,-0.11805001,0.22395001,9.54705,0.048125,-0.005775,0.04675
1692533113018,34.685,-0.216,0.43995002,9.11205,0.0488125,0.0078375,0.1117875
1692533113049,34.716,-0.39795002,0.70995003,8.86095,0.0418,0.031625,0.1706375
1692533113084,34.751,-0.69495004,0.60705,9.562051,0.0765875,0.0598125,0.005225
1692533113111,34.778,-0.264,0.59805006,10.740001,0.11385,0.08745,-0.0878625
1692533113137,34.804,0.04095,1.32105,10.33005,0.1483625,0.12045,-0.1299375
1692533113165,34.832,0.051000003,1.9090501,9.43995,0.1824625,0.1255375,-0.070675
1692533113194,34.861,0.06705,1.9620001,9.18795,0.1824625,0.1255375,-0.070675
1692533113222,34.889,0.04605,1.3759501,9.64305,0.4024625,-0.066825,-0.5575625
1692533113252,34.919,0.01695,0.88995004,9.246,0.4794625,-0.1189375,-0.79035
1692533113280,34.947,-0.063,0.89505005,8.820001,0.44275,-0.14905,-0.8023125
1692533113310,34.977,-0.23595001,1.30095,8.217,0.348975,-0.132275,-0.628925
1692533113337,35.004,-0.50595003,1.536,7.6210504,0.2508,-0.1038125,-0.43821248
1692533113367,35.034,-1.16205,1.9570501,8.72595,0.1643125,-0.0372625,-0.2783
1692533113398,35.065,-0.67395,1.93605,9.303,0.1953875,0.0055,-0.3557125
1692533113427,35.094,-0.51105005,2.6130002,9.265051,0.335225,0.1326875,-0.652575
1692533113455,35.122,-0.36705002,3.7360501,8.305051,0.3949,0.1705,-0.7722
1692533113484,35.151,-0.44400004,4.1400003,6.83295,0.5432625,0.081675,-1.0473375
1692533113514,35.181,-0.16905001,2.93595,7.5420003,0.70015,-0.0246125,-1.2937375
1692533113539,35.206,0.38805002,2.0389502,8.748,0.9031,-0.1423125,-1.5769875
1692533113571,35.238,0.25395,1.215,10.098001,1.1155375,-0.3067625,-1.72095
1692533113599,35.266,-0.96300006,1.6129501,8.38395,0.6208125,-0.27885,-0.756525
1692533113629,35.296,-2.505,1.3879501,6.8689504,0.2602875,-0.2011625,-0.186175
1692533113657,35.324,-1.9020001,-0.56895,7.9990506,-0.009625,-0.0801625,0.156475
1692533113687,35.354,1.0009501,-1.9429501,13.98795,-0.268675,0.302225,0.2228875
1692533113714,35.381,0.087000005,-1.422,9.184051,-0.482075,0.5152125,0.4390375
1692533113744,35.411,-1.7010001,-0.48795003,6.50505,-1.3222,0.5911125,2.0317
1692533113779,35.446,1.1400001,-2.25195,12.372001,-1.6372125,0.2996125,2.8925874
1692533113806,35.473,0.56505,-2.436,12.231001,-1.54055,0.2190375,2.8425374
1692533113838,35.505,-1.19805,-1.08405,10.689,-1.4484249,0.1076625,2.83745
1692533113866,35.533,-0.51795,-0.33705002,10.354051,-1.331,-0.18727499,2.8925874
1692533113893,35.56,-0.12105001,0.066,9.05895,-1.1881375,-0.189475,2.7160375
1692533113922,35.589,-0.492,0.186,9.109051,-0.705375,-0.0323125,2.031425
1692533113952,35.619,-0.44595003,-0.17205001,11.805,-0.4588375,-0.0169125,1.63405
1692533113985,35.652,-0.36495003,-0.57705003,10.960051,-0.113575,-0.0292875,0.9812
1692533114011,35.678,-1.2360001,-0.35895002,10.83495,-0.0323125,-0.0215875,0.79461247
1692533114039,35.706,-0.573,-0.69600004,12.240001,-0.0198,0.0088,0.656425
1692533114069,35.736,0.156,-0.66300005,13.461,-0.04235,0.0430375,0.6364875
1692533114097,35.764,-0.63105005,-0.246,12.054001,-0.064625,0.06655,0.6252125
1692533114128,35.795,-0.50595003,0.33,12.654,-0.0873125,-0.0045375,0.5234625
1692533114159,35.826,-0.38205,0.98100007,11.613001,-0.0611875,-0.04015,0.3584625
1692533114184,35.851,-1.04205,0.82500005,10.416,0.1076625,-0.0061875,-0.1662375
1692533114213,35.88,-0.99405,0.33705002,11.352,0.228525,0.0185625,-0.4406875
1692533114243,35.91,-0.13005,-0.13095,12.973051,0.3356375,0.0416625,-0.6518875
1692533114272,35.939,-0.06795,-0.20805001,12.19995,0.377575,0.087175,-0.7205
1692533114300,35.967,-0.59505004,0.11895001,10.68,0.20185,0.018975,-0.505175
1692533114330,35.997,0.606,-0.29205,12.630001,0.1181125,-0.026124999,-0.403425
1692533114357,36.024,0.53205,-0.39900002,13.561951,0.030524999,-0.073699996,-0.23595
1692533114386,36.053,-0.11805001,-0.34395,11.989051,-0.0015125,-0.1296625,-0.1648625
1692533114416,36.083,0.31605002,-0.49305,12.550951,-0.0389125,-0.202675,-0.0851125
1692533114445,36.112,0.024,-0.20595,13.819951,-0.097075,-0.251075,0.103125
1692533114472,36.139,-1.107,0.054,12.81,-0.108625,-0.2277,0.1714625
1692533114501,36.168,-1.19505,-0.061950002,10.986,-0.095425,-0.1475375,0.1929125
1692533114530,36.197,0.48105,-0.94995004,11.359051,-0.0661375,-0.056925,0.158675
1692533114560,36.227,0.91005003,-1.5169501,12.55395,-0.036025,0.0512875,0.122237496
1692533114586,36.253,-0.40800002,-0.81600004,11.674951,-0.078375,0.0848375,0.186175
1692533114615,36.282,0.45000002,-1.51995,11.854951,-0.1533125,-0.0070125,0.28545
1692533114644,36.311,0.48600003,-2.0269501,12.68805,-0.2630375,-0.10615,0.42955
1692533114673,36.34,0.14595,-1.5270001,11.335951,-0.2987875,-0.11,0.461725
1692533114699,36.366,0.22500001,-1.29495,9.934951,-0.3975125,-0.1599125,0.51315
1692533114730,36.397,-0.36195,-0.14295001,7.3810506,-0.420475,-0.1716,0.515625
1692533114761,36.428,-2.22,0.84405005,4.566,-0.339075,-0.122375,0.376475
1692533114789,36.456,-1.7359501,0.86595005,4.971,-0.2259125,-0.0353375,0.220825
1692533114817,36.484,0.015000001,0.46800002,10.110001,-0.0658625,0.1274625,0.049225
1692533114844,36.511,-0.16905001,1.6530001,8.72595,0.271425,0.480425,-0.2762375
1692533114871,36.538,-1.12395,2.70195,5.61495,0.4002625,0.4769875,-0.5501375
1692533114899,36.566,-1.27695,3.5749502,5.787,0.53267497,0.35805,-0.98285
1692533114928,36.595,-0.99195004,2.604,8.6640005,0.7084,0.2415875,-1.5613124
1692533114959,36.626,-1.5660001,1.17495,7.0650005,1.012275,0.1819125,-3.3347874
1692533114981,36.648,-0.82395005,1.3590001,5.4949503,0.759,0.148225,-3.34125
1692533115014,36.681,0.26805001,0.99495006,5.1529503,0.73205,0.1442375,-3.00355
1692533115043,36.71,0.075,0.78900003,8.932051,0.5951,0.0933625,-2.2512875
1692533115074,36.741,0.41895002,0.82005006,10.12905,0.55027497,-0.005225,-1.905475
1692533115102,36.769,0.20595,0.80805004,8.254951,0.2932875,-0.2674375,-0.91355
1692533115130,36.797,0.04095,0.77205,10.540951,0.1288375,-0.3642375,-0.451
1692533115160,36.827,-1.00395,1.2100501,12.516001,-0.0688875,-0.4137375,-0.021175
1692533115184,36.851,-1.521,1.728,10.33695,-0.117975,-0.3689125,0.0264
1692533115215,36.882,-0.59205,1.23,8.35995,-0.135025,-0.2712875,-0.0020625
1692533115245,36.912,0.56505,0.22695,8.533051,-0.013612499,0.0169125,-0.293975
1692533115271,36.938,-0.492,0.73905003,9.72,0.0609125,0.097075,-0.4019125
1692533115299,36.966,-0.504,0.80805004,9.95205,-0.0059125,0.00275,-0.1428625
1692533115327,36.994,-0.04695,0.51600003,10.38,-0.0881375,-0.057475,0.043449998
1692533115355,37.022,0.453,0.48795003,10.30395,-0.13915,-0.062975,0.1211375
1692533115385,37.052,0.06705,0.83205,8.06595,-0.1749,-0.0444125,0.1260875
1692533115414,37.081,-1.14795,1.146,9.954,-0.174625,-0.0853875,0.1502875
1692533115444,37.111,0.29505002,0.25995,11.754001,-0.1060125,-0.1445125,0.11385
1692533115474,37.141,0.19695,0.753,10.045051,-0.06875,-0.10945,0.0501875
1692533115510,37.177,0.20595,1.194,7.5060005,-0.099825,-0.0638,0.0407
1692533115539,37.206,0.058050003,1.35405,9.00405,-0.1181125,-0.09625,0.0488125
1692533115567,37.234,-0.16095,1.167,10.440001,-0.0111375,-0.1643125,-0.1194875
1692533115600,37.267,-0.15900001,0.97395,10.28205,0.124437496,-0.1485,-0.291775
1692533115625,37.292,-0.18105,0.82005006,9.562051,0.1401125,-0.106425,-0.2718375
1692533115656,37.323,-0.20700002,0.85605,9.792001,0.1233375,-0.0573375,-0.1876875
1692533115684,37.351,0.10095,0.43500003,10.498051,0.0510125,0.0149875,-0.0262625
1692533115713,37.38,0.12705001,0.42495003,10.773001,0.0100375,0.0279125,-0.0185625
1692533115741,37.408,-0.38595003,1.08105,9.61005,-0.0968,0.0067375,0.0023375
1692533115770,37.437,-0.20895001,1.43805,8.793,-0.135575,-0.0083875,0.0413875
1692533115800,37.467,-0.054,1.3470001,8.293051,-0.125675,-0.0094875,0.036025
1692533115829,37.496,-0.09195001,1.098,9.68595,0.039325,0.010175,-0.153175
1692533115857,37.524,0.25905,0.97395,9.954,0.171875,-0.004675,-0.2619375
1692533115887,37.554,0.22800002,1.062,9.739051,0.168575,-0.0154,-0.1940125
1692533115913,37.58,0.18495001,1.1340001,9.84195,0.136675,-0.0303875,-0.0785125
1692533115943,37.61,-0.094050005,1.6510501,9.00405,0.0738375,-0.0856625,0.040425
1692533115974,37.641,-0.33600003,1.9450501,7.9939504,0.0680625,-0.1051875,0.0056375
1692533116001,37.668,-0.43695003,1.93605,8.116051,0.0966625,-0.1040875,-0.0845625
1692533116031,37.698,-0.34095,1.3279501,9.126,0.254375,-0.0554125,-0.4456375
1692533116066,37.733,-0.25500003,1.167,8.7960005,0.3532375,0.0006875,-0.71005
1692533116094,37.761,-0.20895001,1.3060501,8.500951,0.311025,0.0246125,-0.6617875
1692533116123,37.79,-0.18795002,1.9020001,8.596951,0.14355,0.0551375,-0.41525
1692533116151,37.818,0.28305,2.5170002,7.5079503,0.0933625,0.0539,-0.3271125
1692533116180,37.847,0.711,2.8260002,6.7249503,0.17105,-0.00715,-0.367675
1692533116210,37.877,0.75405,2.90505,7.7089505,0.303325,-0.088825,-0.503525
1692533116241,37.908,0.98700005,3.14505,9.042001,0.6139375,-0.3306875,-0.7205
1692533116268,37.935,1.1730001,3.5130002,8.71395,0.70785,-0.42941248,-0.692725
1692533116296,37.963,0.34500003,3.7120502,7.4119506,0.7390625,-0.48565,-0.5918
1692533116326,37.993,0.76905006,1.8060001,8.724,0.729575,-0.5157625,-0.4244625
1692533116353,38.02,1.0030501,0.92100006,9.792001,0.7211875,-0.5017375,-0.3994375
1692533116381,38.048,0.83805007,0.22200002,9.63405,0.649275,-0.4530625,-0.32793748
1692533116411,38.078,-1.9110001,0.30600002,5.8639503,0.1106875,-0.22825,0.2583625
1692533116437,38.104,-1.7149501,-0.10695001,8.08005,-0.242825,-0.07645,0.669625
1692533116466,38.133,0.39105,-1.8379501,11.938951,-0.6529875,0.36313748,1.0817125
1692533116494,38.161,-0.40305,-1.761,9.849001,-0.7745375,0.644325,1.2095875
1692533116523,38.19,-0.91800004,-1.24695,8.274,-1.2071126,0.8958125,2.254725
1692533116552,38.219,-0.25005,-1.9720501,10.906951,-1.4073125,0.8251375,2.939475
1692533116582,38.249,0.120000005,-2.427,13.159051,-1.4794999,0.6182,3.6304126
1692533116611,38.278,-1.6480501,-1.02405,11.865001,-1.437975,0.4844125,3.7343624
1692533116641,38.308,-1.401,-0.864,11.48595,-1.3738999,0.3342625,3.7010875
1692533116672,38.339,-0.027,-1.0860001,12.276001,-1.0586125,0.1953875,3.0424626
1692533116697,38.364,-0.35805002,-0.76605004,12.031951,-0.83393747,0.20047499,2.5460875
1692533116733,38.4,0.055050004,-0.53805,11.545951,-0.483175,0.1155,1.6996375
1692533116759,38.426,0.81405,-0.69900006,12.87495,-0.2426875,0.0017875,1.001275
1692533116788,38.455,0.61605,-0.47595003,13.14795,-0.2426875,0.0017875,1.001275
1692533116816,38.483,-0.058050003,0.27495003,11.68305,-0.063525,-0.104499996,0.323675
1692533116844,38.511,-0.18495001,0.25305,11.629951,0.0760375,-0.1830125,-0.2756875
1692533116875,38.542,0.120000005,-0.036000002,13.159051,0.1584,-0.1516625,-0.529925
1692533116901,38.568,-0.75000006,0.081,12.075001,0.269775,-0.043725,-0.79048747
1692533116932,38.599,-0.86805004,0.20295002,11.72805,0.2699125,-0.0044,-0.7759125
1692533116962,38.629,0.16095,-0.67905,12.5130005,0.2226125,0.0774125,-0.6414375
1692533116988,38.655,0.003,-0.75795,11.77095,0.1926375,0.108625,-0.5784625
1692533117022,38.689,-0.126,-1.4260501,12.99705,0.069575,0.063525,-0.399575
1692533117048,38.715,-0.102000006,-1.9410001,14.038051,-0.0165,0.0143,-0.252175
1692533117077,38.744,-0.34605002,-1.77795,13.762951,-0.195525,-0.0385,0.1692625
1692533117107,38.774,-0.56595004,-1.6320001,13.83705,-0.28765,-0.047025,0.40205
1692533117134,38.801,-0.441,-1.69395,14.112,-0.3592875,-0.0451,0.57475
1692533117164,38.831,-1.14495,-1.47195,13.564051,-0.379775,-0.0023375,0.652575
1692533117194,38.861,-0.609,-1.6660501,13.32705,-0.3466375,0.0309375,0.58685
1692533117223,38.89,-0.43395,-1.5169501,12.642,-0.2666125,0.104775,0.418275
1692533117251,38.918,-0.043950003,-1.6990501,11.24505,-0.236775,0.121275,0.3927
1692533117281,38.948,0.42900002,-1.74705,11.673,-0.219175,0.1079375,0.3988875
1692533117307,38.974,-0.094050005,-0.70605004,11.0460005,-0.21133749,0.013612499,0.4068625
1692533117336,39.003,-0.513,-0.34905002,10.32495,-0.2052875,-0.0435875,0.3821125
1692533117365,39.032,-0.109050006,-0.91605,9.80805,-0.1057375,-0.093775,0.198275
1692533117394,39.061,0.25905,-0.37995002,8.86305,-0.02365,-0.081125,0.09515
1692533117425,39.092,0.34305,1.2919501,6.40005,0.0694375,-0.070125,0.036025
1692533117452,39.119,0.57000005,1.5619501,6.1750503,0.11495,-0.0831875,-0.0187
1692533117480,39.147,0.68505,1.1050501,7.2570004,0.382525,-0.099825,-0.5421625
1692533117508,39.175,0.84105,0.94500005,4.87995,0.5533,-0.1183875,-0.954525
1692533117537,39.204,0.43605003,1.6870501,5.8350005,0.6782875,-0.1621125,-1.3283875
1692533117567,39.234,0.71595,2.52495,7.65705,0.77082497,-0.2899875,-1.7942375
1692533117593,39.26,1.28805,2.26605,5.859,0.80795,-0.3364625,-1.9817874
1692533117623,39.29,1.09695,1.6150501,6.18195,0.9889,-0.41525,-2.453275
1692533117652,39.319,1.09695,0.804,8.025001,1.0555875,-0.49555,-2.5986125
1692533117682,39.349,1.0489501,0.064050004,10.12005,0.8980125,-0.627275,-2.2488124
1692533117717,39.384,0.75195,0.24300002,10.213051,0.360525,-0.4995375,-1.1532125
1692533117743,39.41,0.27105,1.11195,9.153001,0.069025,-0.3744125,-0.6171
1692533117773,39.44,-0.61395,1.9810501,7.8240004,-0.14245,-0.2484625,-0.26235
1692533117806,39.473,-0.49695003,1.74195,8.868,-0.1706375,-0.004125,-0.316525
1692533117834,39.501,0.462,1.215,12.349951,-0.0268125,0.127875,-0.64968747
1692533117868,39.535,1.3240501,0.78000003,10.516951,0.207075,0.29865,-1.1496375
1692533117884,39.551,0.82095003,1.4470501,8.35305,0.1794375,0.26675,-1.0390875
1692533117917,39.584,0.26805001,1.34895,8.016001,0.08525,0.1610125,-0.7550125
1692533117948,39.615,0.11505,0.80805004,10.552951,-0.017324999,-0.059125,-0.3452625
1692533117977,39.644,-0.015000001,0.72195005,10.069051,0.0031625,-0.0856625,-0.30305
1692533118007,39.674,-0.11100001,1.11195,8.63805,-0.018424999,0.0287375,-0.136125
1692533118037,39.704,-0.37695003,1.7509501,8.260051,-0.087725,0.1659625,0.07645
1692533118065,39.732,-0.29295,1.6840501,8.37195,-0.060775,0.2008875,0.0515625
1692533118093,39.76,-0.14205001,1.005,8.82705,0.008525,0.218625,-0.051425
1692533118122,39.789,0.55095005,0.507,10.512,0.15345,0.232925,-0.2563
1692533118152,39.819,0.70395005,0.528,10.351951,0.1461625,0.22605,-0.204325
1692533118180,39.847,0.28500003,0.83505005,9.61005,-0.062425,0.1362625,0.307725
1692533118207,39.874,0.120000005,0.76305,9.724951,-0.164175,0.0647625,0.56155
1692533118242,39.909,-0.58005005,0.753,10.366051,-0.20899999,-0.003575,0.6670125
1692533118268,39.935,-0.573,0.80595005,10.333051,-0.1907125,0.0187,0.578875
1692533118297,39.964,-0.42195,0.91395,10.30605,-0.1736625,0.0735625,0.4588375
1692533118325,39.992,-0.31500003,0.73200005,9.92805,-0.1486375,0.20515,0.1934625
1692533118353,40.02,-0.15405001,0.528,9.523951,-0.1335125,0.2355375,0.0782375
1692533118382,40.049,-0.066,0.55005,9.126,-0.11935,0.2349875,0.0237875
1692533118410,40.077,-0.11805001,0.91395,8.97795,-0.1153625,0.1810875,0.138325
1692533118439,40.106,-0.20205002,1.17495,8.722051,-0.120175,0.14533749,0.22605
1692533118466,40.133,-0.19995001,1.23405,9.17895,-0.0726,0.0867625,0.2534125
1692533118495,40.162,-0.043950003,1.28505,9.603001,-0.0089375,0.0694375,0.1901625
1692533118524,40.191,-0.20895001,1.57395,9.717,0.116325,0.045925,0.043449998
1692533118553,40.22,-0.46305,1.6009501,9.595051,0.15413749,0.0301125,-0.018975
1692533118587,40.254,-0.62100005,1.6129501,10.087951,0.21835,0.0193875,-0.1610125
1692533118615,40.282,-0.312,1.5139501,10.30395,0.24653749,0.0386375,-0.2459875
1692533118644,40.311,-0.46305,1.6489501,8.98995,0.25355,0.07975,-0.399025
1692533118677,40.344,-0.50100005,1.66005,9.064051,0.23705,0.077,-0.4497625
1692533118708,40.375,-0.24495001,1.2559501,9.729,0.22687499,0.0444125,-0.5489
1692533118734,40.401,-0.25995,1.40205,9.871051,0.22825,0.0345125,-0.5621
1692533118766,40.433,-0.018000001,1.416,9.01605,0.1626625,0.0196625,-0.3537875
1692533118792,40.459,-0.37905002,1.81605,9.00405,0.111237496,0.007425,-0.19167499
1692533118822,40.489,-0.31695002,1.9410001,8.928,0.071225,-0.0193875,0.009625
1692533118851,40.518,-0.42195,1.96395,8.82495,0.09625,-0.0254375,0.0088
1692533118879,40.546,-0.78105,1.78005,8.901,0.19305,-0.015125,-0.15675
1692533118909,40.576,-1.3750501,1.95,8.43,0.229625,-0.0066,-0.260425
1692533118938,40.605,-1.4089501,2.2999501,9.279,0.2481875,0.0116875,-0.3579125
1692533118969,40.636,0.28995,1.8420001,7.4149504,0.2673,0.12485,-0.56168747
1692533118997,40.664,0.95100003,2.6749501,6.0859504,0.27995,0.1860375,-0.6303
1692533119027,40.694,0.036000002,3.9060001,7.18305,0.31515,0.0647625,-0.480425
1692533119053,40.72,-0.00795,4.33395,7.6660504,0.3953125,-0.113575,-0.36795
1692533119084,40.751,0.32295,2.943,8.604,0.7690375,-0.416625,-0.5817625
1692533119112,40.779,0.28005,1.9860001,9.792001,0.9296375,-0.4895,-0.7869125
1692533119145,40.812,-0.35295,1.3450501,10.266001,0.9469625,-0.505725,-0.8413625
1692533119177,40.844,-0.82005006,1.4449501,9.33405,0.489775,-0.3342625,-0.306625
1692533119209,40.876,-1.0879501,0.46095002,7.6009502,-0.1555125,0.020075,0.3994375
1692533119234,40.901,-1.0350001,0.23595001,9.28905,-0.374,0.1964875,0.57695
1692533119262,40.929,0.42195,-0.076050006,8.35305,-0.6545,0.479875,0.8305
1692533119288,40.955,0.30195,-0.0139500005,7.2040505,-0.7816875,0.5737875,1.0784125
1692533119315,40.982,-0.56595004,-0.072000004,8.51805,-0.89196247,0.598125,1.40415
1692533119347,41.014,0.34305,-0.88995004,10.98795,-0.9713,0.467225,1.904375
1692533119376,41.043,0.32595003,-1.16805,11.887951,-0.9736375,0.389675,2.05425
1692533119404,41.071,-0.25005,-0.12705001,10.15095,-1.078275,0.1951125,2.5059376
1692533119430,41.097,-0.21405001,-0.12195001,10.02105,-1.1235125,0.085525,2.6626875
1692533119460,41.127,0.028950002,-0.402,11.038951,-0.9527375,-0.0094875,2.31935
1692533119491,41.158,-0.37695003,-0.16995001,12.360001,-0.7855375,-0.0121,1.9779375
1692533119518,41.185,-0.50595003,-0.18405001,11.154,-0.6356625,-0.0166375,1.6740625
1692533119548,41.215,0.0049500004,-0.555,12.09195,-0.4334,-0.0122375,1.2335125
1692533119578,41.245,0.14400001,-0.67200005,13.119,-0.3642375,0.01265,1.0703
1692533119607,41.274,-0.81195,-0.028050002,13.059001,-0.2971375,0.0154,0.8223875
1692533119637,41.304,-0.657,0.16905001,13.14795,-0.2833875,-0.008525,0.69836247
1692533119665,41.332,-1.1020501,0.67200005,12.496051,-0.18535,0.0279125,0.37661248
1692533119693,41.36,-1.21905,0.88305,12.23595,-0.100375,0.0803,0.1923625
1692533119721,41.388,-0.46995002,0.88500005,11.88105,0.0836,0.1747625,-0.1703625
1692533119750,41.417,-0.252,0.97095007,10.95705,0.1749,0.208175,-0.3697375
1692533119779,41.446,-0.40095,0.79395,11.515051,0.308825,0.161975,-0.7852625
1692533119809,41.476,0.46005002,0.52605003,12.051001,0.332475,0.086075,-0.925375
1692533119837,41.504,0.29505002,0.41805002,11.938951,0.3278,0.0092124995,-0.9884875
1692533119866,41.533,-0.25995,0.291,11.44995,0.2564375,-0.125675,-0.9142375
1692533119896,41.563,0.094050005,-0.32505003,12.690001,0.14025,-0.19607499,-0.6367625
1692533119921,41.588,0.321,-0.91605,13.99995,0.07205,-0.17545,-0.4406875
1692533119954,41.621,0.11505,-1.2199501,14.137951,-0.012925,-0.14575,-0.21945
1692533119983,41.65,-0.043950003,-0.63900006,12.943951,-0.2487375,-0.1489125,0.2528625
1692533120012,41.679,-0.264,0.00405,12.37905,-0.35475,-0.1582625,0.4393125
1692533120041,41.708,-0.906,-0.15,11.023951,-0.3817,-0.1208625,0.51094997
1692533120068,41.735,-0.53505003,-1.062,11.557951,-0.3047,-0.0735625,0.42185
1692533120099,41.766,0.91695005,-2.05095,13.224001,-0.2193125,-0.0089375,0.3366
1692533120126,41.793,0.47205,-1.3740001,11.965051,-0.2052875,0.0724625,0.4153875
1692533120155,41.822,-0.45105,-0.897,10.075951,-0.2789875,0.0224125,0.5534375
1692533120185,41.852,0.50805,-1.48905,11.556001,-0.3711125,-0.120725,0.7095
1692533120210,41.877,0.63705003,-1.3450501,11.41695,-0.3565375,-0.1271875,0.693
1692533120241,41.908,-1.26495,0.90405005,9.18795,-0.312675,-0.12045,0.60307497
1692533120270,41.937,-1.7389501,2.19195,5.99805,-0.2740375,-0.12045,0.5163125
1692533120299,41.966,-1.66005,1.9429501,5.1379504,-0.160875,-0.0559625,0.3125375
1692533120328,41.995,-0.49395,0.96405005,8.037001,0.3273875,0.2954875,-0.60101247
1692533120356,42.023,-0.89400005,0.96405005,8.30805,0.5938625,0.461725,-1.189375
1692533120384,42.051,-1.0849501,2.04795,6.0100503,0.832425,0.44825,-1.9080875
1692533120417,42.084,-0.91800004,1.266,3.52305,0.815925,0.3751,-1.9680375
1692533120443,42.11,-1.3750501,1.09305,5.0500503,0.8520875,0.2578125,-2.107325
1692533120476,42.143,0.75900006,0.26700002,9.18105,0.90695,0.2305875,-2.2089374
1692533120496,42.163,1.3549501,-0.22200002,8.370001,0.903925,0.2118875,-2.183225
1692533120529,42.196,-0.87705004,0.89895004,7.0579505,0.5619625,0.0174625,-1.408
1692533120558,42.225,-1.0900501,1.1910001,8.710051,0.1035375,-0.3246375,-0.36135
1692533120585,42.252,-0.91800004,1.55295,9.081,0.03025,-0.329175,-0.198275
1692533120617,42.284,-2.15295,1.6840501,6.9960003,0.0633875,-0.214775,-0.2666125
1692533120644,42.311,-1.8900001,1.2060001,10.98795,0.268675,0.0680625,-0.648725
1692533120673,42.34,-0.93705004,0.531,14.787001,0.3674,0.20295,-0.8463125
1692533120701,42.368,-0.67395,1.0380001,9.468,0.339075,0.3757875,-0.885225
1692533120730,42.397,-0.43905002,1.39005,6.8239503,0.1904375,0.31515,-0.6650875
1692533120761,42.428,0.96300006,0.49695003,9.246,0.0213125,0.0347875,-0.4807
1692533120786,42.453,-0.35505003,1.04295,10.486051,0.0474375,-0.110275,-0.545325
1692533120813,42.48,-0.97005004,1.3230001,9.7560005,0.0614625,-0.252725,-0.531025
1692533120842,42.509,-0.46305,0.94695,10.207951,0.001925,-0.3817,-0.311575
1692533120870,42.537,-0.51600003,0.83505005,10.30605,-0.00165,-0.3298625,-0.2864125
1692533120897,42.564,-0.41505003,0.528,10.203,0.005775,-0.2578125,-0.3147375
1692533120926,42.593,-0.015000001,0.10005,10.876051,-0.0521125,-0.184525,-0.3196875
1692533120953,42.62,0.46695003,-0.0139500005,11.0460005,-0.110825,-0.1703625,-0.271975
1692533120982,42.649,0.30900002,0.44205,9.406051,-0.2671625,-0.1892,0.009625
1692533121011,42.678,0.16800001,0.56205004,9.435,-0.337975,-0.234025,0.1854875
1692533121040,42.707,0.453,0.43695003,10.098001,-0.330825,-0.3157,0.25355
1692533121066,42.733,0.14895001,0.423,10.177051,-0.2679875,-0.3223,0.1568875
1692533121097,42.764,0.00795,0.36795002,9.93,-0.2088625,-0.31405,0.0532125
1692533121127,42.794,0.072000004,0.18105,9.9210005,-0.151525,-0.2690875,-0.058575
1692533121152,42.819,0.072000004,0.16695,9.813001,-0.1439625,-0.2272875,-0.0790625
1692533121180,42.847,-0.135,0.22005,9.094951,-0.149325,-0.14025,-0.104499996
1692533121209,42.876,-0.010950001,0.010950001,9.196051,-0.1535875,-0.106975,-0.10725
1692533121238,42.905,0.16605,-0.28500003,10.069051,-0.15235,-0.046475,-0.069299996
1692533121268,42.935,0.19695,-0.507,9.93,-0.160325,-0.0253,-0.00275
1692533121297,42.964,0.47205,-0.10695001,9.523951,-0.186175,-0.0198,0.1062875
1692533121324,42.991,0.762,0.51600003,8.913,-0.2644125,-0.0572,0.3568125
1692533121355,43.022,0.51705,1.0690501,7.7089505,-0.2688125,-0.0939125,0.4250125
1692533121386,43.053,0.72795004,0.77205,8.334001,-0.1166,-0.1791625,0.3108875
1692533121414,43.081,1.02495,0.45405003,9.769951,0.0155375,-0.2129875,0.1535875
1692533121441,43.108,1.04595,0.63405,9.33195,0.2077625,-0.2574,-0.016224999
1692533121471,43.138,0.53400004,0.76995003,9.375,0.2255,-0.2817375,0.01485
1692533121497,43.164,1.008,0.291,10.15305,0.2107875,-0.3026375,0.050049998
1692533121527,43.194,0.96300006,0.303,10.849951,0.1654125,-0.2825625,0.00495
1692533121556,43.223,-0.16095,1.24905,9.00195,0.127325,-0.2534125,-0.015125
1692533121583,43.25,-0.66405004,1.24605,6.9310503,0.0518375,-0.179575,-0.0644875
1692533121612,43.279,-0.18495001,0.588,7.7569504,0.073975,-0.093775,-0.2167
1692533121639,43.306,-0.18795002,0.045,9.504001,0.1978625,0.139425,-0.6193
1692533121669,43.336,-0.56100005,0.35805002,8.832001,0.2013,0.219725,-0.64405
1692533121697,43.364,-0.77400005,1.5000001,7.5610504,0.1375,0.2651,-0.5137
1692533121726,43.393,-0.10395,1.3300501,8.06595,0.0149875,0.34141248,-0.2520375
1692533121758,43.425,1.7910001,2.5870502,7.1280003,0.176,0.3598375,-0.43945
1692533121786,43.453,2.12595,3.7909503,8.443951,0.3025,0.252175,-0.540375
1692533121812,43.479,2.7889502,4.1790004,8.401051,0.4475625,0.0306625,-0.5949625
1692533121842,43.509,4.3450503,3.17595,9.10005,0.889075,-0.617375,-0.7775625
1692533121868,43.535,2.77905,3.5059502,8.35095,1.0852875,-0.929775,-0.818675
1692533121897,43.564,1.1920501,3.9270003,7.9939504,1.1592625,-1.1862125,-0.71802497
1692533121924,43.591,0.92205006,1.1050501,8.83905,1.0220375,-1.356025,-0.4566375
1692533121953,43.62,1.4749501,-1.1080501,12.195001,0.9024125,-1.1801625,-0.515625
1692533121979,43.646,0.582,-2.6880002,9.877951,0.3526875,-0.5071,-0.4136
1692533122009,43.676,-0.73395,-2.9320502,8.7960005,-0.15565,-0.1469875,0.084975
1692533122038,43.705,-0.33105,-3.9469502,13.2289505,-0.70248747,0.1808125,0.7913125
1692533122069,43.736,-0.50100005,-3.72705,12.1039505,-1.4694625,0.698225,2.1351
1692533122097,43.764,-0.52500004,-3.07095,9.49005,-1.7842,0.9235875,3.2613626
1692533122126,43.793,0.58695,-3.2689502,10.906951,-1.78365,0.8765625,3.6762
1692533122157,43.824,1.13505,-3.3600001,11.106001,-1.6869875,0.7503375,3.90445
1692533122187,43.854,0.12195001,-2.25195,10.596001,-1.3781625,0.318175,3.8640249
1692533122211,43.878,-0.33405003,-1.5679501,10.52595,-1.2106875,0.0650375,3.6509
1692533122243,43.91,-0.042000003,-1.5820501,10.704,-0.7976375,-0.17875,2.8769126
1692533122273,43.94,0.69000006,-1.9789501,12.55395,-0.5542625,-0.13475,2.3846624
1692533122301,43.968,0.67800003,-1.43805,12.762001,-0.330825,-0.060225,1.9232125
1692533122331,43.998,0.65595,-0.20595,11.494051,-0.044275,-0.0284625,1.1908875
1692533122360,44.027,1.02495,0.22005,11.781,0.05775,-0.0427625,0.7855375
1692533122388,44.055,1.18005,0.025950002,11.25195,0.3075875,0.0059125,-0.2838
1692533122416,44.083,1.212,-0.54300004,12.001051,0.4302375,0.0243375,-0.74525
