timestamp,time,accX,accY,accZ,gyrX,gyrY,gyrZ
1692465923061,0.0,-0.075,-0.67905,10.10805,0.2836625,-0.2061125,-0.5850625
1692465923100,0.039,-0.17595,-0.49005002,9.859051,-0.1802625,-0.6226,-1.6539875
1692465923118,0.057,-0.35805002,-0.354,9.885,-0.1802625,-0.6226,-1.6539875
1692465923146,0.085,-0.27600002,-0.47100002,9.94005,-0.864325,-0.8152375,-2.5471876
1692465923182,0.121,-0.76905006,-0.12900001,9.424951,-1.032075,-0.698225,-2.6288624
1692465923207,0.146,-0.26205,-0.54795,10.074,-1.0049875,-0.5839625,-2.48875
1692465923235,0.174,-0.11595,-0.75405,10.491,-0.9442125,-0.4541625,-2.3133
1692465923260,0.199,-0.23295002,-0.56895,9.909,-0.7910375,-0.2464,-2.0266125
1692465923286,0.225,-0.19500001,-0.51900005,9.765,-0.7326,-0.207625,-1.8709625
1692465923313,0.252,0.003,-0.51405,9.693001,-0.63827497,-0.19305,-1.4480125
1692465923342,0.281,-0.06795,-0.60105,9.97395,-0.576125,-0.1804,-1.255375
1692465923370,0.309,0.096,-0.75105006,10.087951,-0.5072375,-0.167475,-1.1022
1692465923396,0.335,0.051000003,-0.80595005,10.31805,-0.3947625,-0.156475,-0.85263747
1692465923427,0.366,-0.15705001,-0.53595,9.901951,-0.3598375,-0.1584,-0.7327375
1692465923454,0.393,0.12195001,-0.44295,9.385051,-0.3026375,-0.15015,-0.543675
1692465923481,0.42,0.027,-0.39900002,9.129001,-0.2646875,-0.1299375,-0.4890875
1692465923508,0.447,-0.010950001,-0.41400003,9.865951,-0.220825,-0.1104125,-0.439725
1692465923539,0.478,-0.015000001,-0.531,9.741,-0.1313125,-0.0944625,-0.379225
1692465923566,0.505,-0.07305,-0.56700003,10.366051,-0.0966625,-0.08525,-0.385825
1692465923592,0.531,-0.12105001,-0.39000002,10.081051,-0.0765875,-0.073425,-0.364375
1692465923621,0.56,-0.063,-0.32505003,9.507001,-0.0638,-0.050325,-0.145475
1692465923646,0.585,-0.21405001,-0.22200002,9.72,-0.054175,-0.037125,-0.055
1692465923675,0.614,-0.20700002,-0.38295,10.09605,-0.018975,-0.011,-0.091575
1692465923709,0.648,-0.13695,-0.33,9.942,0.0022,0.0056375,-0.156475
1692465923735,0.674,-0.15705001,-0.28500003,9.892051,0.036025,0.04235,-0.2220625
1692465923763,0.702,-0.20205002,-0.25605002,9.70995,0.04235,0.0484,-0.18933749
1692465923791,0.73,-0.10605001,-0.20805001,9.27,0.0449625,0.0391875,-0.0213125
1692465923820,0.759,-0.13005,-0.27705002,9.94995,0.048125,0.0353375,0.0622875
1692465923844,0.783,-0.147,-0.30600002,10.000051,0.0517,0.0328625,0.1153625
1692465923869,0.808,-0.279,-0.16995001,9.732,0.051425,0.029424999,0.1238875
1692465923896,0.835,-0.264,-0.17400001,9.62205,0.046475,0.0257125,0.087175
1692465923924,0.863,-0.16395001,-0.20295002,9.583051,0.0435875,0.0317625,-0.0741125
1692465923954,0.893,-0.18495001,-0.14595,9.861,0.056375,0.0419375,-0.18493749
1692465923990,0.929,-0.18495001,-0.14595,9.861,0.056375,0.0419375,-0.18493749
1692465924015,0.954,-0.18495001,-0.14595,9.861,0.056375,0.0419375,-0.18493749
1692465924041,0.98,-0.18495001,-0.14595,9.861,0.056375,0.0419375,-0.18493749
1692465924074,1.013,-0.19695,-0.19800001,9.691051,0.0323125,0.0022,0.10175
1692465924112,1.051,-0.19695,-0.19800001,9.691051,0.0323125,0.0022,0.10175
1692465924137,1.076,-0.19695,-0.19800001,9.691051,0.0323125,0.0022,0.10175
1692465924174,1.113,-0.19695,-0.19800001,9.691051,0.0323125,0.0022,0.10175
1692465924206,1.145,-0.08205,-0.29895002,10.00695,0.00825,0.0097624995,0.0510125
1692465924228,1.167,-0.28395,-0.03795,9.366,0.00385,0.0083875,0.058575
1692465924258,1.197,-0.28395,-0.03795,9.366,0.00385,0.0083875,0.058575
1692465924294,1.233,-0.15900001,-0.10695001,9.792001,-0.000825,-0.0056375,-0.0506
1692465924317,1.256,-0.171,-0.15495001,10.2630005,0.0144375,-0.001375,-0.06765
1692465924346,1.285,-0.171,-0.12900001,9.897,0.0419375,0.005775,-0.077825
1692465924378,1.317,-0.094050005,-0.076050006,9.8539505,0.0262625,0.003025,-0.04235
1692465924431,1.37,0.010050001,-0.13395001,9.564,0.0411125,-0.00605,-0.0578875
1692465924452,1.391,-0.05595,-0.10305001,9.556951,0.0479875,-0.017875,-0.0583
1692465924475,1.414,-0.05595,-0.10305001,9.556951,0.0479875,-0.017875,-0.0583
1692465924502,1.441,-0.10395,-0.26505002,10.203,0.0279125,-0.051425,0.0402875
1692465924538,1.477,0.13905,-0.36105,9.8560505,0.0199375,-0.030524999,0.01485
1692465924563,1.502,-0.13005,-0.009000001,9.238951,0.001925,-0.0262625,0.0396
1692465924588,1.527,-0.079950005,-0.093,9.5449505,-0.0257125,-0.0331375,0.1007875
1692465924616,1.555,-0.034950003,-0.06705,9.945001,-0.03575,-0.0451,0.115775
1692465924641,1.58,0.01905,-0.09105001,9.612,-0.015125,-0.0375375,0.0757625
1692465924670,1.609,-0.054,0.022950001,9.556951,0.0059125,-0.0273625,0.0862125
1692465924700,1.639,-0.09705,0.028050002,9.62205,0.0298375,-0.0232375,0.237875
1692465924727,1.666,-0.08205,-0.162,10.045051,0.0394625,-0.02365,0.27719998
1692465924753,1.692,-0.16095,-0.07395,10.024051,0.0559625,-0.0122375,0.18205
1692465924780,1.719,-0.16605,-0.20295002,9.98805,0.053075,-0.0037125,0.1062875
1692465924808,1.747,-0.171,-0.21000001,9.922951,0.041249998,0.005225,0.0479875
1692465924837,1.776,-0.32895002,-0.13605,9.79905,0.00825,0.0226875,-0.0528
1692465924862,1.801,-0.324,-0.07395,9.898951,-0.006325,0.0314875,-0.10285
1692465924890,1.829,-0.13005,-0.25605002,10.000051,-0.0155375,0.0438625,-0.1431375
1692465924918,1.857,-0.027,-0.177,9.62895,-0.0165,0.0697125,-0.1973125
1692465924952,1.891,-0.13305001,-0.09105001,9.849001,-0.021724999,0.0517,-0.205425
1692465924979,1.918,-0.054,-0.081,9.624001,-0.0246125,0.0342375,-0.19813749
1692465925006,1.945,-0.126,-0.064050004,9.519,-0.0210375,0.0199375,-0.193325
1692465925034,1.973,-0.063,-0.13095,9.733951,0.0048125,-0.0037125,-0.2055625
1692465925064,2.003,-0.102000006,-0.093,9.885,0.017324999,-0.014025,-0.2102375
1692465925087,2.026,0.015000001,-0.105000004,9.82005,0.0229625,-0.0213125,-0.18975
1692465925117,2.056,0.036000002,-0.12900001,9.93,0.0149875,-0.02915,-0.080575
1692465925146,2.085,-0.05595,-0.0139500005,9.696,0.009625,-0.0342375,-0.044275
1692465925174,2.113,-0.066,-0.036000002,9.8230505,0.0066,-0.0452375,-0.0669625
1692465925203,2.142,-0.08205,-0.033,9.76305,0.0089375,-0.0441375,-0.0935
1692465925230,2.169,0.031050002,-0.19095,9.95205,0.0127875,-0.037675,-0.113437496
1692465925256,2.195,0.051000003,-0.18195,9.837001,0.0155375,-0.0235125,-0.136125
1692465925285,2.224,-0.039,-0.09105001,9.72,0.0088,-0.02365,-0.099275
1692465925315,2.254,-0.05595,-0.079050004,9.729,-0.011275,-0.0301125,0.0273625
1692465925342,2.281,-0.025050001,-0.060000002,9.61905,-0.012925,-0.0268125,-0.0042625
1692465925371,2.31,-0.034950003,-0.033,9.825001,-0.006325,-0.019524999,-0.110275
1692465925400,2.339,0.0,-0.093,9.769951,0.013475,-0.008525,-0.27981248
1692465925428,2.367,-0.015000001,-0.012,9.74895,0.01815,-0.0066,-0.252175
1692465925455,2.394,-0.066,0.08505,9.495001,0.018975,-0.0078375,-0.0617375
1692465925483,2.422,0.09105001,-0.009000001,9.885,0.0209,-0.0092124995,0.0020625
1692465925513,2.452,0.13905,-0.06705,10.053,0.02805,-0.013062499,-0.037675
1692465925541,2.48,0.14205001,-0.081,9.81795,0.027224999,-0.0204875,-0.066
1692465925569,2.508,-0.0010500001,0.11895001,9.65295,0.021175,-0.032449998,-0.0462
1692465925597,2.536,0.028950002,0.064050004,9.66705,0.013062499,-0.0504625,0.043725
1692465925624,2.563,0.13695,-0.048,9.58605,0.021724999,-0.0462,0.04895
1692465925655,2.594,0.10095,-0.009000001,9.430051,0.0416625,-0.027224999,-0.000275
1692465925681,2.62,0.058050003,-0.03795,9.66495,0.0380875,-0.0251625,-0.0416625
1692465925708,2.647,-0.109050006,0.052050002,9.361051,0.0281875,-0.0268125,-0.0886875
1692465925739,2.678,-0.22800002,0.009000001,9.49695,0.0143,-0.020624999,-0.1274625
1692465925766,2.705,-0.23805001,0.040050004,10.078951,0.014712499,-0.0048125,-0.1120625
1692465925794,2.733,-0.27405003,0.23895001,9.744,0.0182875,0.0207625,-0.091025
1692465925822,2.761,-0.45600003,0.62895006,8.566051,0.0295625,0.075625,-0.044825
1692465925850,2.789,-0.666,0.22005,9.64605,0.049225,0.095975,-0.064899996
1692465925878,2.817,-0.75000006,-0.112050004,10.687051,0.1318625,0.142725,-0.3422375
1692465925906,2.845,-0.72405005,-0.13095,11.161051,0.1500125,0.1750375,-0.48688748
1692465925934,2.873,-0.33900002,-0.036000002,11.059951,0.059125,0.229625,-0.4037
1692465925961,2.9,-0.171,0.38700002,9.916051,-0.0048125,0.230725,-0.27005
1692465925989,2.928,0.012,0.52095,8.911051,-0.0416625,0.20253749,-0.208175
1692465926018,2.957,0.22305001,0.354,9.259951,-0.0001375,0.079475,-0.3917375
1692465926045,2.984,0.07005,0.18795002,9.885,0.057475,0.01045,-0.5385875
1692465926075,3.014,-0.042000003,0.14805001,9.612,0.129525,-0.10395,-0.634975
1692465926102,3.041,0.01695,0.08805001,9.682051,0.12265,-0.135575,-0.566775
1692465926128,3.067,0.06705,-0.057000004,10.242001,0.097625,-0.1412125,-0.4577375
1692465926159,3.098,-0.11595,0.010950001,10.206,0.0350625,-0.1126125,-0.228525
1692465926186,3.125,-0.11100001,0.13095,9.883051,0.0017875,-0.102575,-0.1552375
1692465926216,3.155,0.09105001,0.030000001,9.583051,-0.0438625,-0.0842875,-0.1364
1692465926245,3.184,-0.18300001,0.19305001,9.351001,-0.044825,-0.073699996,-0.160325
1692465926273,3.212,-0.41805002,0.126,9.19995,-0.034375,-0.0672375,-0.1989625
1692465926301,3.24,0.25905,0.08505,11.190001,-0.0015125,-0.0438625,-0.3240875
1692465926330,3.269,-0.043950003,-0.0019500001,10.684051,0.0092124995,-0.013062499,-0.37454998
1692465926358,3.297,0.07005,-0.30405003,10.32495,-0.0050875,0.0320375,-0.37235
1692465926386,3.325,0.036000002,-0.402,10.90005,-0.0253,0.020075,-0.3378375
1692465926414,3.353,0.04605,0.17205001,11.223001,-0.0862125,-0.0268125,-0.2165625
1692465926441,3.38,-0.19995001,0.66495,9.873,-0.1159125,-0.0419375,-0.1524875
1692465926470,3.409,-0.432,0.09,10.88595,-0.1172875,-0.049225,-0.14025
1692465926497,3.436,-0.30495003,-0.37800002,11.541,-0.015262499,-0.021175,-0.2607
1692465926526,3.465,-0.46995002,-1.3780501,10.540951,0.0257125,0.0127875,-0.265375
1692465926560,3.499,-0.0010500001,-1.3980001,10.830001,0.0089375,0.0474375,-0.14575
1692465926591,3.53,0.85200006,-0.76605004,8.98005,-0.3443,0.051425,0.7359
1692465926617,3.556,1.0320001,-0.51195,7.96995,-0.43395,-0.0155375,0.945175
1692465926649,3.588,0.78495,-0.63195,7.9579506,-0.45319998,-0.116875,1.0153
1692465926679,3.618,0.10605001,-0.86100006,8.710051,-0.41085,-0.229075,0.9667625
1692465926713,3.652,0.192,-1.6150501,9.691051,-0.223575,-0.3645125,0.7645
1692465926744,3.683,0.41895002,-1.3620001,10.00905,-0.223575,-0.304425,0.7866375
1692465926775,3.714,0.321,-0.53805,8.712001,-0.25795,-0.22935,0.8226625
1692465926799,3.738,-0.04695,0.13095,7.6090503,-0.2910875,-0.13653749,0.7247625
1692465926836,3.775,0.15105,-0.01905,8.346001,-0.1263625,-0.0611875,0.2429625
1692465926867,3.806,0.039,0.162,9.10005,-0.006875,-0.006325,-0.088
1692465926900,3.839,-0.32205,0.39195,9.765,0.1749,0.075625,-0.6314
1692465926929,3.868,-0.34800002,0.27495003,10.158001,0.2352625,0.1027125,-0.802725
1692465926954,3.893,-0.26205,0.41595003,9.934951,0.2899875,0.1406625,-0.94269997
1692465926980,3.919,-0.33405003,0.40395,9.954,0.368775,0.227975,-1.1930875
1692465927005,3.944,-0.37695003,0.41805002,10.1629505,0.3815625,0.2470875,-1.2846625
1692465927032,3.971,-0.54705,0.19800001,11.08905,0.36795,0.23815,-1.252625
1692465927062,4.001,0.18495001,-0.21000001,12.453001,0.345675,0.22935,-1.134925
1692465927089,4.028,0.13005,0.04695,10.498051,0.3051125,0.21945,-0.97625
1692465927123,4.062,-0.40095,-2.1060002,8.929951,0.157575,0.1458875,-0.54725
1692465927149,4.088,0.69195,-3.183,15.76395,0.069025,0.082775,-0.30525
1692465927175,4.114,0.91695005,-3.4249501,16.89405,-0.0528,0.0341,-0.0070125
1692465927206,4.145,-0.51795,-1.4260501,10.342051,-0.506825,-0.069025,0.9761125
1692465927233,4.172,-3.627,-1.01505,6.6559505,-0.8028625,-0.2756875,1.6020125
1692465927265,4.204,-3.0979502,-1.9549501,11.038951,-0.7557,-0.242825,1.4854125
1692465927294,4.233,-0.19305001,-2.8600502,11.604,-0.5424375,0.3114375,1.1235125
1692465927323,4.262,0.762,-2.298,8.6980505,-0.49101248,0.5922125,1.1407
1692465927350,4.289,0.513,-0.94995004,7.635,-0.506825,0.633325,1.2731125
1692465927384,4.323,-0.027,-0.12195001,7.15605,-0.57255,0.111237496,1.3649625
1692465927416,4.355,-0.087000005,0.22005,5.09805,-0.3172125,-0.2453,0.732875
1692465927438,4.377,0.096,0.32205,5.4540005,-0.0988625,-0.241725,0.286825
1692465927468,4.407,0.18705001,0.094950005,7.0870504,0.1007875,-0.1896125,-0.0704
1692465927496,4.435,-0.19995001,0.066,8.089951,0.3661625,-0.11165,-0.48235
1692465927526,4.465,0.08205,-0.12195001,8.956051,0.44701248,-0.100237496,-0.668525
1692465927553,4.492,0.29505002,-0.165,9.34395,0.5148,-0.0708125,-0.9515
1692465927582,4.521,0.37395,0.141,8.985001,0.499675,-0.0636625,-0.980375
1692465927612,4.551,0.051000003,0.39405003,9.670051,0.4288625,-0.1161875,-0.90749997
1692465927648,4.587,-0.003,-0.01905,10.893001,0.411675,-0.147125,-0.8635
1692465927660,4.599,0.82095003,0.48000002,11.553,0.4103,-0.1549625,-0.8283
1692465927698,4.637,-0.36705002,-2.7520502,9.636001,0.3856875,-0.128975,-0.7836125
1692465927728,4.667,-1.9159501,-4.3699503,17.454,0.31501248,-0.1197625,-0.6941
1692465927757,4.696,-1.65495,-3.9060001,21.13005,0.1225125,-0.087175,-0.3619
1692465927791,4.73,0.08400001,-1.6390501,7.0720506,-0.5878125,0.1117875,0.9805125
1692465927820,4.759,0.47400004,-0.036000002,5.2819505,-0.85855,0.1881,1.4282125
1692465927848,4.787,0.47700003,-2.532,12.11295,-0.7717875,0.1255375,1.2057375
1692465927877,4.816,0.50100005,-3.147,14.46405,-0.52442497,-0.0617375,0.686125
1692465927906,4.845,-0.010950001,-2.697,13.423051,-0.4412375,-0.1472625,0.531025
1692465927935,4.874,-0.657,-1.40505,9.057,-0.4065875,-0.21505,0.4753375
1692465927964,4.903,-0.48900002,-0.29205,6.9960003,-0.363275,-0.206525,0.38775
1692465927993,4.932,0.13395001,-0.20805001,6.7969503,-0.290125,-0.1128875,0.234575
1692465928017,4.956,0.00795,0.31995,6.8280005,-0.039875,0.100375,-0.174625
1692465928047,4.986,-0.25005,0.96195006,8.142,0.10285,0.1412125,-0.3452625
1692465928077,5.016,0.522,0.624,8.679001,0.41195,0.1318625,-0.7096375
1692465928107,5.046,1.0180501,0.11895001,8.62605,0.5801125,0.132275,-0.942975
1692465928137,5.076,-0.252,0.63405,8.65905,0.7577625,0.0031625,-1.065625
1692465928166,5.105,1.044,1.4830501,8.286,0.7305375,-0.122925,-0.8925125
1692465928196,5.135,0.62295,0.64305,10.12905,0.6197125,-0.2063875,-0.5748875
1692465928224,5.163,0.89100003,0.14505,12.750001,0.6039,-0.169675,-0.582175
1692465928255,5.194,0.70395005,0.43695003,11.247001,0.5636125,-0.1607375,-0.6853
1692465928282,5.221,-0.051000003,-1.503,10.179001,0.4901875,-0.1912625,-0.63002497
1692465928313,5.252,0.81900007,-3.2380502,14.799001,0.2479125,-0.19607499,-0.278575
1692465928341,5.28,0.98700005,-2.93895,14.229001,0.0309375,-0.15413749,0.1049125
1692465928370,5.309,-0.50100005,-2.12805,11.785951,-0.254925,-0.1131625,0.6348375
1692465928398,5.337,-1.4110501,-0.84000003,9.44505,-0.68475,-0.0721875,1.4251875
1692465928429,5.368,-2.7940502,-0.62895006,6.8280005,-0.693825,-0.0023375,1.428075
1692465928458,5.397,-1.7770501,-1.299,8.568001,-0.5889125,0.1343375,1.2497375
1692465928490,5.429,0.55305004,-2.7810001,11.92695,-0.29741248,0.5022875,0.8306375
1692465928518,5.457,0.76605004,-1.7230501,8.08695,-0.259325,0.5806625,0.7654625
1692465928547,5.486,0.14595,-0.80895007,6.07695,-0.353375,0.363,0.8441125
1692465928579,5.518,0.55605,0.052050002,4.947,-0.4508625,-0.157575,0.748275
1692465928611,5.55,0.32805002,0.13800001,6.33795,-0.2404875,-0.268125,0.2347125
1692465928637,5.576,0.108,0.279,6.5940003,-0.2404875,-0.268125,0.2347125
1692465928666,5.605,-0.102000006,0.186,7.83405,0.1067,-0.212575,-0.39833748
1692465928695,5.634,0.48900002,-0.26295,10.503,0.3839,-0.095425,-0.862675
1692465928725,5.664,0.51495004,-0.73005,12.87705,0.458425,-0.0345125,-0.9658
1692465928752,5.691,0.18,-0.46905002,11.677951,0.4750625,-0.010725,-0.9464125
1692465928779,5.718,-0.61905,-0.62895006,11.65095,0.361625,-0.0532125,-0.64295
1692465928809,5.748,-0.57795,-0.19395001,14.3230505,0.282425,-0.0507375,-0.5066875
1692465928835,5.774,-0.043950003,0.49500003,13.35795,0.2168375,-0.000825,-0.428725
1692465928866,5.805,-0.82695,-1.197,9.555,0.1601875,0.1739375,-0.39435
1692465928893,5.832,-0.86805004,-2.355,14.959051,0.1332375,0.26427498,-0.322025
1692465928923,5.862,-0.48705003,-2.38905,13.399051,0.04455,0.2773375,-0.1230625
1692465928954,5.893,-0.76500005,-1.4100001,9.61905,-0.2569875,0.253825,0.4686
1692465928982,5.921,-0.882,-1.5289501,8.832001,-0.3634125,0.2140875,0.6139375
1692465929010,5.949,-0.05595,-1.9890001,10.198951,-0.4021875,0.1843875,0.5812125
1692465929041,5.98,0.01695,-2.0029502,9.411,-0.3801875,0.1632125,0.3485625
1692465929070,6.009,-0.42495003,-1.5679501,8.401051,-0.382525,0.1170125,0.3273875
1692465929098,6.037,-0.51795,-0.75600004,7.6470003,-0.4098875,-0.038775,0.447975
1692465929129,6.068,-0.10605001,0.25995,6.1720505,-0.39105,-0.0743875,0.4673625
1692465929157,6.096,0.01695,1.0330501,5.2170005,-0.189475,-0.00715,0.1414875
1692465929184,6.123,0.20400001,1.17495,6.8260503,-0.0020625,0.042075,-0.18727499
1692465929213,6.152,0.71400005,0.64605004,8.401051,0.22055,0.06875,-0.5526125
1692465929242,6.181,0.76605004,-0.021000002,9.66705,0.651475,0.0312125,-1.2505625
1692465929273,6.212,0.54405004,-0.23400001,9.418051,0.776875,-0.169675,-1.47345
1692465929302,6.241,0.64695,-0.112050004,9.556951,0.686125,-0.273625,-1.3231624
1692465929329,6.268,0.73995006,-0.079050004,9.625951,0.55027497,-0.3311,-1.0902375
1692465929358,6.297,0.61095005,-0.79395,10.26105,0.3205125,-0.3361875,-0.5619625
1692465929389,6.328,0.58005005,-1.3980001,12.355051,0.24447499,-0.31955,-0.3161125
1692465929413,6.352,0.46695003,-0.17205001,12.015,0.16445,-0.297,-0.10615
1692465929444,6.383,-1.43505,-2.32605,10.89,-0.0554125,-0.22659999,0.266475
1692465929475,6.414,0.24405001,-4.15005,17.013,-0.2145,-0.0430375,0.5545375
1692465929503,6.442,1.02495,-3.3769503,14.718,-0.3295875,0.096525,0.75955
1692465929532,6.471,0.84495,-1.8880501,11.6320505,-0.51535,0.166925,1.061775
1692465929560,6.499,-2.328,-0.98805004,7.3330503,-0.778525,-0.0075625,1.3304499
1692465929590,6.529,-2.22195,-1.74495,10.455001,-0.71995,-0.0726,1.0825375
1692465929616,6.555,-0.55605,-2.2399502,11.709001,-0.4257,0.1931875,0.4222625
1692465929644,6.583,0.036000002,-1.5820501,9.47295,-0.3147375,0.417725,0.2542375
1692465929675,6.614,-0.058050003,-0.39705002,6.1530004,-0.2358125,0.4802875,0.22893749
1692465929699,6.638,0.27105,0.17895001,4.7629504,-0.2052875,0.335775,0.201575
1692465929732,6.671,0.75000006,0.22395001,5.19105,-0.015125,0.1122,-0.1720125
1692465929760,6.699,0.537,0.049950004,5.9350505,0.1302125,0.0501875,-0.4624125
1692465929788,6.727,0.31395,-0.34695002,6.8640003,0.2668875,-0.022,-0.6947875
1692465929818,6.757,-0.10605001,-1.182,9.069,0.4162125,-0.1830125,-0.7711
1692465929846,6.785,-0.61395,-1.9219501,11.90505,0.4107125,-0.2211,-0.65615
1692465929877,6.816,-0.96300006,-1.4599501,12.8550005,0.21573749,-0.1431375,-0.2363625
1692465929904,6.843,-1.0330501,-0.651,10.80405,0.075075,-0.0356125,-0.0191125
1692465929934,6.873,-1.4320501,0.40605003,9.84,-0.0556875,0.2116125,0.0631125
1692465929967,6.906,-1.78005,-0.07395,11.347051,0.0048125,0.3223,-0.1392875
1692465929986,6.925,-0.87495005,-0.67005,12.432,0.13915,0.4255625,-0.4624125
1692465930019,6.958,0.15795001,-0.27495003,9.946951,0.4082375,0.5619625,-1.0220375
1692465930046,6.985,0.30705002,-0.94305,10.30395,0.4360125,0.506,-1.0371625
1692465930075,7.014,-0.58695,-0.837,14.337001,0.2915,0.12773749,-0.5407875
1692465930106,7.045,-1.1050501,-0.45900002,11.151001,0.1904375,-0.0474375,-0.25753748
1692465930136,7.075,-0.90300006,-0.17895001,8.278951,0.071225,-0.113299996,-0.07645
1692465930170,7.109,-0.37395,-1.02705,8.394,0.0622875,-0.033825,-0.1420375
1692465930200,7.139,-0.37395,-1.96695,9.526051,0.0587125,0.116325,-0.1978625
1692465930226,7.165,-0.19500001,-2.02005,10.431001,0.0053625,0.115225,-0.0320375
1692465930264,7.203,-0.010950001,-1.26405,9.591001,-0.253,-0.011825,0.6188875
1692465930300,7.239,0.22800002,-0.16005,7.0579505,-0.42941248,-0.143275,0.89265
1692465930310,7.249,0.24900001,-0.055050004,6.7560005,-0.42941248,-0.143275,0.89265
1692465930339,7.278,0.55095005,-0.0019500001,7.0150504,-0.29205,-0.195525,0.439175
1692465930368,7.307,0.29505002,-0.097950004,8.109,-0.1530375,-0.2028125,0.113025
1692465930396,7.335,0.010050001,0.049950004,8.52495,0.1122,-0.2355375,-0.3806
1692465930426,7.365,0.10095,-0.13395001,9.77505,0.2014375,-0.24695,-0.509025
1692465930452,7.391,0.50805,-0.57405,10.210951,0.3031875,-0.1936,-0.6832375
1692465930479,7.418,0.28005,-0.43305,9.46605,0.3113,-0.159775,-0.715275
1692465930505,7.444,-0.20205002,0.0,9.34605,0.2773375,-0.1524875,-0.6479
1692465930534,7.473,-0.16395001,-0.35895002,9.507001,0.16775,-0.158125,-0.3675375
1692465930562,7.501,0.95100003,-0.84195006,12.487051,0.152075,-0.1131625,-0.31075
1692465930589,7.528,0.42900002,-0.735,11.541,0.1573,-0.0477125,-0.2926
1692465930616,7.555,-1.0690501,-2.3430002,11.071951,0.110825,-0.0226875,-0.020624999
1692465930647,7.586,0.22305001,-3.588,14.725051,0.0345125,-0.0496375,0.2121625
1692465930676,7.615,0.79995006,-2.79795,12.814951,-0.2853125,0.0309375,0.705925
1692465930704,7.643,-1.5109501,-2.8600502,9.184051,-0.4989875,0.0537625,0.9986625
1692465930735,7.674,-2.73,-2.8890002,12.219001,-0.7445625,-0.055825,1.4174875
1692465930763,7.702,-0.82395005,-2.80995,12.22095,-0.75075,-0.0242,1.49655
1692465930791,7.73,0.18495001,-2.2810502,9.423,-0.71995,0.1021625,1.52955
1692465930822,7.761,0.40005,-1.5289501,7.14195,-0.6127,0.266475,1.425875
1692465930842,7.781,0.462,-1.2079501,7.1970005,-0.5416125,0.17765,1.261425
1692465930877,7.816,0.53205,-0.68205005,7.2760506,-0.4631,0.029424999,1.0465125
1692465930904,7.843,0.52005005,-0.273,5.47095,-0.2492875,-0.18535,0.463925
1692465930935,7.874,0.37395,-0.17400001,5.06895,0.030524999,-0.23155,-0.213125
1692465930964,7.903,0.37395,-0.26295,6.3229504,0.1463,-0.228525,-0.4467375
1692465930992,7.931,0.312,-0.72,8.3220005,0.2355375,-0.2151875,-0.60335
1692465931019,7.958,0.087000005,-1.3429501,10.57905,0.348975,-0.1695375,-0.7833375
1692465931046,7.985,0.08205,-1.7230501,11.57505,0.3623125,-0.1445125,-0.788975
1692465931073,8.012,0.058050003,-1.8259501,12.54705,0.2607,-0.0746625,-0.5751625
1692465931101,8.04,-0.20205002,-1.5700501,11.472,0.1678875,-0.0372625,-0.4046625
1692465931130,8.069,-0.504,-1.8550501,12.35805,0.084425,-0.0059125,-0.2589125
1692465931160,8.099,-0.29805002,-1.3470001,13.432051,-0.0009625,0.0715,-0.1351625
1692465931186,8.125,-0.80295,-2.0730002,11.986951,-0.006325,0.12155,-0.1310375
1692465931215,8.154,-1.7560501,-2.15895,13.317,0.02365,0.1887875,-0.12773749
1692465931246,8.185,-1.095,-2.05305,12.315001,0.01265,0.22495,-0.086075
1692465931276,8.215,-0.82395005,-1.845,9.883051,-0.02915,0.2902625,-0.0323125
1692465931304,8.243,0.01905,-2.35695,8.746051,-0.1120625,0.4068625,-0.0039875
1692465931333,8.272,0.22500001,-2.8860002,11.142,-0.1676125,0.29755,0.0625625
1692465931361,8.3,0.13395001,-2.73795,11.74005,-0.228525,0.1632125,0.1868625
1692465931389,8.328,-0.48000002,-1.7539501,8.740951,-0.3078625,0.0099,0.33825
1692465931419,8.358,-0.39405003,-1.08405,5.8759503,-0.379225,-0.183425,0.47685
1692465931444,8.383,0.012,-0.47400004,5.7180004,-0.3359125,-0.1755875,0.4285875
1692465931474,8.413,0.22800002,-0.28005,6.7249503,-0.176,-0.061875,0.220275
1692465931502,8.441,0.19395001,-0.09105001,6.603,-0.0592625,-0.0231,0.0328625
1692465931532,8.471,0.25905,-0.097950004,6.4450502,0.0881375,-0.0121,-0.219725
1692465931561,8.5,0.14895001,-0.21495001,8.559,0.36465,-0.0394625,-0.6875
1692465931592,8.531,0.15105,-1.00995,10.34895,0.4489375,-0.05995,-0.8141375
1692465931621,8.56,0.055050004,-1.2349501,10.440001,0.5091625,-0.089237496,-0.864875
1692465931651,8.59,-0.06795,-1.21605,10.998,0.3840375,-0.09075,-0.6512
1692465931676,8.615,0.109950006,-1.21305,11.008051,0.2765125,-0.0793375,-0.4978875
1692465931709,8.648,0.29205,-1.90005,11.304001,0.184525,-0.0598125,-0.3691875
1692465931737,8.676,0.18195,-1.02195,13.159051,0.0598125,-0.0526625,-0.119625
1692465931767,8.706,-1.07295,-2.4390001,10.146001,0.0075625,-0.0818125,0.050325
1692465931796,8.735,-0.40095,-4.10505,14.277,-0.066275,-0.0771375,0.3311
1692465931823,8.762,0.28305,-4.25805,14.739,-0.1398375,-0.0066,0.4741
1692465931854,8.793,-1.4250001,-2.9299502,10.62195,-0.446325,0.0341,1.0135125
1692465931883,8.822,-2.42295,-1.6800001,10.407001,-0.5652625,-0.0341,1.2348875
1692465931911,8.85,-1.8510001,-1.7809501,9.516001,-0.5878125,-0.0526625,1.2766875
1692465931941,8.88,-0.82695,-2.21895,6.5200505,-0.4129125,0.2244,0.97583747
1692465931968,8.907,0.273,-1.7209501,7.9939504,-0.3070375,0.3799125,0.810425
1692465932000,8.939,0.60405004,-1.43805,9.81105,-0.2578125,0.3452625,0.7701375
1692465932029,8.968,0.27105,-0.69405,6.5820003,-0.2608375,0.1769625,0.7618875
1692465932058,8.997,-0.252,0.18105,4.7310004,-0.1023,-0.1670625,0.3575
1692465932087,9.026,0.18495001,-0.18900001,6.5719504,0.0287375,-0.236775,0.0515625
1692465932116,9.055,0.18705001,-0.30405003,7.8700504,0.2910875,-0.1577125,-0.499675
1692465932144,9.083,-0.21405001,-0.177,8.10705,0.4037,-0.104225,-0.6815875
1692465932172,9.111,-0.25695002,-0.30105,9.394051,0.5443625,-0.085525,-0.824725
1692465932203,9.142,0.537,-1.029,11.215951,0.576125,-0.059675,-0.867625
1692465932230,9.169,0.59895,-1.2559501,12.307051,0.5823125,-0.0149875,-0.9114875
1692465932261,9.2,0.058050003,-0.109950006,11.071951,0.456775,-0.05335,-0.7536375
1692465932287,9.226,0.060000002,-0.33705002,11.5990505,0.3477375,-0.139425,-0.553575
1692465932317,9.256,0.606,0.27195,13.9800005,0.272525,-0.18493749,-0.3784
1692465932344,9.283,0.47205,0.27195,10.668,0.3089625,-0.1439625,-0.3840375
1692465932372,9.311,0.42405003,-0.49995002,10.510051,0.3507625,-0.115637496,-0.3738625
1692465932406,9.345,0.975,-2.01,13.9129505,0.3730375,-0.1354375,-0.2891625
1692465932433,9.372,0.17295001,-0.99105006,10.96695,0.197725,-0.1879625,0.0408375
1692465932461,9.4,0.19695,-0.24405001,8.037001,0.052249998,-0.2101,0.2767875
1692465932490,9.429,0.12705001,-0.38505003,7.386,-0.0605,-0.20625,0.4203375
1692465932519,9.458,-0.62100005,-0.91605,9.58605,-0.08305,-0.1139875,0.3322
1692465932548,9.487,-0.58500004,-1.2400501,10.345051,-0.0444125,-0.0559625,0.253
1692465932577,9.516,-0.28605002,-0.92595005,8.88,-0.0284625,0.093225,0.2739
1692465932606,9.545,-0.19995001,-0.28005,8.037001,-0.0561,0.17325,0.315975
1692465932636,9.575,-0.16905001,0.294,6.83295,-0.098725,0.2330625,0.27005
1692465932664,9.603,-0.45600003,0.693,6.1800003,-0.0686125,0.220275,0.1467125
1692465932692,9.631,-0.126,0.744,7.1920505,0.0127875,0.2063875,-0.051975
1692465932727,9.666,-0.05595,0.75600004,8.23095,0.2740375,0.20899999,-0.5424375
1692465932755,9.694,-0.3,0.72195005,8.944051,0.4041125,0.20253749,-0.7403
1692465932783,9.722,-0.07305,0.282,10.29195,0.5597625,0.13695,-0.973225
1692465932813,9.752,0.13005,0.35595003,10.428,0.5451875,0.0840125,-0.9651125
1692465932841,9.78,0.14895001,0.32505003,10.255951,0.4769875,0.0562375,-0.8124875
1692465932878,9.817,0.63195,0.72705,10.998,0.3025,-0.0320375,-0.3843125
1692465932901,9.84,-0.14895001,-0.76095,10.668,0.2393875,-0.075075,-0.237325
1692465932931,9.87,0.64695,-2.9580002,16.041,0.1155,-0.127875,0.0474375
1692465932959,9.898,1.0870501,-3.5470502,15.438001,-0.047025,-0.13653749,0.370975
1692465932988,9.927,0.74205005,-2.6830502,13.906051,-0.30635,-0.1549625,0.8166125
1692465933016,9.955,-2.2800002,-1.8720001,8.76,-0.7943375,-0.2651,1.4865125
1692465933045,9.984,-2.799,-2.12805,12.262051,-0.874225,-0.2591875,1.51635
1692465933073,10.012,-0.79095006,-2.05095,11.203951,-0.78155,0.1307625,1.2329625
1692465933102,10.041,0.109950006,-1.4479501,8.02995,-0.6969875,0.3832125,1.0803375
1692465933133,10.072,0.61995006,-1.065,8.095051,-0.5311625,0.458975,0.835725
1692465933159,10.098,0.70905006,-0.33495003,7.3120503,-0.4453625,0.29975,0.721325
1692465933186,10.125,0.44295,0.49500003,5.15805,-0.35145,0.109037496,0.595375
1692465933217,10.156,0.55995005,0.957,4.02495,-0.08965,-0.1684375,0.188375
1692465933245,10.184,1.116,0.70095,4.09005,0.0859375,-0.2237125,-0.092675
1692465933276,10.215,0.46500003,0.124050006,7.7500505,0.4444,-0.262625,-0.6689375
1692465933302,10.241,0.25605002,-0.043050002,8.29605,0.5655375,-0.29975,-0.8922375
1692465933330,10.269,0.043050002,-0.30600002,8.70495,0.6092625,-0.333025,-1.0049875
1692465933359,10.298,0.024,-0.68205005,10.837951,0.4926625,-0.2520375,-0.9233125
1692465933395,10.334,0.35205,-1.062,12.441001,0.3881625,-0.155375,-0.8355875
1692465933434,10.373,-0.16095,-0.96900004,11.5990505,0.1595,-0.001375,-0.6612375
1692465933468,10.407,-0.039,-0.93105006,14.337001,-0.0517,0.032175,-0.3603875
1692465933476,10.415,0.50295,-0.85695004,13.97805,-0.119625,0.0471625,-0.2374625
1692465933504,10.443,0.37095,-1.6129501,11.482051,-0.1516625,0.0809875,-0.1923625
1692465933531,10.47,-0.34605002,-3.2239501,14.347051,-0.1452,0.1189375,-0.212575
1692465933558,10.497,0.78495,-3.5140502,16.614,-0.18095,0.0952875,-0.12815
1692465933588,10.527,0.61995006,-1.7260501,10.870951,-0.2825625,0.0529375,0.0803
1692465933615,10.554,0.80700004,-0.16695,6.3520503,-0.501875,-0.0631125,0.5449125
1692465933644,10.583,1.0849501,-0.91200006,8.071051,-0.4983,-0.117975,0.5951
1692465933674,10.613,0.91005003,-1.6350001,9.591001,-0.41085,-0.1623875,0.5214
1692465933712,10.651,-0.063,-1.6060501,9.883051,-0.1288375,-0.2990625,0.384175
1692465933744,10.683,-0.11805001,-1.4449501,6.25395,-0.1214125,-0.3048375,0.4752
1692465933761,10.7,0.120000005,-1.01505,5.1480002,-0.1304875,-0.2561625,0.5487625
1692465933785,10.724,0.20895001,-0.22005,6.6780005,-0.143275,-0.172975,0.584925
1692465933812,10.751,0.29700002,0.21495001,6.8500504,-0.152625,-0.0952875,0.599775
1692465933840,10.779,0.18195,0.57600003,6.1410003,-0.0484,-0.01375,0.3925625
1692465933868,10.807,0.35895002,0.43500003,7.1010003,0.0968,0.02255,0.0528
1692465933900,10.839,0.28305,-0.36795002,9.16905,0.4059,0.0922625,-0.78815
1692465933926,10.865,-0.21405001,-0.88305,10.266001,0.4987125,0.100099996,-1.0503625
1692465933954,10.893,-0.09900001,-1.04295,10.91205,0.4588375,0.101475,-0.9549375
1692465933979,10.918,0.051000003,-1.2079501,11.56305,0.340175,0.1335125,-0.6722375
1692465934010,10.949,-0.13695,-1.1080501,10.498051,0.0941875,0.1984125,-0.1216875
1692465934037,10.976,0.60105,-1.077,12.195001,0.01375,0.19373749,0.0042625
1692465934068,11.007,0.30900002,0.36795002,11.37405,-0.036575,0.1711875,0.034925
1692465934094,11.033,-0.96795005,-0.82800007,8.776951,-0.064625,0.13805,0.027775
1692465934121,11.06,0.74205005,-3.4680002,14.842051,-0.064899996,0.0592625,-0.0012375
1692465934149,11.088,1.365,-3.8890502,15.891001,-0.06655,0.04455,0.0083875
1692465934176,11.115,-0.69495004,-2.33295,11.271001,-0.2880625,-0.031075,0.46667498
1692465934204,11.143,-2.232,-2.14905,9.4129505,-0.4486625,-0.1280125,0.7929625
1692465934231,11.17,-0.76695,-2.67105,11.27595,-0.5407875,-0.061325,0.9565875
1692465934259,11.198,-0.15405001,-1.67505,9.63405,-0.5141125,0.12925,0.9351375
1692465934285,11.224,-0.43905002,-1.197,5.1550503,-0.4789125,0.2734875,0.9604375
1692465934314,11.253,-1.06605,-0.75795,3.2910001,-0.4279,0.2893,0.96965
1692465934343,11.282,0.12495001,-1.041,8.394,-0.276925,0.155375,0.6978125
1692465934370,11.309,1.1329501,-0.73200005,9.279,-0.1992375,0.133375,0.515625
1692465934399,11.338,0.35205,-0.20595,7.5150003,0.0004125,0.09185,0.15413749
1692465934425,11.364,0.24900001,-0.19395001,7.4479504,0.1293875,0.011825,-0.111925
1692465934453,11.392,0.771,-0.79200006,9.43995,0.3447125,-0.1335125,-0.6307125
1692465934481,11.42,0.42900002,-0.88500005,10.431001,0.403425,-0.1485,-0.786775
1692465934511,11.45,-0.102000006,-0.69105005,9.64605,0.4167625,-0.1618375,-0.847275
1692465934537,11.476,0.21795002,-0.93600005,10.878,0.34045,-0.194425,-0.7841625
1692465934569,11.508,-0.13005,-1.005,12.148951,0.2913625,-0.161425,-0.7261375
1692465934594,11.533,-0.41505003,-1.11,13.552051,0.2074875,-0.042625,-0.5889125
1692465934627,11.566,-0.95595,-0.17895001,11.673,0.17173749,0.0163625,-0.5267625
1692465934653,11.592,-1.3300501,-0.60105,10.675051,0.1549625,0.08305,-0.48345
1692465934681,11.62,-0.36705002,-2.4150002,13.618951,0.19965,0.2415875,-0.520025
1692465934709,11.648,0.20400001,-3.0229502,12.619051,0.2083125,0.309925,-0.5416125
1692465934735,11.674,0.30705002,-2.25,10.31805,-0.00275,0.2828375,-0.115775
1692465934763,11.702,0.51705,-1.8139501,8.65695,-0.1876875,0.1621125,0.3026375
1692465934792,11.731,0.46695003,-1.9189501,9.942,-0.417725,-0.12485,0.931425
1692465934818,11.757,-0.066,-1.692,10.045051,-0.4324375,-0.2336125,1.0729125
1692465934849,11.788,-0.59205,-0.91905004,7.8600006,-0.40865,-0.3051125,1.122275
1692465934876,11.815,-0.79605,-0.37095,6.4879503,-0.2996125,-0.2707375,0.94063747
1692465934904,11.843,-0.043950003,-0.43500003,7.7689505,-0.21395,-0.1667875,0.7679375
1692465934932,11.871,0.08400001,-0.43305,8.03895,-0.0004125,0.054449998,0.3867875
1692465934957,11.896,-0.36705002,0.25305,7.1010003,0.099825,0.109037496,0.1533125
1692465934985,11.924,-0.22395001,0.70995003,7.0990505,0.1868625,0.1236125,-0.095975
1692465935015,11.954,0.010050001,0.57900006,7.4479504,0.2748625,0.1271875,-0.344025
1692465935046,11.985,0.15105,0.09705,9.64305,0.4877125,0.154275,-0.8514
1692465935074,12.013,-0.11805001,0.18405001,10.278001,0.6188875,0.1005125,-1.145375
1692465935101,12.04,-0.279,0.507,9.729,0.6164125,0.0457875,-1.1407
1692465935129,12.068,-0.30495003,0.684,9.969001,0.5847875,0.009625,-1.0946375
1692465935159,12.098,-0.15705001,0.39195,10.225051,0.521125,0.032449998,-1.0342749
1692465935185,12.124,0.252,-0.31305,11.90505,0.506825,0.0600875,-0.9988
1692465935215,12.154,0.81900007,0.44205,13.597951,0.4349125,0.0521125,-0.747175
1692465935241,12.18,-0.44895002,-0.76995003,9.95205,0.3493875,0.0023375,-0.510675
1692465935272,12.211,-0.37695003,-3.11595,14.766001,0.1205875,-0.087725,0.0449625
1692465935298,12.237,0.33795002,-3.49005,15.792001,-0.0471625,-0.06435,0.37125
1692465935324,12.263,-0.25005,-1.3039501,11.766001,-0.2825625,-0.0169125,0.78925
1692465935351,12.29,-2.64105,-0.75600004,7.0720506,-0.7206375,-0.0358875,1.538075
1692465935380,12.319,-2.94495,-0.47595003,6.8280005,-0.74305,-0.036575,1.5478375
1692465935404,12.343,-1.368,-1.4790001,9.571051,-0.6381375,0.067375,1.3479125
1692465935435,12.374,0.13905,-1.5990001,9.13305,-0.3804625,0.451,1.0429375
1692465935462,12.401,0.47400004,-1.4140501,8.779051,-0.346775,0.50435,1.1273625
1692465935493,12.432,0.40695003,-0.47805002,8.478001,-0.3656125,0.3834875,1.26225
1692465935519,12.458,0.45000002,0.13095,7.3810506,-0.3452625,-0.0669625,1.149225
1692465935548,12.487,0.38295,0.61005,6.3810005,-0.2402125,-0.2228875,0.864875
1692465935573,12.512,0.17505,0.78405005,5.5960503,0.0906125,-0.3271125,0.122099996
1692465935603,12.542,-0.08205,0.69105005,6.25395,0.2651,-0.312675,-0.279675
1692465935633,12.572,-0.38595003,0.52395004,8.128051,0.5322625,-0.2222,-0.9497125
1692465935668,12.607,-0.73605,0.34905002,8.941951,0.601975,-0.1552375,-1.1462
1692465935684,12.623,-0.73800004,0.21195,9.79905,0.6260375,-0.0785125,-1.2463
1692465935720,12.659,0.13695,-0.18900001,10.897051,0.5548125,0.0864875,-1.2302125
1692465935747,12.686,-0.18300001,-0.11505,10.4740505,0.469425,0.14355,-1.1342375
1692465935780,12.719,-0.34305,-0.55695003,11.656051,0.24585,0.0933625,-0.8160625
1692465935807,12.746,-0.37005,-1.2040501,14.244,0.1450625,0.0353375,-0.6556
1692465935836,12.775,0.321,0.040050004,11.92905,-0.0554125,-0.001375,-0.2179375
1692465935863,12.802,0.23505001,-0.45195,9.057,-0.1573,-0.0119624995,0.068475
1692465935892,12.831,0.74700004,-0.63405,12.927001,-0.20693749,-0.0422125,0.27101249
1692465935921,12.86,0.91695005,-1.9339501,13.606951,-0.1442375,-0.150975,0.3531
1692465935951,12.89,-0.68595004,-1.8930001,11.200951,-0.1687125,-0.280225,0.5352875
1692465935976,12.915,-1.3770001,-1.3620001,12.184951,-0.2580875,-0.3111625,0.720225
1692465936005,12.944,-0.82395005,-1.5460501,10.60095,-0.35227498,-0.272525,0.886875
1692465936035,12.974,-0.65895003,-1.46895,6.90705,-0.41181248,0.0127875,0.9552125
1692465936065,13.004,-0.55200005,-1.2040501,7.1680503,-0.3953125,0.14533749,0.889075
1692465936094,13.033,0.24000001,-0.8880001,7.7550006,-0.3834875,0.2256375,0.7115625
1692465936125,13.064,0.40995002,-0.47100002,6.0529504,-0.3735875,0.21175,0.598675
1692465936153,13.092,0.058050003,-0.097950004,5.7660003,-0.2688125,0.088275,0.2773375
1692465936179,13.118,-0.324,-0.079050004,7.0630503,-0.1758625,0.0001375,0.0726
1692465936209,13.148,-0.40305,-0.03795,8.6640005,-0.0647625,-0.056925,-0.1461625
1692465936237,13.176,-0.75000006,-0.30405003,11.13405,0.1742125,0.004125,-0.5886375
1692465936266,13.205,-0.573,-0.49500003,11.319,0.272525,0.0878625,-0.7924125
1692465936294,13.233,-0.56805,-0.069000006,11.01,0.352,0.2239875,-1.065625
1692465936334,13.273,-1.5450001,0.69600004,10.078951,0.33261248,0.247775,-1.1721874
1692465936355,13.294,-1.605,0.38205,10.852051,0.362175,0.2545125,-1.2703625
1692465936383,13.322,-1.0710001,-0.75105006,14.206051,0.425425,0.2924625,-1.4157
1692465936411,13.35,-1.4830501,-0.93105006,14.191051,0.479875,0.34759998,-1.5346375
1692465936437,13.376,-1.023,-2.5870502,13.650001,0.3661625,0.3716625,-1.3201375
1692465936465,13.404,0.675,-3.52605,13.753051,0.17847499,0.3474625,-0.9376125
1692465936492,13.431,-0.69000006,-2.66895,12.54405,-0.073699996,0.3042875,-0.3927
1692465936518,13.457,-1.4280001,-2.19,11.946,-0.347325,0.1997875,0.241725
1692465936555,13.494,-2.77305,-2.35305,9.885,-0.74593747,-0.0924,1.27105
1692465936584,13.523,-1.32,-2.082,9.246,-0.7209125,0.0510125,1.23585
1692465936608,13.547,-0.33600003,-2.154,8.563951,-0.6824125,0.2404875,1.1779625
1692465936639,13.578,-0.57600003,-1.644,9.27495,-0.653125,0.313225,1.303775
1692465936664,13.603,-0.76905006,-1.04595,9.64095,-0.6480375,0.146025,1.458875
1692465936691,13.63,-1.27695,0.39900002,8.905951,-0.5031125,-0.1837,1.363725
1692465936718,13.657,-0.762,0.39900002,7.6800003,-0.31625,-0.205425,0.97075
1692465936744,13.683,0.38805002,-0.73695004,6.216,-0.0628375,-0.1351625,0.4008125
1692465936772,13.711,0.61995006,-1.005,6.4480505,-0.0628375,-0.1351625,0.4008125
1692465936800,13.739,0.47400004,-1.31595,7.2349505,0.4233625,-0.0449625,-0.9051625
1692465936829,13.768,0.31605002,-0.9670501,7.0800004,0.314875,-0.2052875,-0.78375
1692465936857,13.796,0.321,-0.90705,6.2629504,0.008525,-0.5028375,-0.2382875
1692465936886,13.825,0.12195001,-0.64605004,6.4140005,-0.0584375,-0.54065,-0.0906125
1692465936914,13.853,0.13695,-0.26805001,7.518,-0.0515625,-0.47079998,-0.0243375
1692465936943,13.882,0.23295002,0.030000001,7.5199504,-0.0089375,-0.4090625,-0.024475
1692465936972,13.911,0.49095002,-0.012,6.9600005,0.1791625,-0.2842125,-0.19167499
1692465937002,13.941,-0.09900001,0.186,8.23095,0.2968625,-0.2410375,-0.3672625
1692465937031,13.97,0.096,0.25305,9.42105,0.4497625,-0.1951125,-0.64075
1692465937059,13.998,0.15795001,-0.38295,10.30095,0.4945875,-0.1549625,-0.7649125
1692465937085,14.024,0.63900006,-1.8859501,12.879001,0.5267625,-0.098037496,-0.9174
1692465937118,14.057,1.5109501,0.39405003,12.621,0.4285875,-0.0496375,-0.927025
1692465937144,14.083,-1.88205,-0.75600004,11.30895,0.311025,-0.1021625,-0.71665
1692465937174,14.113,-1.4089501,-2.0730002,14.887951,0.203225,-0.150975,-0.4761625
1692465937202,14.141,0.46500003,-1.6680001,12.394051,0.15675,-0.0045375,-0.401775
1692465937229,14.168,0.48405004,-0.78495,9.54705,-0.1032625,0.307725,0.202125
1692465937256,14.195,-0.0010500001,-1.7260501,9.94995,-0.2233,0.24585,0.6199875
1692465937283,14.222,-0.14205001,-3.1620002,14.062051,-0.28861248,0.0891,0.92015
1692465937309,14.248,-0.24300002,-3.8869503,15.618001,-0.32793748,-0.0424875,1.0459625
1692465937339,14.278,-1.03995,-1.7830501,10.08405,-0.5022875,-0.1034,1.065075
1692465937368,14.307,-0.58305,-1.1509501,5.20095,-0.6073375,-0.077,1.019975
1692465937395,14.334,0.13005,-1.1920501,5.88,-0.5806625,0.0671,0.6281
1692465937426,14.365,0.42405003,-1.5769501,8.63595,-0.4808375,0.138325,0.4087875
1692465937450,14.389,0.97005004,-1.1370001,8.415,-0.3878875,0.15125,0.2728
1692465937481,14.42,0.69900006,-0.71295005,6.6660004,-0.24475,-0.00055,0.118525
1692465937515,14.454,0.63705003,-0.85695004,8.52105,-0.091299996,-0.198275,-0.1420375
1692465937542,14.481,-0.504,-0.36405003,9.946951,-0.0185625,-0.2602875,-0.26345
1692465937568,14.507,0.49305,-0.70095,8.84595,0.05335,-0.2745875,-0.3504875
1692465937597,14.536,0.28500003,-1.00695,10.10805,0.1992375,-0.13915,-0.4752
1692465937624,14.563,0.984,-0.81600004,12.994051,0.24887499,-0.0699875,-0.4945875
1692465937651,14.59,-0.63495004,-0.75600004,11.802001,0.2723875,-0.055,-0.4547125
1692465937681,14.62,-0.46305,-3.6910503,11.953051,0.25355,-0.0611875,-0.2737625
1692465937713,14.652,1.38405,-5.3490005,16.62495,0.1852125,0.0198,-0.1595
1692465937741,14.68,-0.0010500001,-2.41995,13.585951,-0.243925,0.1291125,0.5471125
1692465937767,14.706,-2.9599502,-1.1340001,8.025001,-0.5006375,0.0116875,1.0412875
1692465937797,14.736,-2.091,-1.12905,8.434051,-0.54835,-0.1255375,1.20725
1692465937827,14.766,0.32295,-2.805,11.395051,-0.38541248,0.0578875,0.984775
1692465937856,14.795,0.63495004,-2.0320501,9.603001,-0.114675,0.5127375,0.70661247
1692465937885,14.824,0.17505,-1.48395,8.133,-0.082775,0.4717625,0.6582125
1692465937913,14.852,-0.051000003,0.025950002,6.81195,-0.12045,0.0138875,0.5160375
1692465937941,14.88,0.68295,0.40605003,6.2419505,-0.0985875,-0.1299375,0.3920125
1692465937972,14.911,0.46005002,0.753,5.51205,-0.0009625,-0.165275,0.1758625
1692465938000,14.939,-0.441,0.73905003,6.0070505,0.36355,-0.1276,-0.519475
1692465938028,14.967,-0.54,0.40905002,8.214001,0.543125,-0.1194875,-0.841775
1692465938057,14.996,0.28995,-0.70095,10.234051,0.786775,-0.00605,-1.151975
1692465938087,15.026,0.24900001,-0.77505004,9.97605,0.8204625,0.08415,-1.128875
1692465938116,15.055,-0.40305,-0.42600003,9.85095,0.60513747,0.07865,-0.71665
1692465938144,15.083,-0.33105,-0.19095,10.549951,0.425425,0.0088,-0.4830375
1692465938172,15.111,-0.12105001,-0.84900004,10.833,0.2239875,-0.0006875,-0.4312
1692465938200,15.139,-0.22395001,-1.02405,11.788051,0.2039125,0.039049998,-0.52442497
1692465938229,15.168,-0.231,0.093,12.99705,0.1824625,0.0598125,-0.5531625
1692465938254,15.193,-0.73800004,-0.65295005,9.859051,0.08635,0.0488125,-0.3909125
1692465938288,15.227,-1.212,-2.01495,12.05595,0.0572,0.04895,-0.34347498
1692465938316,15.255,0.16800001,-2.9560502,13.389001,-0.0210375,0.1203125,-0.2124375
1692465938343,15.282,0.83595,-2.46495,10.243951,-0.1480875,0.158675,0.07535
1692465938375,15.314,1.33095,-2.1040502,9.1380005,-0.49307498,-0.00495,0.939125
1692465938400,15.339,1.14195,-2.025,9.40095,-0.60307497,-0.18727499,1.18635
1692465938430,15.369,-0.17295001,-1.62705,9.592951,-0.6413,-0.359425,1.21605
1692465938456,15.395,-1.07805,-0.76095,9.36795,-0.5614125,-0.5105375,0.91465
1692465938485,15.424,-1.0830001,0.076050006,8.710051,-0.4709375,-0.4299625,0.7055125
1692465938516,15.455,-0.89400005,0.591,7.7470503,-0.166375,0.0075625,0.0911625
1692465938539,15.478,-1.04205,0.504,7.7209506,0.0482625,0.2468125,-0.3614875
1692465938575,15.514,-0.39600003,0.37305,8.10705,0.4591125,0.5416125,-1.3182125
1692465938598,15.537,0.33495003,-0.23895001,9.46605,0.590975,0.5808,-1.6017375
1692465938627,15.566,0.75705004,-0.51405,9.80805,0.6567,0.543675,-1.6644375
1692465938658,15.597,-0.72195005,-0.048,9.889951,0.569525,0.2204125,-1.21605
1692465938689,15.628,-0.71205,-0.043050002,10.80405,0.451,0.01045,-0.8353125
1692465938717,15.656,-0.25005,-0.043050002,9.471001,0.2897125,-0.114675,-0.2864125
1692465938746,15.685,-0.70005006,0.042000003,9.48495,0.2674375,-0.031075,-0.1959375
1692465938775,15.714,-0.04695,-0.80595005,9.92595,0.2343,0.115225,-0.1920875
1692465938803,15.742,0.47400004,-0.97395,12.349951,0.2011625,0.1332375,-0.194975
1692465938834,15.773,-2.1030002,-0.51405,10.31295,0.1469875,0.106975,-0.11935
1692465938863,15.802,-0.88905007,-2.9509501,13.645051,0.0169125,-0.020624999,0.2244
1692465938893,15.832,0.72300005,-3.38895,16.219051,-0.0422125,0.023924999,0.3557125
1692465938927,15.866,-1.0639501,-0.94500005,8.323951,-0.3392125,0.21175,0.8177125
1692465938953,15.892,-2.29395,-0.91605,4.9110003,-0.6650875,-0.030524999,1.418175
1692465938980,15.919,-1.368,-1.6350001,8.20905,-0.6466625,-0.093637496,1.4179
1692465939008,15.947,0.132,-2.2090502,11.866951,-0.5515125,-0.0116875,1.281225
1692465939036,15.975,-0.04695,-1.4500501,9.19995,-0.43821248,0.2063875,1.1732875
1692465939063,16.002,-0.25995,-1.0890001,7.6639504,-0.4450875,0.12979999,1.2309
1692465939093,16.032,0.20895001,-0.38295,8.23095,-0.3779875,-0.1450625,0.98945
1692465939121,16.06,0.18495001,-0.01905,7.5490503,-0.2803625,-0.1852125,0.6556
1692465939148,16.087,-0.13005,0.47595003,6.6319504,-0.144925,-0.1799875,0.2514875
1692465939178,16.117,0.16800001,0.141,7.431,0.19373749,-0.15235,-0.5839625
1692465939208,16.147,0.22500001,-0.35895002,8.899051,0.3524125,-0.1265,-0.9266125
1692465939236,16.175,-0.24300002,-0.35595003,9.729,0.471625,-0.0996875,-1.156925
1692465939266,16.205,-0.063,-0.78495,11.014951,0.50985,-0.1065625,-1.2137125
1692465939296,16.235,0.44295,-1.40205,11.653951,0.357225,-0.0889625,-1.027675
1692465939325,16.264,0.18705001,-1.0309501,10.94505,0.2503875,-0.0779625,-0.8388875
1692465939355,16.294,-0.051000003,-0.43800002,11.446051,0.001925,-0.153175,-0.2028125
1692465939389,16.328,0.27600002,0.906,10.681951,-0.0661375,-0.18259999,0.0045375
1692465939408,16.347,0.12495001,-0.49005002,9.96405,-0.052525,-0.176275,0.001375
1692465939439,16.378,0.058050003,-2.3740501,12.525001,0.163625,-0.122237496,-0.406725
1692465939467,16.406,0.666,-2.424,12.906,0.220825,-0.107525,-0.433675
1692465939499,16.438,0.109950006,-1.4449501,10.08405,-0.03795,-0.1227875,0.3575
1692465939530,16.469,0.46005002,-1.36395,8.85105,-0.2281125,-0.1513875,0.8386125
1692465939560,16.499,0.9979501,-1.9909501,9.63105,-0.36574998,-0.17985,1.14345
1692465939589,16.528,0.41400003,-1.7830501,9.568951,-0.3515875,-0.1909875,1.0509125
1692465939617,16.556,-0.279,-1.383,8.253,-0.34705,-0.2630375,0.76147497
1692465939645,16.584,-0.025050001,-0.96900004,8.03895,-0.350625,-0.262625,0.5861625
1692465939670,16.609,0.075,-0.49800003,8.04405,-0.33715,-0.19525,0.399575
1692465939708,16.647,-0.22605,-0.105000004,7.77405,-0.224125,0.0253,-0.015125
1692465939732,16.671,-0.18795002,-0.057000004,7.3810506,0.010175,0.153175,-0.4772625
1692465939761,16.7,-0.027,0.07395,7.7140503,0.13585,0.197725,-0.67375
1692465939789,16.728,-0.18105,0.22695,9.01605,0.2410375,0.2352625,-0.8316
1692465939820,16.759,-0.312,0.08805001,8.829,0.321475,0.2556125,-0.9637375
1692465939849,16.788,-0.24795002,-0.21495001,9.85095,0.4269375,0.24475,-1.1001375
1692465939877,16.816,-0.48900002,-0.41400003,11.06295,0.44385,0.2248125,-0.9618125
1692465939905,16.844,-0.65505004,-0.081,10.371,0.4021875,0.2146375,-0.8405375
1692465939935,16.874,-0.717,-0.58605003,10.737,0.338525,0.2077625,-0.7123875
1692465939964,16.903,-0.62805,-2.676,13.830001,0.21779999,0.2321,-0.47905
1692465939992,16.931,0.32805002,-2.7570002,12.3820505,0.1392875,0.2476375,-0.327525
1692465940019,16.958,-0.39405003,-3.0949502,11.866951,-0.2288,0.157025,0.3606625
1692465940049,16.988,-1.03005,-2.5510502,11.854951,-0.4494875,0.040975,0.7821
1692465940078,17.017,-1.7010001,-2.4769502,9.83205,-0.687775,-0.119075,1.275725
1692465940110,17.049,-1.23405,-2.2740002,10.522051,-0.7041375,-0.0903375,1.330725
1692465940141,17.08,-0.018000001,-2.79795,11.328,-0.6303,0.1023,1.1985875
1692465940169,17.108,0.14895001,-2.4409502,10.56,-0.573375,0.166375,1.08625
1692465940197,17.136,-0.126,-1.21605,7.8409505,-0.482075,0.0460625,0.901725
1692465940224,17.163,0.094050005,-0.18405001,6.6850505,-0.43835,-0.0760375,0.792825
1692465940252,17.191,0.16095,-0.10005,6.5989504,-0.43835,-0.0760375,0.792825
1692465940282,17.221,-0.21900001,0.52395004,6.5269504,-0.057475,-0.1456125,0.0974875
1692465940310,17.249,-0.36195,0.16905001,6.7230005,0.3540625,-0.0638,-0.5401
1692465940341,17.28,-0.38895002,-0.28905,7.9219503,0.5284125,0.001375,-0.8694125
1692465940369,17.308,-0.26700002,-0.58605003,9.47295,0.6419875,0.0748,-1.1452374
1692465940398,17.337,-0.43005002,-0.44505003,10.09095,0.6766375,0.13145,-1.29085
1692465940427,17.366,-0.67095006,-0.62895006,10.42395,0.5632,0.1577125,-1.1903375
1692465940457,17.396,0.024,-0.71505004,10.644,0.4170375,0.158125,-1.076625
1692465940487,17.426,0.06705,-0.66,10.29405,0.352,0.159775,-1.013925
1692465940515,17.454,0.12495001,-1.09395,11.75895,0.2816,0.1329625,-0.8922375
1692465940543,17.482,0.47205,-0.70605004,11.955001,0.1434125,-0.011,-0.5927625
1692465940574,17.513,-0.15405001,-0.76995003,10.099951,0.055,-0.155925,-0.317625
1692465940602,17.541,-0.17295001,-1.3740001,11.280001,0.032175,-0.21065,-0.1508375
1692465940629,17.568,-0.03705,-2.061,11.332951,0.017324999,-0.2332,0.0121
1692465940658,17.597,0.38595003,-2.2759502,9.403951,-0.05775,-0.1783375,0.28545
1692465940686,17.625,0.49095002,-1.8049501,10.225051,-0.15235,-0.152625,0.4640625
1692465940717,17.656,0.53400004,-2.118,11.380951,-0.3636875,-0.190575,0.85469997
1692465940748,17.687,0.132,-1.9459502,11.898001,-0.418825,-0.23595,0.9574125
1692465940775,17.714,-0.030000001,-2.013,10.218,-0.4136,-0.27005,0.894575
1692465940803,17.742,-0.25995,-1.7520001,9.246,-0.3757875,-0.2316875,0.76065
1692465940833,17.772,-0.20700002,-1.2250501,9.516001,-0.3064875,-0.1186625,0.588775
1692465940860,17.799,-0.08505,-0.92805004,8.856,-0.27307498,-0.0666875,0.5520625
1692465940891,17.83,0.28005,-0.50205004,7.6969504,-0.2156,-0.0103124995,0.4459125
1692465940920,17.859,0.312,-0.10005,6.56295,-0.02475,0.0691625,0.0317625
1692465940949,17.888,0.32295,0.078,7.2379503,0.0752125,0.0595375,-0.148775
1692465940978,17.917,0.28800002,-0.028050002,8.406,0.2574,-0.00385,-0.4291375
1692465941007,17.946,-0.18795002,-0.246,9.79605,0.342925,-0.021724999,-0.58795
1692465941035,17.974,-0.29295,-0.60495,10.27305,0.4494875,-0.0031625,-0.862675
1692465941062,18.001,-0.01995,-0.46905002,9.691051,0.4456375,0.0394625,-0.881375
1692465941092,18.031,0.08895,-0.31095,9.271951,0.4057625,0.091025,-0.7910375
1692465941122,18.061,0.87195003,0.076050006,12.331051,0.2877875,0.117975,-0.4178625
1692465941148,18.087,0.49800003,-0.92805004,10.58205,0.2432375,0.0820875,-0.23375
1692465941178,18.117,-0.51795,-2.5470002,10.67205,0.190025,-0.027775,0.0510125
1692465941207,18.146,0.72795004,-3.76305,15.163051,0.125675,-0.0754875,0.24035
1692465941238,18.177,0.99600005,-2.66595,12.646951,-0.2327875,-0.0697125,0.8977375
1692465941267,18.206,-0.18795002,-2.0700002,9.6,-0.4439875,-0.086899996,1.2144
1692465941302,18.241,-1.296,-1.3740001,9.247951,-0.6032125,-0.224125,1.317525
1692465941329,18.268,-0.85095006,-1.6030501,9.538051,-0.5559125,-0.21835,1.1710875
1692465941356,18.295,-0.54405004,-2.0770502,9.02295,-0.3518625,0.0543125,0.7755
1692465941384,18.323,-0.027,-1.8259501,9.399,-0.2613875,0.20253749,0.5753
1692465941412,18.351,0.60105,-1.6200001,8.950951,-0.218625,0.27445,0.4261125
1692465941444,18.383,0.44595003,-0.531,7.563,-0.21835,0.1964875,0.28325
1692465941478,18.417,-0.27600002,0.43005002,6.2850003,-0.1038125,0.000825,0.007425
1692465941500,18.439,-0.77400005,0.78405005,6.675,0.0264,-0.04675,-0.243375
1692465941528,18.467,-0.786,0.624,8.025001,0.19167499,-0.0174625,-0.5490375
1692465941559,18.498,-0.11595,-0.30405003,9.073951,0.5533,0.21573749,-1.2016125
1692465941587,18.526,-0.11595,-0.66,9.892051,0.67347497,0.310475,-1.4018124
1692465941615,18.554,-0.13995,-0.55305004,9.97395,0.6131125,0.2619375,-1.1743875
1692465941645,18.584,-0.24495001,-0.82800007,10.783051,0.48633748,0.1747625,-0.86735
1692465941679,18.618,-0.11100001,-1.31595,12.19005,0.35915,0.1005125,-0.57928747
1692465941714,18.653,-0.042000003,-0.76995003,12.793051,0.0614625,-0.0001375,0.015262499
1692465941731,18.67,0.56505,0.19995001,10.92405,-0.016224999,-0.016775,0.19415
1692465941765,18.704,-1.1329501,-0.88995004,8.323951,-0.0473,-0.0262625,0.3031875
1692465941796,18.735,-0.51795,-2.4840002,14.272951,0.0482625,0.01265,0.1744875
1692465941824,18.763,0.273,-2.8980002,13.82505,0.059675,0.0716375,0.12595
1692465941851,18.79,-0.19500001,-1.2559501,8.50395,-0.1846625,0.1032625,0.4811125
1692465941881,18.82,-0.079950005,-0.62205005,7.3429503,-0.3234,0.0257125,0.6754
1692465941912,18.851,-0.09705,-1.40505,9.4470005,-0.3515875,-0.0928125,0.62975
1692465941946,18.885,-0.39405003,-1.71405,10.1959505,-0.2784375,-0.095699996,0.4659875
1692465941974,18.913,-0.73605,-1.51995,9.813001,-0.21615,-0.089237496,0.3036
1692465942003,18.942,-0.63105005,-1.098,8.3550005,-0.202675,-0.0457875,0.1808125
1692465942031,18.97,-0.37395,-0.648,7.5420003,-0.1898875,0.0793375,0.12155
1692465942062,19.001,-0.20700002,-0.13605,6.8569503,-0.1463,0.1384625,-0.0198
1692465942089,19.028,-0.025050001,-0.38505003,7.8430505,-0.0809875,0.1703625,-0.2107875
1692465942120,19.059,-0.23295002,-0.34395,8.784,0.0924,0.1522125,-0.5633375
1692465942148,19.087,-0.60405004,-0.33195,9.061951,0.1742125,0.111925,-0.6703125
1692465942177,19.116,-0.71895003,-0.43995002,9.238951,0.2836625,0.0400125,-0.7261375
1692465942203,19.142,-0.67800003,-0.63405,10.354051,0.3146,0.055275,-0.73645
1692465942234,19.173,-0.44595003,-0.94500005,10.813951,0.321475,0.1463,-0.774125
1692465942263,19.202,-0.66405004,-1.2420001,10.94505,0.2869625,0.1672,-0.74415
1692465942294,19.233,-0.57795,-1.575,12.55395,0.2237125,0.1582625,-0.6512
1692465942319,19.258,-0.015000001,-0.58605003,13.462951,0.053075,0.092675,-0.35035
1692465942349,19.288,-1.7910001,-1.5150001,9.234,-0.010175,0.0543125,-0.215325
1692465942379,19.318,-0.48900002,-3.31695,12.630001,-0.0317625,0.022275,-0.086899996
1692465942408,19.347,1.5990001,-3.21705,12.537001,-0.067375,0.055275,0.015675
1692465942436,19.375,1.3620001,-2.6160002,11.383051,-0.1907125,0.069575,0.276925
1692465942528,19.467,0.060000002,-1.8859501,9.184051,-0.45045,-0.3135,0.922075
1692465942553,19.492,0.16305001,-1.6660501,8.463,-0.2704625,0.084425,0.6887375
1692465942581,19.52,0.35895002,-1.314,8.43,-0.2300375,0.1012,0.63621247
1692465942610,19.549,0.55095005,-0.768,8.32005,-0.180125,-0.101475,0.52648747
1692465942636,19.575,0.25605002,-0.18405001,7.6420503,-0.12979999,-0.1975875,0.447425
1692465942667,19.606,-0.28800002,0.31995,7.0630503,-0.0496375,-0.2630375,0.326425
1692465942736,19.675,-0.35295,-0.37995002,9.265051,0.3548875,-0.119625,-0.546975
1692465942769,19.708,-0.08505,-1.26405,11.206051,0.5427125,0.102025,-1.1339625
1692465942800,19.739,0.028950002,-1.1869501,10.773001,0.4783625,0.164725,-1.17535
1692465942832,19.771,-0.24000001,-0.63195,9.898951,0.2017125,0.0543125,-0.55439997
1692465942840,19.779,-0.26205,-0.63195,9.97095,0.2017125,0.0543125,-0.55439997
1692465942857,19.796,-0.11100001,-1.0819501,11.118001,0.094875,-0.0020625,-0.320375
1692465942879,19.818,0.3,-0.34395,12.312,0.0495,-0.022275,-0.2437875
1692465942903,19.842,0.010050001,-0.49500003,11.29695,0.0517,-0.0174625,-0.26015
1692465942927,19.866,-0.75000006,-1.608,11.19705,0.0726,-0.0177375,-0.284625
1692465942961,19.9,0.43395,-2.19195,12.53505,0.083875,-0.0451,-0.245575
1692465942985,19.924,0.45795003,-1.6350001,9.43995,0.0334125,-0.042625,-0.1519375
1692465943013,19.952,0.36705002,-1.197,7.767,-0.1678875,-0.0748,0.230175
1692465943042,19.981,0.20595,-1.89795,9.660001,-0.24145,-0.13255,0.40865
1692465943072,20.011,0.34305,-2.7640502,11.42895,-0.264825,-0.1896125,0.5218125
1692465943101,20.04,0.381,-2.6230502,11.22795,-0.2828375,-0.25355,0.789525
1692465943130,20.069,0.064950004,-1.7490001,8.286,-0.3394875,-0.2748625,0.98202497
1692465943159,20.098,-0.34605002,-0.85905004,7.3960505,-0.4387625,-0.2666125,1.0351
1692465943194,20.133,-0.25995,-0.27705002,7.5610504,-0.3408625,-0.138325,0.638825
1692465943221,20.16,-0.51600003,0.030000001,8.20695,-0.219725,-0.0334125,0.3480125
1692465943253,20.192,-0.33105,0.12900001,8.46105,-0.063525,0.08635,-0.0298375
1692465943280,20.219,0.17505,-0.29205,8.920051,0.2762375,0.2979625,-0.8911375
1692465943310,20.249,0.67995006,-1.1580001,10.182,0.495,0.346775,-1.4058
1692465943336,20.275,0.23505001,-1.4140501,10.80405,0.4945875,0.2605625,-1.3853124
1692465943367,20.306,-0.702,-1.0189501,10.378051,0.4123625,0.12265,-1.1671
1692465943394,20.333,-0.38205,-0.90705,9.97095,0.16995,-0.0380875,-0.4874375
1692465943421,20.36,-0.171,-1.4260501,9.78705,0.0955625,-0.0039875,-0.1901625
1692465943448,20.387,-0.05595,-2.13,11.60595,0.055,0.053075,0.044
1692465943477,20.416,0.012,-1.623,14.3539505,-0.039049998,0.0708125,0.372625
1692465943503,20.442,-1.1719501,-0.79005,11.400001,-0.1054625,0.02805,0.474925
1692465943534,20.473,-1.2889501,-1.62705,10.218,-0.1192125,-0.0042625,0.3883
1692465943563,20.502,1.4460001,-2.66895,13.24995,-0.073699996,0.092125,0.258775
1692465943591,20.53,1.1590501,-2.022,11.491051,-0.059675,0.2226125,0.2055625
1692465943618,20.557,-0.24495001,-0.84000003,9.37005,-0.2105125,0.1183875,0.4593875
1692465943645,20.584,-1.7820001,-0.507,6.5460005,-0.267575,-0.10065,0.5374875
1692465943673,20.612,-1.026,-1.1700001,8.917951,-0.1450625,-0.2030875,0.3036
1692465943701,20.64,0.32295,-1.6180501,10.00905,-0.0506,-0.0523875,0.170225
1692465943732,20.671,0.59205,-1.04295,8.628,0.014575,0.1672,0.1769625
1692465943761,20.7,0.45000002,-0.56505,7.2400503,-0.003025,0.093775,0.262625
1692465943788,20.727,0.60795003,-0.097950004,7.3120503,-0.0171875,-0.0490875,0.3007125
1692465943817,20.756,0.453,0.061950002,8.22105,0.062975,-0.2352625,0.0906125
1692465943844,20.783,0.11805001,0.042000003,7.86495,0.1511125,-0.2550625,-0.1051875
1692465943876,20.815,0.097950004,-0.20595,8.78895,0.3306875,-0.217525,-0.505175
1692465943905,20.844,0.25395,-0.36600003,9.34395,0.38885,-0.1617,-0.6560125
1692465943934,20.873,0.192,-0.54300004,9.877951,0.401225,-0.0562375,-0.7352125
1692465943964,20.903,-0.14205001,-0.507,9.61695,0.36245,-0.0339625,-0.684475
1692465943992,20.931,0.31395,-0.95205003,10.6390505,0.2432375,-0.000825,-0.5632
1692465944022,20.961,0.83100003,-1.1700001,12.147,0.17847499,0.0248875,-0.4981625
1692465944050,20.989,0.59400004,-0.43500003,12.475051,0.11385,0.03355,-0.3986125
1692465944081,21.02,-0.74805003,-2.5729501,12.288,0.006875,-0.050049998,-0.1034
1692465944106,21.045,-0.33105,-3.04395,13.20705,-0.030524999,-0.086625,0.0191125
1692465944137,21.076,0.75405,-2.9869502,14.184001,-0.0939125,-0.067375,0.146025
1692465944165,21.104,0.18900001,-1.1410501,9.088051,-0.36574998,0.00715,0.5707625
1692465944195,21.134,1.1370001,-0.85200006,6.8980503,-0.4851,-0.0581625,0.680075
1692465944224,21.163,1.5469501,-2.013,9.519,-0.4015,-0.082499996,0.5108125
1692465944252,21.191,0.72105,-2.1730502,10.73505,-0.2176625,-0.2168375,0.3317875
1692465944282,21.221,0.18495001,-1.764,9.559051,-0.2101,-0.337425,0.441925
1692465944310,21.249,0.26805001,-1.422,8.877001,-0.23773749,-0.4085125,0.5539875
1692465944341,21.28,0.18900001,-0.81795,8.169001,-0.253825,-0.274175,0.4384875
1692465944368,21.307,-0.079950005,-0.29700002,7.5660005,-0.22055,-0.151525,0.26455
1692465944399,21.338,0.01695,0.078,7.04895,-0.0757625,0.0323125,-0.122925
1692465944427,21.366,0.35700002,-0.060000002,7.8169503,0.0325875,0.106975,-0.336875
1692465944457,21.396,0.27795002,-0.21000001,8.65005,0.2660625,0.201575,-0.70867497
1692465944486,21.425,0.112950005,-0.44295,9.19305,0.3509,0.20019999,-0.82115
1692465944513,21.452,-0.079950005,-0.57705003,9.424951,0.40315,0.1566125,-0.8892125
1692465944544,21.483,-0.126,-0.60105,9.98295,0.3777125,0.1524875,-0.8507125
1692465944571,21.51,-0.26895002,-0.864,10.342051,0.33165,0.166925,-0.7794875
1692465944603,21.542,-0.21195,-1.6180501,10.68,0.2244,0.2094125,-0.5581125
1692465944631,21.57,0.642,-2.18505,13.597951,0.1607375,0.221375,-0.3826625
1692465944660,21.599,-0.094050005,-0.23205002,11.25195,-0.0493625,0.1736625,0.1175625
1692465944689,21.628,-1.21905,-1.9429501,9.097051,-0.143,0.1035375,0.30415
1692465944718,21.657,1.19505,-3.3120003,14.422951,-0.1233375,0.0631125,0.245025
1692465944748,21.687,1.14495,-2.319,13.21695,-0.1307625,0.10835,0.26633748
1692465944777,21.716,-0.26895002,-0.12900001,8.169001,-0.3801875,-0.0176,0.8317375
1692465944805,21.744,-1.0900501,-0.21795002,5.88,-0.427075,-0.1615625,0.9581
1692465944834,21.773,-1.2049501,-1.2970501,8.752951,-0.3339875,-0.2154625,0.7788
1692465944863,21.802,0.46905002,-2.4439502,12.142051,-0.013475,0.041525,0.1197625
1692465944892,21.831,0.29505002,-1.6060501,9.717,0.0031625,0.2470875,0.1970375
1692465944920,21.859,0.22095,-1.09395,7.4790006,-0.090475,0.15853749,0.4395875
1692465944949,21.888,0.28305,-0.32505003,6.46005,-0.1640375,0.0204875,0.5742
1692465944975,21.914,0.26805001,0.094950005,7.4890504,-0.146025,-0.1131625,0.36313748
1692465945013,21.952,-0.05595,0.12900001,7.9009504,-0.0622875,-0.104225,0.09625
1692465945039,21.978,-0.042000003,-0.141,8.50905,0.21175,-0.0350625,-0.5605875
1692465945067,22.006,-0.03705,-0.49305,9.82995,0.3394875,0.0094875,-0.8217
1692465945094,22.033,-0.15405001,-0.82095003,10.512,0.4398625,0.0859375,-1.00595
1692465945123,22.062,-0.264,-0.708,10.75605,0.407275,0.1012,-0.936925
1692465945152,22.091,-0.42705002,-0.39705002,10.024051,0.258225,0.115775,-0.6699
1692465945184,22.123,-0.53205,-1.14405,10.27005,0.1926375,0.1342,-0.578325
1692465945213,22.152,0.43800002,-1.23705,14.071051,0.116325,0.1821875,-0.56581247
1692465945240,22.179,0.39495003,-0.82605004,11.74005,0.06325,0.17985,-0.51094997
1692465945273,22.212,-0.55905,-1.66305,10.92405,-0.0567875,0.050325,-0.18975
1692465945299,22.238,-0.05595,-2.32605,12.910951,-0.088275,-0.0202125,-0.0653125
1692465945330,22.269,0.051000003,-2.45295,13.120951,-0.1266375,-0.04675,0.025575
1692465945359,22.298,-0.10395,-1.14405,9.05895,-0.2849,-0.042075,0.319
1692465945386,22.325,-0.20205002,-1.2780001,7.45305,-0.34553748,-0.056925,0.4607625
1692465945416,22.355,-0.47700003,-1.5630001,8.655001,-0.3488375,-0.06875,0.507375
1692465945444,22.383,0.109950006,-1.8930001,10.069051,-0.2567125,-0.037675,0.434225
1692465945475,22.414,0.24195,-1.3260001,8.88,-0.2352625,-0.0114124995,0.437525
1692465945504,22.443,0.12705001,-0.69105005,8.059051,-0.2462625,-0.0331375,0.4514125
1692465945532,22.471,0.16995001,-0.44505003,7.8480005,-0.2369125,-0.0675125,0.4263875
1692465945561,22.5,0.04605,-0.26505002,7.905,-0.095699996,-0.0906125,0.16293749
1692465945588,22.527,0.21300001,-0.33495003,8.595,0.0165,-0.0741125,-0.0314875
1692465945615,22.554,0.23295002,-0.31800002,8.997001,0.22055,-0.0336875,-0.3623125
1692465945645,22.584,0.10095,-0.41895002,9.18105,0.290125,-0.022824999,-0.4720375
1692465945674,22.613,0.34005,-0.77805007,9.880051,0.3564,-0.01815,-0.59235
1692465945705,22.644,0.07005,-0.67695004,9.837001,0.350625,-0.0163625,-0.583275
1692465945734,22.673,-0.24000001,-1.029,9.78195,0.2638625,-0.014575,-0.379775
1692465945764,22.703,0.41895002,-1.52205,12.172951,0.205425,-0.0094875,-0.232375
1692465945794,22.733,0.68505,-0.34905002,12.121051,0.1441,0.0015125,-0.080025
1692465945821,22.76,-0.94905007,-2.094,9.898951,0.022,-0.0281875,0.2068
1692465945854,22.793,1.3410001,-3.6979501,15.11505,-0.0672375,-0.0829125,0.3675375
1692465945880,22.819,0.82905006,-2.9220002,14.043,-0.177375,-0.067375,0.5399625
1692465945910,22.849,-0.14205001,-1.2709501,11.115001,-0.3465,-0.0906125,0.81427497
1692465945938,22.877,-2.04795,-1.3740001,7.4599504,-0.525525,-0.221925,1.022725
1692465945967,22.906,-1.4610001,-1.9770001,10.242001,-0.4494875,-0.16335,0.835725
1692465946002,22.941,-0.513,-1.74495,8.575951,-0.25547498,0.2187625,0.5559125
1692465946040,22.979,0.48600003,-1.422,7.2949505,-0.2083125,0.4277625,0.5988125
1692465946067,23.006,0.53895,-1.0360501,8.073,-0.2036375,0.36905,0.5955125
1692465946098,23.037,0.120000005,-0.43305,7.66095,-0.19415,0.23925,0.559075
1692465946126,23.065,-0.11595,0.021000002,7.1610003,-0.113025,-0.070125,0.4060375
1692465946155,23.094,0.112950005,0.028050002,7.5370502,0.1287,-0.1524875,0.0411125
1692465946185,23.124,0.027,-0.19395001,9.43305,0.278025,-0.0952875,-0.23925
1692465946215,23.154,0.010050001,-0.13605,10.057051,0.400675,-0.0358875,-0.5154875
1692465946240,23.179,0.26805001,-0.15300001,10.335,0.5198875,0.0011,-0.81221247
1692465946271,23.21,0.32805002,0.38700002,9.96195,0.53185,-0.0017875,-0.8327
1692465946301,23.24,-0.46305,0.25095,10.396951,0.5132875,-0.0419375,-0.814
1692465946329,23.268,0.01905,0.061950002,11.793,0.506275,-0.077,-0.8058875
1692465946360,23.299,0.64395005,0.26505002,12.034051,0.4984375,-0.066,-0.71995
1692465946387,23.326,0.23295002,-2.25195,10.79895,0.4764375,-0.037125,-0.62755
1692465946417,23.356,0.034050003,-2.42895,14.401951,0.32381248,-0.0743875,-0.2039125
1692465946444,23.383,-0.16395001,-1.6129501,13.329,0.1331,-0.1078,0.24447499
1692465946474,23.413,-0.19695,-0.44505003,8.57295,-0.1128875,-0.117425,0.760925
1692465946503,23.442,0.81900007,-0.56700003,6.807,-0.4049375,-0.062975,1.160775
1692465946531,23.47,0.63495004,-1.1410501,9.7560005,-0.268675,0.003575,0.5702125
1692465946562,23.501,0.132,-1.14405,10.1320505,-0.18865,-0.0281875,0.3315125
1692465946590,23.529,-0.43395,-0.67005,9.44505,-0.1551,-0.0979,0.2695
1692465946618,23.557,-0.010950001,-0.23400001,8.04405,-0.1414875,-0.1263625,0.372625
1692465946649,23.588,0.02205,0.27705002,6.9100504,-0.1104125,-0.0537625,0.3559875
1692465946678,23.617,-0.051000003,0.44700003,6.7639503,-0.0534875,0.022824999,0.2517625
1692465946706,23.645,0.10095,0.21495001,8.04405,0.122925,0.0878625,-0.1379125
1692465946737,23.676,0.097950004,-0.028050002,9.82005,0.3196875,0.092125,-0.5731
1692465946765,23.704,0.13695,-0.27,9.784051,0.3763375,0.084425,-0.716375
1692465946800,23.739,-0.21900001,0.057000004,10.479,0.350625,0.04455,-0.7451125
1692465946826,23.765,-0.35505003,-0.23400001,10.88595,0.293975,0.0242,-0.6815875
1692465946855,23.794,-0.09705,-1.12695,11.41695,0.17847499,0.0218625,-0.5138375
1692465946882,23.821,-0.45600003,-1.6350001,12.987,0.1161875,0.045649998,-0.417175
1692465946911,23.85,-0.915,-1.13205,14.131051,-0.0955625,0.09735,-0.1203125
1692465946938,23.877,-1.38195,-0.9979501,12.325951,-0.212575,0.125675,0.0452375
1692465946968,23.907,-1.9110001,-1.266,10.392,-0.284075,0.17105,0.15235
1692465946997,23.936,0.63705003,-1.55805,9.693001,-0.2965875,0.341,0.1874125
1692465947025,23.964,0.94095004,-1.4479501,9.20505,-0.28985,0.4222625,0.2044625
1692465947056,23.995,-0.171,-2.26395,9.436951,-0.297825,0.24915,0.3898125
1692465947086,24.025,-1.3770001,-2.3410501,10.6390505,-0.320375,0.0177375,0.5416125
1692465947116,24.055,-0.51600003,-1.7880001,10.45695,-0.43821248,-0.198,0.91465
1692465947148,24.087,-0.64305,-0.84900004,8.55405,-0.5003625,-0.13255,1.1004125
1692465947173,24.112,-0.18300001,-0.58605003,6.7900505,-0.5146625,-0.0495,1.2043625
1692465947202,24.141,0.23700002,-0.93105006,8.33205,-0.3388,0.0103124995,0.9783125
1692465947230,24.169,-0.13995,-0.78705,9.94995,-0.2052875,0.004125,0.72985
1692465947263,24.202,-0.633,0.16395001,8.50395,-0.0004125,-0.0787875,0.2937
1692465947292,24.231,-0.63105005,0.66,7.17495,0.0765875,-0.110275,0.1216875
1692465947321,24.26,-0.279,0.58095,7.03695,0.2754125,-0.0037125,-0.385
1692465947349,24.288,-0.07305,0.117000006,8.08695,0.4114,0.093225,-0.751025
1692465947378,24.317,-0.22395001,0.28905,9.624001,0.6183375,0.1533125,-1.1796125
1692465947408,24.347,-0.777,0.49995002,10.030951,0.627825,0.104499996,-1.116775
1692465947436,24.375,-0.19500001,0.25995,10.10295,0.5506875,0.0133375,-0.811525
1692465947467,24.406,0.38295,0.31800002,10.29405,0.5247,0.0122375,-0.6985
1692465947498,24.437,-0.07305,0.72705,10.278001,0.4651625,-0.0196625,-0.51205
1692465947521,24.46,-0.432,0.85605,11.11305,0.4153875,-0.0823625,-0.4074125
1692465947546,24.485,0.42900002,1.6369501,10.62495,0.37454998,-0.1397,-0.31845
1692465947572,24.511,-0.010950001,0.13605,8.956051,0.3909125,-0.1419,-0.3157
1692465947600,24.539,-0.29805002,-0.78705,11.989051,0.4175875,-0.117837496,-0.3553
1692465947628,24.567,-0.171,-1.4100001,14.275051,0.391875,-0.1018875,-0.3037375
1692465947655,24.594,0.28500003,-2.2429502,12.336,0.073699996,-0.0631125,0.2690875
1692465947681,24.62,0.34695002,-1.6849501,11.5990505,-0.166925,-0.0444125,0.69519997
1692465947712,24.651,0.14895001,-1.848,10.713,-0.38885,-0.0507375,1.07195
1692465947744,24.683,-0.52995,-1.13205,10.098001,-0.6507875,-0.1219625,1.376375
1692465947774,24.713,-0.37395,-0.78195006,9.33405,-0.6840625,-0.1419,1.292225
1692465947802,24.741,-0.022950001,-0.28005,7.5390005,-0.5836875,-0.071775,0.783475
1692465947836,24.775,0.04095,0.08295,7.0320005,-0.336325,0.0545875,0.0158125
1692465947865,24.804,0.087000005,-0.354,8.001,-0.2028125,0.078099996,-0.31295
1692465947893,24.832,0.003,-0.37305,9.16395,0.0154,0.0545875,-0.68145
1692465947922,24.861,0.24195,-0.19095,9.222,0.0760375,0.035475,-0.7497875
1692465947952,24.891,0.13005,0.13800001,8.55195,0.1035375,0.017875,-0.76353747
1692465947979,24.918,-0.015000001,-0.024,8.817,0.1368125,-0.0198,-0.6876375
1692465948010,24.949,-0.41505003,0.052050002,9.7890005,0.1700875,-0.0336875,-0.63195
1692465948038,24.977,-0.94395006,0.22005,10.122001,0.23333749,-0.01155,-0.5355625
1692465948069,25.008,-1.014,0.24105,10.177051,0.23333749,-0.01155,-0.5355625
1692465948096,25.035,0.28995,-0.009000001,12.240001,0.250525,0.1945625,-0.408375
1692465948126,25.065,-0.38895002,0.102000006,11.692051,0.24213749,0.23155,-0.31075
1692465948153,25.092,-0.34305,-0.58605003,10.048051,0.2250875,0.197725,-0.1566125
1692465948186,25.125,-0.058050003,-1.2400501,11.601001,0.170225,0.0581625,0.14135
1692465948214,25.153,0.762,-0.72705,10.368,-0.0121,0.0396,0.5303375
1692465948243,25.182,-1.9780501,-0.79005,7.932,-0.1436875,0.0209,0.7959875
1692465948271,25.21,-1.4250001,-1.4070001,10.335,-0.2800875,-0.031625,1.0608125
1692465948301,25.24,-0.39795002,-1.7209501,11.23005,-0.2893,0.034925,1.0715375
1692465948330,25.269,-0.68805003,-0.79695004,8.868,-0.307725,0.1560625,1.0938125
1692465948356,25.295,-0.50100005,-0.43095002,8.740951,-0.374825,0.2558875,1.063425
1692465948383,25.322,0.24000001,-0.48600003,9.18105,-0.358325,0.2151875,0.864325
1692465948412,25.351,0.28305,-0.25605002,8.3550005,-0.1892,0.1247125,0.2223375
1692465948443,25.382,-0.13305001,0.09705,7.46295,-0.0911625,0.048125,-0.0622875
1692465948466,25.405,-0.058050003,0.07395,7.9800005,-0.0059125,-0.043725,-0.28545
1692465948496,25.435,0.04605,-0.01905,9.18795,0.1387375,-0.14533749,-0.5885
1692465948524,25.463,-0.147,0.21495001,8.841001,0.1926375,-0.1461625,-0.663025
1692465948555,25.494,-0.16095,0.186,8.54205,0.2297625,-0.135575,-0.6941
1692465948586,25.525,0.41205,-0.53295004,10.404,0.2781625,-0.0985875,-0.7297125
1692465948614,25.553,0.0,-0.62895006,10.689,0.2624875,-0.07865,-0.730675
1692465948644,25.583,-0.59895,-0.65805006,9.705001,0.1945625,-0.1007875,-0.627275
1692465948672,25.611,0.35205,-0.67005,12.424951,0.0182875,-0.108625,-0.329175
1692465948705,25.644,0.16095,-0.21300001,13.578001,-0.0463375,-0.0682,-0.2652375
1692465948734,25.673,-0.80295,-1.7160001,10.785001,-0.09075,-0.039325,-0.249975
1692465948761,25.7,0.50100005,-1.5510001,13.498951,-0.1551,-0.0537625,-0.13213749
1692465948789,25.728,0.67095006,-0.71805006,11.179951,-0.2118875,-0.051425,0.036575
1692465948820,25.759,0.273,-0.57405,9.306001,-0.312675,-0.078099996,0.351725
1692465948854,25.793,-0.11400001,-1.8499501,8.05395,-0.2858625,-0.1309,0.340725
1692465948885,25.824,0.43800002,-2.592,11.344951,-0.1876875,-0.173525,0.2267375
1692465948910,25.849,-0.13995,-1.8400501,9.724951,-0.22165,-0.14739999,0.34925
1692465948936,25.875,-0.22395001,-1.4100001,7.668,-0.429,-0.141625,0.901175
1692465948962,25.901,-0.10395,-0.72705,6.5340004,-0.4835875,-0.145475,1.0505
1692465948992,25.931,-0.08205,-0.072000004,7.53,-0.3972375,-0.0661375,0.82885
1692465949020,25.959,-0.33900002,0.294,7.5940504,-0.2838,-0.0111375,0.5542625
1692465949047,25.986,-0.13695,0.12900001,7.7239504,-0.12979999,0.0441375,0.193875
1692465949076,26.015,0.26595002,-0.109950006,8.48205,0.2215125,0.16335,-0.6595875
1692465949105,26.044,0.13395001,-0.23895001,9.220051,0.3513125,0.1959375,-0.9898625
1692465949135,26.074,-0.109050006,-0.24900001,10.48095,0.4434375,0.1329625,-1.2139875
1692465949162,26.101,-0.24300002,-0.25095,10.503,0.4235,0.077825,-1.1526625
1692465949190,26.129,-0.81705004,-0.060000002,9.847051,0.3438875,0.0484,-0.96648747
1692465949218,26.157,-1.06605,-0.74700004,9.97395,0.3438875,0.0484,-0.96648747
1692465949249,26.188,0.36900002,-1.4500501,13.930051,0.2762375,0.13255,-0.83765
1692465949277,26.216,-0.77205,-1.02405,11.44995,0.1128875,0.21175,-0.3730375
1692465949304,26.243,-1.55505,-2.628,10.82295,-0.00275,0.1962125,-0.0462
1692465949333,26.272,0.20595,-3.7360501,13.447051,-0.103675,0.162525,0.229625
1692465949363,26.302,0.31905,-2.8170002,14.296051,-0.3667125,0.1332375,0.79695
1692465949392,26.331,-1.5780001,-2.18505,8.82195,-0.7170625,-0.1076625,1.44485
1692465949422,26.361,-2.6530502,-2.43195,8.736,-0.7550125,-0.22825,1.4672625
1692465949450,26.389,-0.66405004,-2.661,11.149051,-0.6974,-0.211475,1.3140875
1692465949478,26.417,0.064950004,-1.35405,9.37005,-0.5625125,0.120175,1.0990375
1692465949509,26.448,-0.29505002,-0.21000001,7.7790003,-0.5292375,0.210925,1.0894125
1692465949541,26.48,-0.01995,-0.23400001,6.9310503,-0.324225,0.0939125,0.7071625
1692465949568,26.507,-0.31905,0.23400001,6.1699505,-0.12979999,0.0460625,0.29067498
1692465949595,26.534,-0.50895,0.35805002,6.6559505,0.2520375,0.09515,-0.59894997
1692465949628,26.567,-0.702,0.23895001,7.5270004,0.3938,0.1309,-0.90585
1692465949654,26.593,-0.80505,-0.040050004,8.116051,0.593175,0.1907125,-1.191025
1692465949683,26.622,-0.70995003,-0.34005,9.378,0.6513375,0.2239875,-1.2621125
1692465949714,26.653,-0.43395,-0.65595,10.584001,0.6666,0.2484625,-1.277375
1692465949742,26.681,-0.45105,-0.81405,10.77795,0.5512375,0.21395,-1.0318
1692465949771,26.71,-0.62595004,-0.70605004,11.3209505,0.323125,0.0672375,-0.5416125
1692465949800,26.739,-0.30495003,-0.9670501,12.163951,0.2134,0.0034375,-0.2990625
1692465949829,26.768,-0.25005,-0.24900001,12.994051,0.127325,-0.0375375,-0.1148125
1692465949858,26.797,-0.043950003,0.17895001,9.741,0.04455,-0.0999625,0.0188375
1692465949886,26.825,-0.45600003,-2.01795,11.805,0.0584375,-0.1302125,-0.0103124995
1692465949918,26.857,0.42600003,-3.05205,14.335051,0.101475,-0.142175,-0.0537625
1692465949947,26.886,0.00795,-1.71105,11.971951,0.01375,-0.14575,0.109725
1692465949975,26.914,-0.07005,-0.186,7.4820004,-0.3458125,-0.2492875,0.7492375
1692465950004,26.943,1.128,-0.117000006,5.7630005,-0.41415,-0.2902625,0.8460375
1692465950031,26.97,1.13505,-1.1509501,8.20005,-0.3507625,-0.2849,0.6953375
1692465950061,27.0,-0.051000003,-1.7160001,9.79605,-0.1123375,-0.3031875,0.2605625
1692465950089,27.028,-0.57105005,-1.371,9.81105,-0.0697125,-0.37345,0.21133749
1692465950121,27.06,-0.21405001,-1.25205,8.262,-0.1423125,-0.35255,0.35915
1692465950150,27.089,-0.063,-0.66495,7.4890504,-0.180125,-0.22055,0.4192375
1692465950180,27.119,-0.24300002,-0.036000002,6.87405,-0.1689875,0.002475,0.3551625
1692465950211,27.15,-0.08205,0.025950002,7.7569504,-0.034375,0.073425,-0.009075
1692465950239,27.178,0.16800001,-0.42600003,8.950951,0.0820875,0.101475,-0.2869625
1692465950268,27.207,0.22095,-0.66495,9.682051,0.199925,0.1211375,-0.5281375
1692465950296,27.235,0.076950006,-0.81405,10.275001,0.3014,0.0779625,-0.6221875
1692465950324,27.263,0.112950005,-0.84705,11.023951,0.27115,0.028324999,-0.5033875
1692465950354,27.293,-0.33900002,-0.56700003,10.894951,0.171325,-0.0303875,-0.2657875
1692465950382,27.321,-0.49395,-0.76095,10.179001,0.1370875,-0.0242,-0.2171125
1692465950412,27.351,0.51000005,-1.48905,13.114051,0.116325,0.0070125,-0.2154625
1692465950442,27.381,0.42405003,-0.13605,14.280001,0.0738375,0.09515,-0.2011625
1692465950470,27.409,-2.739,-1.6200001,8.236051,0.039049998,0.0793375,-0.1252625
1692465950500,27.439,0.027,-2.7930002,13.19505,-0.0259875,0.002475,0.05335
1692465950528,27.467,1.12995,-2.532,12.634951,-0.091575,0.055275,0.1865875
1692465950559,27.498,-0.35805002,-0.36795002,8.31495,-0.3735875,0.09405,0.736725
1692465950588,27.527,-2.0310001,-1.09095,6.558,-0.4643375,-0.0243375,0.927025
1692465950616,27.555,-0.018000001,-2.14695,10.842001,-0.3221625,-0.100925,0.670725
1692465950644,27.583,1.125,-2.673,14.22,-0.2173875,0.011275,0.4797375
1692465950680,27.619,0.513,-1.05495,9.556951,-0.20899999,0.078925,0.50765
1692465950708,27.647,0.38595003,-0.49500003,6.5119505,-0.254925,-0.056925,0.59455
1692465950737,27.676,0.25605002,0.25095,6.94995,-0.1918125,-0.283525,0.4085125
1692465950767,27.706,0.53205,0.33,7.1250005,-0.0757625,-0.2825625,0.184525
1692465950793,27.732,-0.513,0.38700002,8.35995,0.2083125,-0.1984125,-0.2728
1692465950824,27.763,-0.16395001,0.17895001,7.8289504,0.3436125,-0.14245,-0.5055875
1692465950852,27.791,0.273,-0.112050004,8.34795,0.522225,0.0397375,-0.8963625
1692465950883,27.822,0.24705002,-0.40395,9.042001,0.54395,0.1117875,-0.9736375
1692465950912,27.851,0.097950004,-0.28500003,10.540951,0.51645,0.1214125,-0.9304625
1692465950940,27.879,0.094050005,0.22905001,10.31595,0.370425,0.0352,-0.5784625
1692465950969,27.908,0.22305001,-0.072000004,9.43305,0.3045625,0.009075,-0.416625
1692465950999,27.938,-0.48705003,0.18795002,11.283001,0.272525,0.003025,-0.344575
1692465951028,27.967,-0.003,-0.14595,11.899951,0.274725,0.0061875,-0.373175
1692465951059,27.998,1.1230501,-1.8139501,12.922951,0.263175,0.07535,-0.3938
1692465951084,28.023,0.036000002,-1.7730001,12.477,0.19525,0.090475,-0.268675
1692465951114,28.053,-0.58005005,-1.35,11.203951,0.0540375,0.0394625,0.0006875
1692465951146,28.085,0.37905002,-1.7520001,10.548,-0.2776125,-0.0716375,0.5479375
1692465951176,28.115,0.333,-2.02005,10.52595,-0.419925,0.00385,0.73315
1692465951205,28.144,-0.147,-1.4599501,10.00695,-0.446875,-0.0048125,0.75322497
1692465951233,28.172,-0.63795,-0.76305,8.4199505,-0.4585625,-0.0702625,0.623425
1692465951260,28.199,-0.64695,-0.36405003,6.4429502,-0.4197875,-0.0463375,0.471075
1692465951287,28.226,-0.24795002,-0.072000004,6.5820003,-0.3386625,0.02475,0.274175
1692465951317,28.256,0.15795001,-0.35205,8.13,-0.1013375,0.202675,-0.148775
1692465951349,28.288,0.08895,-0.38505003,7.68795,0.0127875,0.24007499,-0.3125375
1692465951370,28.309,0.10605001,-0.49995002,8.04705,0.100099996,0.2212375,-0.422125
1692465951405,28.344,0.273,-0.57195,9.259951,0.175725,0.098037496,-0.514525
1692465951434,28.373,0.031050002,-0.31305,10.057051,0.1835625,0.00495,-0.5515125
1692465951463,28.402,-0.19695,-0.29895002,10.179001,0.1821875,-0.027775,-0.5537125
1692465951492,28.431,-0.33600003,-0.34005,10.27305,0.18425,-0.044,-0.5506875
1692465951522,28.461,-0.58995,-1.12905,10.644,0.196625,-0.003025,-0.520025
1692465951552,28.491,-0.34605002,-1.4239501,12.772051,0.154825,0.088825,-0.3229875
1692465951587,28.526,-0.61395,-2.23305,11.89605,0.075625,0.121825,-0.125675
1692465951619,28.558,0.537,-2.6779501,12.802951,-0.14093749,0.1189375,0.3466375
1692465951646,28.585,1.0200001,-2.5489502,12.175951,-0.2517625,0.0829125,0.586025
1692465951679,28.618,0.41700003,-1.1560501,10.491,-0.44701248,-0.09185,0.8735375
1692465951706,28.645,-0.95400006,-1.69395,8.73795,-0.476025,-0.2052875,0.830225
1692465951735,28.674,-1.9159501,-2.0650501,9.15495,-0.436425,-0.2745875,0.69355
1692465951764,28.703,-0.29805002,-2.532,11.46195,-0.3036,-0.1441,0.4857875
1692465951792,28.731,0.24000001,-1.7040001,9.46605,-0.298925,0.0089375,0.5339125
1692465951822,28.761,0.30405003,-1.16805,8.181001,-0.3524125,0.1018875,0.78705
1692465951851,28.79,0.50100005,-0.64395005,7.7160006,-0.3359125,0.013612499,0.8344875
1692465951880,28.819,0.24405001,0.058950003,7.2690005,-0.1896125,-0.121275,0.4937625
1692465951907,28.846,-0.14505,0.43305,6.83295,-0.0798875,-0.1307625,0.14575
1692465951937,28.876,0.024,0.41295,6.90495,0.20075,-0.083325,-0.56045
1692465951964,28.903,0.079050004,0.078,8.049001,0.3540625,-0.02805,-0.8542875
1692465951995,28.934,-0.32205,-0.072000004,9.757951,0.5641625,0.071775,-1.2365375
1692465952026,28.965,-0.26700002,-0.423,10.290001,0.5919375,0.08855,-1.2555125
1692465952054,28.993,0.012,-0.864,10.299001,0.528,0.1238875,-1.0197
1692465952082,29.021,0.34005,-1.12905,10.773001,0.44275,0.140525,-0.83215
1692465952110,29.049,0.13695,-1.47405,10.81095,0.3243625,0.12705,-0.6081625
1692465952138,29.077,0.64395005,-1.06005,12.645,0.0529375,0.00605,-0.0650375
1692465952170,29.109,0.84300005,0.040050004,11.175,-0.070125,-0.056375,0.24365
1692465952199,29.138,-1.1050501,-0.98805004,10.665001,-0.132275,-0.147675,0.55165
1692465952227,29.166,0.02205,-2.403,13.885051,-0.0477125,-0.1750375,0.43559998
1692465952258,29.197,1.4800501,-2.22795,12.460951,-0.01595,-0.0716375,0.3694625
1692465952289,29.228,0.62505,-1.8000001,8.712001,-0.1397,-0.0515625,0.588225
1692465952314,29.253,0.44295,-1.8070501,8.93505,-0.34814999,-0.259325,0.8465875
1692465952344,29.283,0.64905006,-1.6849501,9.49005,-0.37125,-0.338525,0.827475
1692465952372,29.311,0.24705002,-1.48395,9.780001,-0.3664375,-0.3553,0.84095
1692465952404,29.343,0.16800001,-0.933,7.9600506,-0.3477375,-0.3370125,0.8949875
1692465952432,29.371,0.24900001,-0.22905001,5.9020505,-0.19525,-0.1711875,0.659175
1692465952459,29.398,0.16605,-0.201,6.7369504,-0.1181125,-0.0919875,0.4096125
1692465952488,29.427,0.44805002,-0.38700002,8.02995,-0.0328625,-0.022824999,0.127875
1692465952518,29.457,0.74205005,-0.28695002,8.097,0.1406625,0.06765,-0.364925
1692465952545,29.484,0.76605004,-0.33705002,8.575951,0.20927499,0.0768625,-0.520575
1692465952575,29.514,0.62700003,-0.14295001,9.064051,0.2781625,0.011275,-0.689425
1692465952604,29.543,0.43395,-0.36105,9.757951,0.2894375,-0.0320375,-0.7359
1692465952634,29.573,0.16095,-0.48795003,10.677,0.301675,-0.066,-0.6875
1692465952663,29.602,0.24705002,-0.70305,10.57005,0.2957625,-0.0424875,-0.6100875
1692465952691,29.63,0.37395,-0.85200006,10.687051,0.2726625,0.006325,-0.5303375
1692465952720,29.659,0.795,0.016050002,12.72105,0.1821875,0.094875,-0.3529625
1692465952748,29.687,-0.717,-1.46895,10.309051,0.130625,0.100375,-0.25135
1692465952786,29.725,1.6620001,-4.0620003,13.86795,0.050325,0.08305,-0.045375
1692465952815,29.754,1.6969501,-3.4660501,14.572051,-0.1830125,0.050049998,0.4827625
1692465952844,29.783,0.59205,-2.1079502,12.7240505,-0.401775,-0.073699996,0.9508125
1692465952873,29.812,-1.164,-1.6180501,9.153001,-0.5839625,-0.24887499,1.3223375
1692465952901,29.84,-2.4019501,-1.2870001,8.50905,-0.568975,-0.2985125,1.1308
1692465952931,29.87,-0.54195005,-1.4809501,9.63105,-0.329725,0.1744875,0.4327125
1692465952959,29.898,-0.058050003,-1.40505,9.243,-0.329725,0.1744875,0.4327125
1692465952991,29.93,0.666,-1.09095,7.3639503,-0.182325,0.5709,0.1115125
1692465953020,29.959,0.11805001,-0.25800002,7.056,-0.095425,0.4268,-0.0515625
1692465953048,29.987,-0.07305,0.078,7.32105,-0.056649998,0.259875,-0.1021625
1692465953076,30.015,-0.13005,0.15495001,7.8550506,0.103675,0.0878625,-0.427625
1692465953104,30.043,0.16095,-0.177,7.7380505,0.22825,0.0966625,-0.6865375
1692465953136,30.075,0.16800001,-0.46605003,7.6450505,0.346225,0.1186625,-0.8639125
1692465953163,30.102,0.20895001,-0.52905005,9.0400505,0.444675,0.093225,-0.8221125
1692465953194,30.133,0.38295,-0.77505004,9.966001,0.35475,0.007425,-0.60555
1692465953222,30.161,0.43800002,-0.77805007,10.378051,0.2965875,-0.0253,-0.5599
1692465953250,30.189,0.18705001,-0.49995002,10.5720005,0.2457125,-0.0512875,-0.5473875
1692465953279,30.218,-0.39795002,-0.82800007,11.53905,0.1615625,-0.096525,-0.4357375
1692465953307,30.246,0.30705002,-1.2900001,12.70005,0.134475,-0.0924,-0.3344
1692465953337,30.276,0.83295006,-2.226,10.510051,0.0848375,-0.0089375,-0.16115
1692465953367,30.306,0.34005,-2.3070002,12.949051,0.0407,-0.01815,-0.0682
1692465953395,30.334,-0.75495005,-1.3429501,13.18095,-0.1285625,-0.192225,0.2726625
1692465953427,30.366,-0.84105,-1.161,10.372951,-0.23045,-0.229075,0.48785
1692465953453,30.392,-0.087000005,-1.35195,9.150001,-0.282975,-0.1654125,0.6006
1692465953482,30.421,0.66300005,-2.295,9.259951,-0.2017125,0.123475,0.367675
1692465953512,30.451,0.3,-2.56605,10.395,-0.1689875,0.185625,0.257675
1692465953548,30.487,-0.0010500001,-1.5010501,9.8869505,-0.276925,0.0160875,0.5005
1692465953573,30.512,-0.11805001,-1.12695,8.78205,-0.3531,-0.0787875,0.66715
1692465953600,30.539,-0.06105,-0.162,5.7889504,-0.3421,-0.0559625,0.503525
1692465953630,30.569,0.13005,-0.094950005,7.36005,-0.2506625,0.0163625,0.203225
1692465953657,30.596,0.54405004,-0.684,8.51805,0.0099,0.132825,-0.3982
1692465953684,30.623,0.522,-0.81600004,9.330001,0.1403875,0.14533749,-0.6065125
1692465953716,30.655,0.41895002,-0.58605003,9.777,0.269225,0.0567875,-0.7173375
1692465953746,30.685,0.32805002,-0.79695004,9.571051,0.2605625,-0.00715,-0.648725
1692465953775,30.714,0.61305004,-0.84705,10.09605,0.23925,-0.0512875,-0.57722497
1692465953804,30.743,0.61305004,-0.82995003,10.026,0.2072125,-0.08195,-0.472175
1692465953838,30.777,0.17295001,-1.9050001,10.5070505,0.1678875,-0.11055,-0.3392125
1692465953864,30.803,0.82905006,-2.0029502,14.538001,0.1398375,-0.123475,-0.23705
1692465953893,30.832,0.24405001,-1.8019501,12.451051,0.0881375,-0.122925,-0.0691625
1692465953922,30.861,-0.59505004,-2.4799502,10.818001,-0.0875875,-0.0889625,0.404525
1692465953951,30.89,1.2040501,-3.0919502,12.601951,-0.16885,-0.06875,0.596475
1692465953980,30.919,0.57705003,-1.8259501,10.866,-0.3003,-0.0572,0.872025
1692465954008,30.947,0.072000004,-1.0309501,8.69295,-0.3491125,-0.1010625,0.9757
1692465954040,30.979,-0.79095006,-1.1010001,6.93795,-0.3559875,-0.1656875,0.9977
1692465954070,31.009,-1.10895,-1.5010501,9.0709505,-0.21835,-0.165275,0.76505
1692465954099,31.038,0.42600003,-2.07495,11.25405,-0.0922625,0.0562375,0.6985
1692465954127,31.066,0.53895,-1.1920501,8.311951,-0.0862125,0.1596375,0.7734375
1692465954156,31.095,0.46500003,-1.0360501,7.9920006,-0.0935,0.188375,0.803275
1692465954184,31.123,0.201,0.009000001,6.97695,-0.070675,0.0251625,0.6243875
1692465954214,31.153,0.109950006,0.34905002,7.767,0.0840125,-0.0677875,0.1551
1692465954242,31.181,0.015000001,0.44895002,6.5670004,0.2165625,-0.03355,-0.20927499
1692465954271,31.21,0.14400001,-0.0139500005,7.6090503,0.3557125,0.023375,-0.6026625
1692465954299,31.238,0.024,-0.43305,8.81295,0.54395,0.1266375,-1.1754875
1692465954330,31.269,0.13695,-0.69405,10.26105,0.564025,0.1535875,-1.26335
1692465954359,31.298,-0.13005,-0.21000001,9.592951,0.4411,0.150425,-1.06755
1692465954388,31.327,-0.28605002,-0.08295,9.495001,0.339075,0.138875,-0.9290875
1692465954416,31.355,0.61095005,-0.85200006,11.13,0.2303125,0.1486375,-0.8859125
1692465954444,31.383,0.15795001,-1.5600001,12.52995,0.2278375,0.1606,-0.9183625
1692465954477,31.416,0.31905,-0.97395,13.717051,0.12485,0.0878625,-0.63195
1692465954510,31.449,0.28500003,-1.098,10.122001,-0.1104125,-0.0075625,-0.0176
1692465954539,31.478,0.43800002,-1.7539501,12.987,-0.1563375,-0.0328625,0.11935
1692465954567,31.506,0.49095002,-2.1370502,14.457001,-0.1442375,-0.0614625,0.12045
1692465954598,31.537,0.462,-1.31595,10.23705,-0.1637625,-0.1232,0.182325
1692465954627,31.566,0.48600003,-0.97605,7.34805,-0.2211,-0.1434125,0.3122625
1692465954656,31.595,1.36695,-2.01495,7.1989503,-0.2432375,-0.147675,0.4296875
1692465954688,31.627,1.14495,-2.7160501,11.182051,-0.22275,-0.1615625,0.4422
1692465954714,31.653,0.76395005,-2.4799502,11.701951,-0.237875,-0.2239875,0.52648747
1692465954742,31.681,0.31395,-1.31895,8.47305,-0.378125,-0.4156625,0.8589625
1692465954770,31.709,0.16800001,-0.86895007,7.7260504,-0.417725,-0.43285,0.934175
1692465954802,31.741,0.14595,-0.37605003,7.3639503,-0.31955,-0.27307498,0.7205
1692465954831,31.77,-0.67095006,0.105000004,7.5490503,-0.2094125,-0.157575,0.4767125
1692465954860,31.799,-0.10605001,-0.09105001,7.8840003,0.0554125,0.081125,-0.1331
1692465954889,31.828,0.43605003,-0.105000004,8.2240505,0.190025,0.2173875,-0.4610375
1692465954919,31.858,0.37905002,-0.34395,9.16395,0.3840375,0.4068625,-1.01805
1692465954949,31.888,0.08205,-0.49005002,9.351001,0.418825,0.377575,-1.1543125
1692465954978,31.917,0.26805001,-0.57195,9.399,0.38541248,0.1956625,-1.0421125
1692465955007,31.946,0.01695,-0.72705,9.72,0.3388,0.1348875,-0.847275
1692465955034,31.973,0.26805001,-2.12295,11.802001,0.2264625,0.0782375,-0.4334
1692465955062,32.001,0.27600002,-1.1869501,14.526001,0.15015,0.0625625,-0.230175
1692465955092,32.031,-1.2390001,-2.391,9.87495,-0.08195,0.04235,0.2578125
1692465955121,32.06,-0.82005006,-3.5970001,11.494051,-0.08195,0.04235,0.2578125
1692465955152,32.091,0.85695004,-3.5689502,14.371051,-0.3982,0.1084875,0.8685875
1692465955176,32.115,-0.15195,-1.8760501,11.343,-0.549725,0.0297,1.2137125
1692465955209,32.148,-2.38995,-1.4929501,7.9530005,-0.6546375,-0.1208625,1.446225
1692465955237,32.176,-2.28195,-1.2870001,8.953951,-0.539825,-0.1628,1.09615
1692465955270,32.209,-0.39405003,-1.1389501,9.54705,-0.282975,0.3058,0.5427125
1692465955308,32.247,0.052950002,-0.88095003,7.4749503,-0.1749,0.5053125,0.3716625
1692465955332,32.271,-0.01995,-0.49005002,6.38805,0.0341,0.477675,-0.0042625
1692465955360,32.299,-0.18105,-0.30405003,6.47205,0.0341,0.477675,-0.0042625
1692465955388,32.327,-0.08205,0.033,7.5750003,0.1579875,0.20295,-0.285725
1692465955415,32.354,-0.29505002,0.11400001,7.1280003,0.224675,0.125675,-0.445775
1692465955442,32.381,-0.231,-0.19800001,7.2780004,0.4181375,0.10285,-0.8548375
1692465955475,32.414,-0.28095,-0.60300004,9.052051,0.53405,0.1166,-1.106325
1692465955501,32.44,-0.109050006,-0.97905004,9.78195,0.53405,0.1166,-1.106325
1692465955556,32.495,0.42900002,-0.90000004,10.61295,0.2443375,-0.037675,-0.4318875
1692465955572,32.511,0.072000004,-0.64605004,10.219951,0.1296625,-0.117975,-0.1794375
1692465955596,32.535,-0.71895003,-0.76305,10.2630005,0.0543125,-0.18315,-0.0441375
1692465955622,32.561,-0.22605,-1.16295,13.609051,0.0281875,-0.2057,-0.029975
1692465955650,32.589,1.2229501,-0.67200005,13.035001,0.0378125,-0.16665,-0.0930875
1692465955678,32.617,0.63195,-2.592,9.72,0.0842875,-0.0493625,-0.198
1692465955706,32.645,-0.034950003,-2.41995,13.94505,0.07645,-0.089375,-0.1126125
1692465955735,32.674,-0.57795,-1.6390501,13.416,-0.1282875,-0.252725,0.4728625
1692465955763,32.702,-0.19005,-0.73905003,9.519,-0.253825,-0.25547498,0.7610625
1692465955795,32.734,0.61800003,-1.524,7.8790503,-0.2542375,-0.0977625,0.6430875
1692465955823,32.762,0.45000002,-2.1679502,9.222,-0.171325,-0.0248875,0.358875
1692465955852,32.791,-0.054,-1.9579501,10.191001,-0.144925,-0.061325,0.157575
1692465955879,32.818,-0.13005,-1.7350501,9.736951,-0.144925,-0.061325,0.157575
1692465955909,32.848,-0.049050003,-0.71505004,7.1010003,-0.27775,-0.161975,0.46915
1692465955939,32.878,-0.41505003,-0.23205002,6.6559505,-0.2501125,-0.0759,0.3205125
1692465955967,32.906,-0.48705003,0.033,7.2739506,-0.168025,-0.0006875,0.0490875
1692465955996,32.935,-0.13695,-0.13605,8.071051,0.078099996,0.143275,-0.473275
1692465956024,32.963,-0.09195001,-0.27705002,8.016001,0.20955,0.2058375,-0.6678375
1692465956056,32.995,-0.372,-0.56505,9.13605,0.3716625,0.2349875,-0.855525
1692465956082,33.021,-0.37395,-0.933,10.323001,0.3845875,0.2055625,-0.834075
1692465956113,33.052,-0.231,-1.299,11.166,0.3625875,0.177375,-0.7528125
1692465956143,33.082,-0.67605,-1.4119501,10.396951,0.2314125,0.1461625,-0.41195
1692465956171,33.11,-0.17805001,-2.0029502,11.641951,0.1331,0.1280125,-0.1747625
1692465956199,33.138,0.036000002,-0.009000001,13.036951,-0.049225,0.0845625,0.1588125
1692465956227,33.166,-2.21805,-2.4049501,9.5119505,-0.099,0.059675,0.1934625
1692465956257,33.196,0.30405003,-4.62195,13.473001,-0.0732875,0.0396,0.1414875
1692465956293,33.232,1.16805,-3.1930501,12.465,-0.1318625,0.0446875,0.303325
1692465956322,33.261,-0.76695,-1.9789501,8.820001,-0.5952375,-0.1731125,1.2469875
1692465956351,33.29,-0.97305006,-2.5849502,10.15995,-0.7398875,-0.4679125,1.4535125
1692465956380,33.319,-1.61205,-2.70195,10.857,-0.6230125,-0.4170375,1.2326875
1692465956412,33.351,-1.047,-1.8690001,9.592951,-0.434775,-0.069299996,0.960575
1692465956440,33.379,0.064950004,-1.43805,9.28695,-0.38445,0.094875,0.8982875
1692465956469,33.408,0.73005,-1.48905,8.02005,-0.320375,0.2055625,0.7865
1692465956497,33.436,0.41895002,-1.16805,7.69995,-0.22659999,0.2380125,0.5809375
1692465956525,33.464,-0.39795002,-0.48600003,7.52505,-0.0275,0.0682,0.0482625
1692465956554,33.493,-0.33600003,-0.177,7.0680003,0.1238875,-0.0677875,-0.342925
1692465956584,33.523,-0.74805003,-0.29700002,6.83505,0.2253625,-0.018975,-0.548075
1692465956612,33.551,-0.78105,-0.64605004,7.76205,0.33495,0.068475,-0.7478625
1692465956644,33.583,-0.54705,-1.2250501,9.44205,0.473,0.2344375,-0.9823
1692465956669,33.608,-0.22395001,-1.503,10.941001,0.4712125,0.2968625,-0.995775
1692465956698,33.637,0.0049500004,-1.58895,10.83495,0.419925,0.3221625,-0.9229
1692465956729,33.668,-0.36,-0.96195006,9.768001,0.2374625,0.20735,-0.5666375
1692465956756,33.695,-0.079950005,-0.555,11.580001,0.108899996,0.0312125,-0.3025
1692465956785,33.724,-0.666,-2.42895,11.154,0.103125,-0.0165,-0.25575
1692465956817,33.756,-0.37005,-3.52305,12.769051,0.15345,-0.061325,-0.2050125
1692465956846,33.785,0.55605,-4.0020003,14.931001,0.0906125,-0.06875,-0.0452375
1692465956874,33.813,-0.48705003,-2.4799502,11.74005,-0.305525,-0.1571625,0.6865375
1692465956902,33.841,-0.73605,-1.5769501,9.088051,-0.47575,-0.2473625,0.9574125
1692465956934,33.873,0.58005005,-1.608,8.961,-0.529925,-0.2902625,0.9827125
1692465956962,33.901,0.762,-1.93605,9.708,-0.37454998,-0.1689875,0.5808
1692465956992,33.931,0.35700002,-1.8720001,9.36795,-0.263725,-0.1293875,0.3532375
1692465957022,33.961,-0.16095,-1.39005,8.916,-0.1216875,-0.215325,-0.00055
1692465957052,33.991,-0.22395001,-0.98295003,7.8840003,-0.061875,-0.2135375,-0.1753125
1692465957081,34.02,-0.45600003,-0.39900002,6.9739504,-0.021175,-0.1351625,-0.232925
1692465957109,34.048,-0.73395,-0.18405001,7.0150504,0.0374,-0.037675,-0.305525
1692465957137,34.076,-0.56805,-0.423,8.01795,0.2057,0.1511125,-0.5115
1692465957165,34.104,-0.16905001,-0.66795003,8.52105,0.301675,0.24213749,-0.6417125
1692465957193,34.132,-0.36705002,-0.94500005,9.085951,0.3804625,0.31707498,-0.7711
1692465957223,34.162,-0.54,-1.2870001,10.062,0.4184125,0.336875,-0.85635
1692465957251,34.19,-0.33405003,-1.01505,10.000051,0.3749625,0.2904,-0.7726125
1692465957282,34.221,-0.72405005,-1.005,9.50205,0.233475,0.193325,-0.4895
1692465957310,34.249,-0.86295,-1.419,10.167001,0.1769625,0.149325,-0.33825
1692465957337,34.276,-0.171,-1.67805,13.20495,0.1065625,0.091299996,-0.0834625
1692465957369,34.308,-1.26705,-1.00695,10.62195,0.0484,0.08415,0.0352
1692465957398,34.337,-1.44,-1.9909501,10.11495,-0.0314875,0.072325,0.15015
1692465957427,34.366,0.11505,-2.733,13.075951,-0.00275,0.1016125,0.0881375
1692465957454,34.393,0.63705003,-2.391,12.793051,-0.0482625,0.1463,0.1538625
1692465957486,34.425,-1.9210501,-2.9299502,7.8910503,-0.1618375,0.024475,0.3818375
1692465957508,34.447,-1.116,-3.348,10.744051,-0.27445,-0.149325,0.6281
1692465957546,34.485,0.13695,-2.9340003,12.099001,-0.4643375,-0.214775,1.0881749
1692465957574,34.513,-1.07805,-1.338,8.286,-0.55439997,-0.157575,1.3418624
1692465957601,34.54,0.036000002,-0.711,7.8889503,-0.5666375,-0.202675,1.4872
1692465957631,34.57,0.453,-0.79695004,8.04405,-0.5666375,-0.202675,1.4872
1692465957661,34.6,0.27600002,0.057000004,6.8040004,-0.081675,-0.0317625,0.466125
1692465957690,34.629,-0.57600003,0.19305001,6.4090505,0.088825,-0.0221375,-0.0350625
1692465957728,34.667,-0.32700002,-0.109950006,7.2109504,0.35915,-0.0661375,-0.8168875
1692465957754,34.693,-0.73800004,-0.43095002,7.9080005,0.542575,0.0617375,-1.1895125
1692465957781,34.72,-0.975,-0.71505004,8.64,0.5704875,0.1331,-1.2489125
1692465957814,34.753,-0.14895001,-1.05495,10.665001,0.489225,0.2182125,-1.0885875
1692465957840,34.779,0.096,-1.11,10.950001,0.4021875,0.2283875,-0.8767
1692465957871,34.81,-0.32205,-0.65805006,10.48095,0.30745,0.1890625,-0.62755
1692465957899,34.838,-0.59205,-1.23195,11.484,0.1711875,0.00715,-0.2717
1692465957927,34.866,-0.24795002,-1.1560501,14.83005,0.1414875,-0.0499125,-0.19195
1692465957957,34.896,0.91200006,-0.97605,12.18,0.0983125,-0.042075,-0.0551375
1692465957988,34.927,-0.15195,-2.082,8.238,0.0782375,-0.0449625,0.015125
1692465958018,34.957,-0.0010500001,-2.013,12.790951,-0.0050875,-0.1436875,0.1975875
1692465958048,34.987,0.063,-1.9600501,11.335951,-0.0985875,-0.1824625,0.3337125
1692465958076,35.015,-0.05595,-1.25205,9.62895,-0.2567125,-0.1810875,0.486475
1692465958106,35.045,-0.28605002,-1.4790001,7.97205,-0.2695,-0.17105,0.4362875
1692465958135,35.074,-0.81000006,-2.3479502,9.684,-0.2033625,-0.13213749,0.2641375
1692465958164,35.103,-0.32700002,-2.2069502,12.03705,-0.1783375,-0.0979,0.2737625
1692465958192,35.131,-0.76500005,-0.864,9.34605,-0.24915,-0.0075625,0.51301247
1692465958221,35.16,-0.98205006,-0.094950005,6.5119505,-0.2734875,0.0427625,0.5418875
1692465958250,35.189,-0.73605,0.11400001,5.8300505,-0.225775,0.103675,0.377025
1692465958280,35.219,-0.65895003,-0.12705001,8.34795,0.052525,0.2924625,-0.4195125
1692465958310,35.249,-0.39795002,-0.72300005,9.162001,0.214775,0.380875,-0.8364125
1692465958339,35.278,-0.50100005,-0.91395,9.196051,0.433125,0.3925625,-1.25455
1692465958369,35.308,-0.35505003,-1.149,10.323001,0.43835,0.31845,-1.18855
1692465958396,35.335,-0.27405003,-1.35,10.6699505,0.279125,0.140525,-0.70248747
1692465958428,35.367,-0.72900003,-1.3110001,10.057051,0.1824625,0.0661375,-0.43147498
1692465958459,35.398,-0.59505004,-1.40505,10.186951,0.0955625,0.004125,-0.18425
1692465958486,35.425,0.003,-1.4650501,12.0390005,-0.0386375,-0.0633875,0.208175
1692465958514,35.453,-1.66005,-0.31305,9.65295,-0.11275,-0.0996875,0.4725875
1692465958543,35.482,-2.49,-1.16805,9.19305,-0.11275,-0.0996875,0.4725875
1692465958573,35.512,0.83805007,-2.8459501,14.161951,-0.0705375,-0.0004125,0.576125
1692465958602,35.541,0.74205005,-2.0320501,11.467051,-0.1051875,0.0716375,0.6100875
1692465958631,35.57,-1.6980001,-2.0299501,7.4989505,-0.2817375,-0.1084875,0.738925
1692465958659,35.598,-0.97800004,-2.4390001,9.27495,-0.3375625,-0.24007499,0.75845
1692465958689,35.628,0.21105,-2.8909502,11.653951,-0.363,-0.2506625,0.7825125
1692465958717,35.656,0.19395001,-1.9530001,10.737,-0.43559998,-0.0815375,0.9197375
1692465958748,35.687,-0.09195001,-0.93600005,8.793,-0.4684625,-0.1023,0.9362375
1692465958776,35.715,-0.075,-0.23400001,7.8550506,-0.4445375,-0.1865875,0.8413625
1692465958804,35.743,-0.58695,0.61395,6.56505,-0.1791625,-0.227975,0.3460875
1692465958834,35.773,-1.1520001,0.86595005,5.9089503,0.23045,-0.073975,-0.2690875
1692465958863,35.802,0.048,-0.23205002,7.9800005,0.44027498,0.0457875,-0.56705
1692465958890,35.829,-0.14895001,-0.60300004,9.078,0.6188875,0.1705,-0.8358625
1692465958921,35.86,-0.48495004,-0.63600004,8.415,0.69313747,0.2151875,-0.9084625
1692465958950,35.889,-0.528,-0.62700003,8.77005,0.69313747,0.2151875,-0.9084625
1692465958979,35.918,-0.07305,-0.90000004,10.926001,0.332475,0.033825,-0.380325
1692465959005,35.944,-0.44895002,-0.60300004,10.266001,0.2437875,0.0160875,-0.323675
1692465959037,35.976,-1.18095,0.00405,11.017051,0.1397,-0.0202125,-0.3047
1692465959064,36.003,-0.77400005,0.025950002,11.47395,0.1310375,-0.0042625,-0.3273875
1692465959094,36.033,-0.19005,-1.83105,12.991951,0.2118875,0.1318625,-0.456775
1692465959124,36.063,-0.04695,-2.56605,14.62005,0.2484625,0.1731125,-0.4796
1692465959157,36.096,-1.0849501,-1.3450501,12.303,0.021724999,0.052249998,0.0609125
1692465959192,36.131,-0.36195,-0.70095,8.7960005,-0.1775125,-0.0353375,0.4585625
1692465959219,36.158,0.83295006,-1.12695,7.8859506,-0.3092375,-0.042625,0.7041375
1692465959248,36.187,0.66300005,-1.1340001,9.52095,-0.2682625,-0.0257125,0.65725
1692465959277,36.216,0.14895001,-1.1410501,9.745951,-0.2041875,-0.18287499,0.60307497
1692465959305,36.244,-0.21405001,-0.93795,8.808001,-0.188375,-0.2960375,0.56787497
1692465959336,36.275,-0.40800002,-0.71295005,8.07495,-0.1670625,-0.3510375,0.49335
1692465959364,36.303,-0.41505003,-0.56700003,8.293051,-0.1354375,-0.3265625,0.3773
1692465959393,36.332,-0.504,0.23595001,8.335951,0.0072875,-0.031625,-0.0935
1692465959421,36.36,-0.79095006,0.66,7.4550004,0.08525,0.050875,-0.281325
1692465959452,36.391,-0.33105,0.31995,8.158951,0.1882375,0.117699996,-0.501875
1692465959479,36.418,-0.11595,0.00405,9.14295,0.42185,0.21807499,-0.9499875
1692465959509,36.448,-0.46095002,0.22695,9.562051,0.4972,0.22715,-1.0627375
1692465959538,36.477,-0.23805001,0.10695001,9.45405,0.5201625,0.1964875,-1.074425
1692465959567,36.506,-0.09,-0.25305,9.291,0.4555375,0.087175,-0.90695
1692465959596,36.535,0.17295001,-1.1920501,10.83495,0.3199625,-0.004675,-0.572825
1692465959626,36.565,0.66105,-1.0360501,14.839951,0.221375,-0.0474375,-0.35021248
1692465959655,36.594,-0.726,0.16395001,10.677,-0.0374,-0.1599125,0.2536875
1692465959684,36.623,-2.7940502,-1.8360001,8.323951,-0.120175,-0.21367499,0.4835875
1692465959712,36.651,0.67800003,-2.76705,14.967001,-0.189475,-0.0341,0.5990875
1692465959741,36.68,0.75405,-2.6830502,13.5709505,-0.2919125,0.16499999,0.74909997
1692465959775,36.714,-1.14495,-1.4449501,9.768001,-0.57805,0.115775,1.3239875
1692465959804,36.743,-1.88505,-1.113,8.34105,-0.6213625,-0.0661375,1.3838
1692465959832,36.771,-0.74505,-0.75405,9.44205,-0.5797,-0.14093749,1.2439625
1692465959864,36.803,0.25395,-0.411,9.109051,-0.36574998,0.0644875,0.7550125
1692465959890,36.829,0.31395,0.102000006,7.6039505,-0.2347125,0.166925,0.4890875
1692465959921,36.86,-0.09900001,0.80595005,4.88205,0.0132,0.0820875,0.06545
1692465959949,36.888,-0.25005,1.026,5.32695,0.127325,-0.028875,-0.073425
1692465959979,36.918,-0.030000001,0.555,7.9890003,0.3840375,-0.117837496,-0.434225
1692465960008,36.947,-0.11805001,0.46800002,8.01795,0.5182375,-0.0928125,-0.6791125
1692465960040,36.979,-0.17295001,0.44895002,8.67105,0.647075,-0.0625625,-0.9263375
1692465960072,37.011,0.12195001,-0.43095002,10.785001,0.5666375,-0.0715,-0.7013875
1692465960100,37.039,0.3,-0.68700004,11.6320505,0.48221248,-0.0721875,-0.52648747
1692465960130,37.069,0.16605,-0.43800002,11.09595,0.358875,-0.0859375,-0.3157
1692465960156,37.095,0.402,-0.28695002,11.601001,0.058025,-0.15455,0.18315
1692465960186,37.125,0.24900001,0.86805004,11.950951,-0.0429,-0.1848,0.3469125
1692465960216,37.155,-1.9519501,-1.302,9.993,-0.0672375,-0.203775,0.2762375
1692465960245,37.184,0.23295002,-3.07095,14.584051,-0.0331375,-0.1700875,0.144925
1692465960272,37.211,1.7050501,-3.1590002,14.62695,-0.14575,0.0493625,0.2794
1692465960304,37.243,0.15405001,-0.933,11.299951,-0.14575,0.0493625,0.2794
1692465960333,37.272,0.85200006,-0.39900002,7.5510006,-0.6540875,-0.1123375,1.1383625
1692465960362,37.301,1.116,-1.36905,10.396951,-0.5570125,-0.1533125,0.8749125
1692465960390,37.329,-0.006,-1.24395,10.62705,-0.3884375,-0.15125,0.4706625
1692465960419,37.358,-0.49395,-0.91605,10.066951,-0.260425,-0.169675,0.161975
1692465960451,37.39,-0.279,-0.27,7.9489503,-0.1824625,-0.201025,0.007975
1692465960477,37.416,-0.010950001,-0.031050002,6.6250505,-0.102025,-0.0119624995,-0.1016125
1692465960506,37.445,0.012,-0.12900001,7.2330003,-0.0295625,0.08525,-0.233475
1692465960533,37.472,-0.07005,-0.27,8.65905,0.047849998,0.1313125,-0.3782625
1692465960565,37.504,-0.12795001,-0.73695004,9.97395,0.1610125,0.117975,-0.5883625
1692465960597,37.536,-0.31905,-0.49305,8.608951,0.1799875,0.0944625,-0.59455
1692465960624,37.563,-0.47505003,-0.44295,9.691051,0.15235,0.095837496,-0.5127375
1692465960652,37.591,-0.16395001,-0.82305,10.681951,0.08965,0.135575,-0.3532375
1692465960680,37.619,-0.87195003,-0.89505005,10.4740505,0.07205,0.1681625,-0.323675
1692465960708,37.647,-0.96300006,-0.64095,11.842951,0.0532125,0.1959375,-0.3014
1692465960740,37.679,-0.01995,-1.0309501,13.708051,0.0048125,0.2464,-0.2630375
1692465960769,37.708,-1.06605,-0.12195001,10.18395,-0.003025,0.2734875,-0.27981248
1692465960795,37.734,-1.6810501,-0.51705,9.3490505,0.0367125,0.23925,-0.2767875
1692465960824,37.763,0.546,-2.52705,12.003,0.063525,0.2140875,-0.237875
1692465960853,37.792,1.10895,-2.5129502,12.252001,-0.0026125,0.183975,0.0295625
1692465960881,37.82,0.043050002,-1.9069501,10.701,-0.1552375,0.0658625,0.409475
1692465960909,37.848,-0.96300006,-1.6560001,8.98305,-0.3400375,-0.12595,0.870375
1692465960938,37.877,-0.88905007,-1.098,8.382,-0.5097125,-0.3664375,1.3811874
1692465960965,37.904,-0.55605,-1.0339501,8.21205,-0.48221248,-0.3117125,1.39755
1692465960994,37.933,0.12495001,-0.90195006,8.94705,-0.3397625,-0.0664125,1.2175624
1692465961023,37.962,0.23295002,-0.12195001,8.025001,-0.24887499,-0.000275,1.0269876
1692465961048,37.987,0.22800002,0.44505003,6.1920004,-0.1555125,0.0006875,0.77494997
1692465961080,38.019,0.10605001,0.933,6.6870003,0.0609125,-0.0818125,0.1643125
1692465961105,38.044,0.24000001,0.48000002,7.4940004,0.2003375,-0.1078,-0.1351625
1692465961131,38.07,-0.17295001,0.504,8.311951,0.3466375,-0.1164625,-0.3760625
1692465961157,38.096,0.003,0.07395,9.568951,0.56155,-0.110825,-0.67705
1692465961185,38.124,-0.043950003,0.117000006,9.85095,0.601975,-0.092675,-0.7836125
1692465961213,38.152,-0.37695003,0.03795,9.847051,0.59235,-0.0639375,-0.8468625
1692465961240,38.179,-0.44595003,0.19605,10.534051,0.46873748,-0.0048125,-0.81427497
1692465961268,38.207,-0.61395,0.23400001,11.212951,0.3964125,0.0254375,-0.787325
1692465961295,38.234,-0.77205,0.29895002,11.25405,0.2959,0.0994125,-0.7566625
1692465961323,38.262,-0.04695,-0.021000002,12.0390005,0.267025,0.1343375,-0.7019375
1692465961350,38.289,1.82895,1.3230001,11.22795,0.2162875,0.1645875,-0.518375
1692465961377,38.316,-0.010950001,0.40095,8.652,0.1970375,0.1101375,-0.430375
1692465961403,38.342,-0.90300006,-0.03795,11.649,0.208175,-0.0056375,-0.3999875
1692465961430,38.369,-0.34095,-1.572,14.967001,0.246675,-0.1568875,-0.4371125
1692465961459,38.398,0.036000002,-2.08695,12.915001,0.1700875,-0.093637496,-0.3202375
1692465961486,38.425,0.10095,-1.098,10.351951,0.0044,-0.005225,-0.0352
1692465961517,38.456,-0.3,-1.26795,8.302951,-0.35475,0.01705,0.574475
1692465961545,38.484,-0.32700002,-1.0000501,9.580951,-0.44288749,-0.0121,0.6419875
1692465961574,38.513,-0.049050003,-1.48395,10.68,-0.4610375,-0.022824999,0.5042125
1692465961602,38.541,-0.15900001,-0.81105006,8.557051,-0.4420625,-0.014162499,0.4767125
1692465961638,38.577,-0.022950001,-0.040050004,5.9760003,-0.3832125,-0.0191125,0.393525
1692465961661,38.6,0.16305001,0.057000004,5.9880004,-0.329175,-0.0215875,0.2695
1692465961687,38.626,-0.07305,0.124050006,8.401051,-0.2443375,-0.019524999,0.113575
1692465961713,38.652,0.12705001,0.081,8.38395,-0.0077,-0.0312125,-0.2231625
1692465961738,38.677,0.28800002,0.27,7.8769503,0.100925,-0.0462,-0.374275
1692465961768,38.707,0.45000002,0.22395001,8.48205,0.1841125,-0.061049998,-0.4824875
1692465961797,38.736,0.055050004,0.423,9.02295,0.2424125,-0.0790625,-0.5328125
1692465961827,38.766,-0.25500003,0.744,8.499001,0.31239998,-0.11715,-0.57915
1692465961848,38.787,-0.264,0.28395,8.599951,0.3460875,-0.1027125,-0.6589
1692465961883,38.822,-0.03195,-0.54495,11.27805,0.4164875,0.0028875,-0.7940625
1692465961909,38.848,0.32595003,-0.38295,14.301001,0.4002625,0.048675,-0.699325
1692465961936,38.875,-1.03005,-0.53805,11.0460005,0.2145,0.0606375,-0.18933749
1692465961966,38.905,-1.0350001,-1.95105,12.340951,0.105325,0.0526625,0.0658625
1692465961996,38.935,0.58395004,-2.3790002,13.545001,0.0083875,0.07755,0.2673
1692465962024,38.963,0.61995006,-0.9979501,11.659051,-0.2627625,0.19635,0.8309125
1692465962053,38.992,-1.0830001,-1.28295,8.892,-0.55027497,0.033825,1.5103
1692465962082,39.021,-0.80805004,-1.3759501,10.55805,-0.572275,-0.0968,1.5329875
1692465962111,39.05,0.024,-1.5630001,10.573951,-0.460075,-0.06765,1.18305
1692465962136,39.075,-0.16095,-0.73905003,9.732,-0.4170375,0.0144375,1.0965625
1692465962169,39.108,-0.07305,0.081,8.47305,-0.3909125,0.0418,1.055175
1692465962198,39.137,-0.04695,0.57105005,7.03905,-0.2487375,-0.0097624995,0.6314
1692465962223,39.162,-0.14505,0.78900003,6.366,-0.099,-0.0144375,0.2167
1692465962250,39.189,-0.3,0.89205,6.34005,0.07755,-0.00055,-0.24213749
1692465962277,39.216,-0.324,0.50895,7.0129504,0.39627498,0.0468875,-1.062325
1692465962310,39.249,-0.36195,0.38505003,8.592,0.5050375,0.074525,-1.3432375
1692465962345,39.284,-0.528,0.22695,9.1380005,0.568425,0.109725,-1.4804626
1692465962372,39.311,-0.43905002,-0.15795001,10.564951,0.53267497,0.11385,-1.376925
1692465962400,39.339,-0.40605003,-0.28005,10.608001,0.3834875,0.1126125,-0.994125
1692465962429,39.368,-0.94200003,-0.13905,10.5070505,0.2778875,0.1079375,-0.7330125
1692465962458,39.397,-1.15995,-0.84900004,12.649951,0.0705375,0.1095875,-0.31913748
1692465962484,39.423,0.28500003,0.054,12.834001,-0.0061875,0.1442375,-0.2050125
1692465962510,39.449,-0.50100005,-1.11,10.06005,-0.07095,0.18493749,-0.094325
1692465962540,39.479,-0.147,-2.16105,14.581051,-0.1749,0.1390125,0.143825
1692465962569,39.508,-0.99000007,-1.2040501,12.432,-0.23925,0.061875,0.28765
1692465962599,39.538,-1.2430501,-0.21495001,9.049951,-0.44935,-0.0589875,0.7038625
1692465962626,39.565,-0.26205,-0.19395001,7.0459504,-0.4921125,-0.0595375,0.781
1692465962656,39.595,0.513,-1.74495,9.330001,-0.319825,0.049775,0.47355
1692465962686,39.625,-0.65505004,-1.728,11.356951,-0.2391125,0.050049998,0.37015
1692465962712,39.651,-0.9799501,-1.39005,11.529,-0.242,-0.023375,0.4384875
1692465962743,39.682,-0.81195,-0.36405003,8.466001,-0.352825,-0.1375,0.692725
1692465962771,39.71,-0.717,0.34605002,6.2389503,-0.3370125,-0.0851125,0.62645
1692465962803,39.742,-0.94200003,0.51600003,5.931,-0.2487375,0.005775,0.4054875
1692465962830,39.769,-0.64500004,0.105000004,8.11095,0.043725,0.16115,-0.2223375
1692465962863,39.802,-0.53505003,-0.522,9.990001,0.3070375,0.2311375,-0.7233875
1692465962893,39.832,-0.42000002,-0.79695004,9.526051,0.3639625,0.2228875,-0.8482375
1692465962922,39.861,-0.38595003,-0.94005007,10.687051,0.278025,0.1232,-0.7561125
1692465962952,39.891,-0.35295,-0.73005,10.91895,0.175725,0.0592625,-0.5707625
1692465962980,39.919,-0.97005004,-0.44505003,10.065001,-0.01265,-0.0515625,-0.1662375
1692465963013,39.952,-0.65205,-0.58395004,10.08405,-0.0567875,-0.0814,-0.043449998
1692465963040,39.979,0.19695,-0.26505002,11.680051,-0.040425,-0.0430375,0.0378125
1692465963067,40.006,-1.251,-1.7490001,10.378051,-0.0165,-0.025024999,0.0682
1692465963100,40.039,0.29205,-3.7770002,14.0449505,0.005225,-0.0642125,0.1362625
1692465963132,40.071,-0.64305,-3.0300002,13.69995,-0.2679875,-0.122375,0.593175
1692465963164,40.103,-3.051,-2.23095,8.547,-0.510125,-0.17655,0.957
1692465963190,40.129,-3.8400002,-2.0770502,7.6159506,-0.685575,-0.218625,1.1919875
1692465963220,40.159,-1.2049501,-2.1010501,10.49295,-0.7228375,0.00055,1.2706375
1692465963249,40.188,-0.50595003,-1.3039501,9.018001,-0.687225,0.25465,1.3255
1692465963279,40.218,0.027,-1.19895,7.8289504,-0.546975,0.4466,1.2315875
1692465963306,40.245,0.17505,-0.53805,7.8409505,-0.4115375,0.3092375,0.968825
1692465963337,40.276,-0.126,0.35595003,7.1989503,-0.1524875,-0.02255,0.42473748
1692465963366,40.305,-0.492,0.88695,5.7580504,-0.021175,-0.1315875,0.1357125
1692465963395,40.334,-0.46305,0.88005006,5.4949503,0.1478125,-0.179025,-0.2264625
1692465963424,40.363,0.04095,-0.08805001,7.65705,0.5515125,-0.097075,-1.0335875
1692465963453,40.392,-0.17295001,-0.522,10.174951,0.7803125,-0.0143,-1.4744124
1692465963481,40.42,-0.441,-0.49500003,10.099951,0.7503375,-0.0479875,-1.403325
1692465963510,40.449,-0.18495001,-0.20805001,9.865951,0.5190625,-0.14533749,-0.97679996
1692465963539,40.478,0.24900001,-0.15795001,10.06005,0.4148375,-0.15235,-0.856075
1692465963568,40.507,0.14595,-0.49800003,11.14605,0.3466375,-0.14575,-0.8278875
1692465963599,40.538,-0.006,-0.65805006,13.035001,0.276925,-0.18315,-0.749925
1692465963627,40.566,0.81900007,0.0,11.055,0.23773749,-0.21725,-0.61861247
1692465963656,40.595,0.0049500004,-1.1700001,9.82005,0.19745,-0.2363625,-0.4695625
1692465963686,40.625,-0.726,-2.87205,13.473001,0.164725,-0.2231625,-0.2355375
1692465963714,40.653,-0.147,-3.0010502,15.751951,-0.076175,-0.1434125,0.3081375
1692465963742,40.681,-0.43695003,-2.0970001,11.09895,-0.3172125,-0.091575,0.7885625
1692465963771,40.71,0.075,-2.022,9.703051,-0.527175,-0.06435,1.2159125
1692465963800,40.739,0.37395,-1.77795,9.073951,-0.64625,-0.0748,1.4009875
1692465963829,40.768,0.058050003,-1.2559501,8.724,-0.60335,-0.09405,1.2199
1692465963859,40.798,0.27600002,-1.10595,8.614051,-0.46805,-0.14905,0.7599625
1692465963883,40.822,0.22800002,-0.80205005,7.5799503,-0.379225,-0.1584,0.55935
1692465963916,40.855,-0.19305001,-0.29895002,6.51,-0.18315,-0.145475,0.2242625
1692465963945,40.884,-0.40800002,-0.31995,7.1850004,-0.091299996,-0.1285625,0.0774125
1692465963974,40.913,-0.13995,-0.56700003,8.571,0.08745,-0.013612499,-0.2803625
1692465964004,40.943,-0.087000005,-0.60795003,8.463,0.1640375,0.069025,-0.4631
1692465964034,40.973,0.10095,-0.294,8.57295,0.246675,0.149875,-0.6502375
1692465964062,41.001,0.13005,-0.31800002,8.904,0.256025,0.1359875,-0.6556
1692465964092,41.031,0.12195001,-0.31605002,9.423,0.261525,0.1029875,-0.6326375
1692465964122,41.061,-0.40605003,-0.31095,8.997001,0.286825,0.0264,-0.5946875
1692465964150,41.089,-0.68100005,-1.0890001,10.075951,0.2949375,0.0075625,-0.5993625
1692465964181,41.12,0.20895001,-1.062,12.946051,0.2619375,0.073425,-0.583275
1692465964209,41.148,-0.98505,-0.43995002,10.57905,0.1991,0.12925,-0.46035
1692465964238,41.177,-1.389,-2.60595,9.86295,0.07865,0.127325,-0.088275
1692465964268,41.207,0.72795004,-4.191,14.656051,0.0529375,0.12595,0.011
1692465964296,41.235,0.39105,-2.262,11.44305,-0.26345,0.128425,0.5949625
1692465964324,41.263,-0.54195005,-1.5799501,10.09605,-0.5259375,-0.0064625,1.090925
1692465964354,41.293,-1.0020001,-2.2759502,10.359,-0.66934997,-0.30085,1.2838374
1692465964382,41.321,-1.21695,-2.19,11.400001,-0.564575,-0.2655125,1.0142
1692465964414,41.353,-1.3969501,-1.7520001,9.92805,-0.3958625,0.0114124995,0.666325
1692465964443,41.382,-0.52500004,-0.9670501,8.403001,-0.34814999,0.127325,0.6215
1692465964471,41.41,0.22095,-0.43800002,6.912,-0.1892,0.256025,0.39833748
1692465964501,41.44,-0.31005,0.078,5.9950504,-0.079475,0.2498375,0.1995125
1692465964529,41.468,-0.77205,0.46800002,6.4120502,0.034925,0.1929125,-0.0160875
1692465964564,41.503,-0.52305,-0.15300001,7.2900004,0.2701875,0.0955625,-0.4285875
1692465964595,41.534,-0.41295,-0.71805006,8.580001,0.47795,0.1871375,-0.8031375
1692465964621,41.56,-0.11595,-0.98295003,9.696,0.51425,0.2195875,-0.90915
1692465964651,41.59,-0.37395,-0.9480001,10.681951,0.4830375,0.202675,-0.91905
1692465964680,41.619,-0.29805002,-0.81795,11.014951,0.3009875,0.0710875,-0.69685
1692465964708,41.647,-0.42000002,-0.72300005,10.773001,0.21807499,0.0055,-0.550825
1692465964742,41.681,-0.86295,-1.23195,12.597,0.143825,-0.0521125,-0.38885
1692465964761,41.7,0.16995001,-0.56205004,12.769051,0.1381875,-0.0455125,-0.3735875
1692465964797,41.736,0.32595003,-1.70595,9.43995,0.109725,0.0039875,-0.34141248
1692465964827,41.766,-0.96105003,-1.18005,11.319,0.09185,-0.0237875,-0.3106125
1692465964856,41.795,-0.34095,-1.338,13.059001,0.0416625,-0.169675,-0.1230625
1692465964885,41.824,-0.078,-1.146,11.448001,-0.0092124995,-0.175175,0.0314875
1692465964913,41.852,0.30195,-0.82605004,8.88195,-0.065725,-0.0847,0.1472625
1692465964942,41.881,0.30705002,-1.59405,8.16195,-0.0570625,-0.078099996,0.0972125
1692465964971,41.91,-0.26205,-1.917,9.97605,-0.0539,-0.1078,0.07205
1692465965000,41.939,-0.25005,-2.262,11.292001,-0.1417625,-0.1885125,0.2894375
1692465965028,41.967,-0.35505003,-1.371,9.34395,-0.2234375,-0.1909875,0.439725
1692465965060,41.999,-0.33600003,-0.79905003,7.9009504,-0.3284875,-0.0974875,0.4741
1692465965088,42.027,-0.40305,-0.12195001,7.59705,-0.3119875,-0.038775,0.3708375
1692465965115,42.054,-0.61095005,0.07395,8.059051,-0.1494625,0.06325,0.0576125
1692465965145,42.084,-0.72900003,-0.033,8.178,-0.0177375,0.1148125,-0.1546875
1692465965172,42.111,-0.36495003,-0.35895002,9.29895,0.271975,0.2272875,-0.63827497
1692465965202,42.141,-0.28095,-0.54105,9.3490505,0.36987498,0.2660625,-0.810425
1692465965232,42.171,-0.30705002,-0.79005,9.80805,0.39765,0.2325125,-0.8448
1692465965260,42.199,-0.102000006,-1.04805,10.155001,0.3449875,0.17379999,-0.7313625
1692465965290,42.229,-0.45795003,-1.3810501,10.333051,0.26785,0.11385,-0.5790125
1692465965319,42.258,-0.21405001,-1.2970501,11.616,0.1788875,0.06215,-0.414975
1692465965347,42.286,0.77595,-0.26505002,11.34,-0.0037125,-0.0202125,-0.0691625
1692465965378,42.317,-0.75000006,-1.536,9.241051,-0.086075,-0.1318625,0.204325
1692465965406,42.345,0.20895001,-3.5809503,12.966001,-0.07205,-0.20693749,0.293425
1692465965435,42.374,0.80205005,-3.01305,14.0449505,-0.1375,-0.2503875,0.58025
1692465965466,42.405,0.039,-1.9740001,10.6050005,-0.2778875,-0.2506625,0.8465875
1692465965496,42.435,-2.29695,-2.0080502,7.9800005,-0.522225,-0.3262875,1.247125
1692465965526,42.465,-1.6020001,-2.42895,11.08905,-0.52635,-0.2899875,1.217975
1692465965554,42.493,-1.22895,-2.09205,11.091001,-0.48455,-0.1342,1.105225
1692465965585,42.524,-0.91995007,-0.90000004,8.628,-0.398475,0.28985,0.9156125
1692465965614,42.553,-0.252,-0.30405003,7.0720506,-0.23595,0.38995,0.583
1692465965643,42.582,-0.42000002,0.21705002,6.558,-0.1032625,0.362725,0.2976875
1692465965671,42.61,-0.68295,0.37305,6.5839505,0.0455125,0.319825,-0.0143
1692465965701,42.64,-0.75495005,-0.025950002,7.6489506,0.34347498,0.2316875,-0.59015
1692465965729,42.668,-0.40605003,-0.53805,8.49405,0.473,0.2226125,-0.833525
1692465965759,42.698,-0.34800002,-0.81405,9.59805,0.6004625,0.2220625,-1.105775
1692465965787,42.726,-0.37905002,-0.76605004,10.231951,0.5627875,0.17613749,-1.058475
1692465965817,42.756,-0.19500001,-0.58095,10.528951,0.3788125,0.02805,-0.7519875
1692465965847,42.786,-0.10605001,-0.55695003,10.573951,0.3788125,0.02805,-0.7519875
1692465965876,42.815,-0.58995,-1.005,11.54895,0.2322375,-0.104225,-0.5363875
1692465965903,42.842,-0.65205,-1.2420001,13.159051,0.2003375,-0.1293875,-0.466125
1692465965935,42.874,-0.42000002,0.17400001,11.908051,0.1513875,-0.136125,-0.3460875
1692465965965,42.904,-0.55200005,-0.165,8.901,0.04895,-0.093225,-0.107525
1692465966000,42.939,0.31395,-0.91200006,9.253051,0.132,-0.038775,-0.2602875
1692465966024,42.963,-0.38895002,-1.90005,12.649951,0.1945625,-0.0309375,-0.3235375
1692465966053,42.992,-0.35505003,-1.6489501,11.611051,0.18865,-0.056925,-0.21367499
1692465966081,43.02,-0.564,-1.1700001,9.448951,-0.0710875,-0.1577125,0.443025
1692465966116,43.055,-0.51600003,-1.6849501,9.59805,-0.2110625,-0.1618375,0.71995
1692465966143,43.082,-0.23595001,-2.3410501,10.584001,-0.30827498,-0.0774125,0.8097375
1692465966172,43.111,-0.669,-1.8930001,10.057051,-0.3757875,-0.0477125,0.85745
1692465966201,43.14,-0.40995002,-1.1010001,8.688001,-0.4367,-0.0724625,0.9702
1692465966230,43.169,-0.39600003,-0.37800002,7.9410005,-0.4673625,-0.0925375,1.02025
1692465966259,43.198,-0.63105005,0.14805001,7.25895,-0.3177625,-0.0375375,0.61875
1692465966287,43.226,-0.597,0.049950004,8.431951,-0.1516625,0.024475,0.225775
1692465966317,43.256,-0.537,0.006,8.65005,0.0364375,0.0897875,-0.17655
1692465966344,43.283,-0.32205,-0.684,9.92805,0.345125,0.191125,-0.8020375
1692465966375,43.314,-0.61095005,-0.85395,9.79605,0.41745,0.1672,-0.9442125
1692465966405,43.344,-0.58500004,-1.0170001,10.27995,0.35915,0.1150875,-0.7689
1692465966433,43.372,-0.61905,-0.84195006,10.111951,0.2704625,0.0704,-0.5258
1692465966460,43.399,-1.03005,-0.65295005,9.21,0.0999625,0.0427625,-0.138875
1692465966496,43.435,-1.1880001,-0.26295,9.705001,0.0507375,0.0512875,-0.0408375
1692465966510,43.449,-0.75705004,0.112050004,10.663051,0.0356125,0.078099996,-0.0125124995
1692465966546,43.485,-1.7820001,-1.3930501,10.80405,0.0858,0.1810875,-0.0215875
1692465966577,43.516,-0.07305,-3.348,13.561951,0.1167375,0.24145,0.1623875
1692465966607,43.546,0.30195,-2.6209502,12.0390005,-0.00605,0.2151875,0.473275
1692465966637,43.576,-0.351,-1.9030501,9.87495,-0.504625,-0.07975,1.4049749
1692465966666,43.605,-1.7170501,-2.262,7.3090506,-0.6637125,-0.2828375,1.6462874
1692465966696,43.635,-2.3730001,-2.2429502,8.905951,-0.6980875,-0.410575,1.67035
1692465966725,43.664,-1.18605,-2.8290002,12.228001,-0.630575,-0.320375,1.6554999
1692465966753,43.692,-0.83895004,-2.02005,9.82005,-0.6065125,-0.0463375,1.97725
1692465966780,43.719,-0.35505003,-1.7809501,8.973001,-0.6065125,-0.0463375,1.97725
1692465966812,43.751,-0.102000006,-1.0030501,8.382,-0.5225,-0.0308,1.8849875
1692465966841,43.78,-0.89400005,-0.052050002,7.4119506,-0.326975,-0.1599125,1.316975
1692465966870,43.809,-1.2220501,0.117000006,7.4170504,-0.190025,-0.20735,1.0445875
1692465966898,43.837,-0.717,-0.47805002,8.118,0.1859,-0.109725,0.3458125
1692465966926,43.865,-0.34305,-0.88500005,9.30105,0.3730375,0.024475,-0.0581625
1692465966957,43.896,-0.80295,-0.47805002,8.86995,0.52415,0.1546875,-0.516725
